"A0_accX_x","A0_accX_y","A1_rmsX_x","A1_rmsX_y"
0,0.5298008405,0,73.81691942,
2e-05,-0.2010597479,2e-05,73.08605883,
4e-05,0.8952311347,4e-05,73.45148913,
6e-05,-1.29735063,6e-05,74.18234972,
8e-05,-0.9319203362,8e-05,73.45148913,
0.0001,-1.29735063,0.0001,73.08605883,
0.00012,-1.662780925,0.00012,73.81691942,
0.00014,-2.028211219,0.00014,73.45148913,
0.00016,-0.9319203362,0.00016,73.08605883,
0.00018,-0.9319203362,0.00018,73.81691942,
0.0002,-0.9319203362,0.0002,73.08605883,
0.00022,-0.566490042,0.00022,73.08605883,
0.00024,0.5298008405,0.00024,73.81691942,
0.00026,0.1643705463,0.00026,73.08605883,
0.00028,0.8952311347,0.00028,73.08605883,
0.0003,0.8952311347,0.0003,73.81691942,
0.00032,0.5298008405,0.00032,73.45148913,
0.00034,0.1643705463,0.00034,73.08605883,
0.00036,-0.2010597479,0.00036,73.81691942,
0.00038,-0.2010597479,0.00038,73.08605883,
0.0004,0.1643705463,0.0004,73.45148913,
0.00042,-0.566490042,0.00042,73.45148913,
0.00044,-0.2010597479,0.00044,73.08605883,
0.00046,1.626091723,0.00046,73.45148913,
0.00048,1.626091723,0.00048,73.81691942,
0.0005,2.356952311,0.0005,73.08605883,
0.00052,1.626091723,0.00052,72.72062854,
0.00054,0.8952311347,0.00054,73.81691942,
0.00056,0.5298008405,0.00056,73.81691942,
0.00058,1.991522017,0.00058,73.45148913,
0.0006,0.8952311347,0.0006,73.81691942,
0.00062,-0.2010597479,0.00062,73.45148913,
0.00064,-1.662780925,0.00064,73.08605883,
0.00066,-0.566490042,0.00066,73.81691942,
0.00068,-0.9319203362,0.00068,73.45148913,
0.0007,0.5298008405,0.0007,73.08605883,
0.00072,1.260661429,0.00072,73.81691942,
0.00074,0.8952311347,0.00074,73.45148913,
0.00076,0.5298008405,0.00076,72.72062854,
0.00078,-1.29735063,0.00078,73.45148913,
0.0008,-0.2010597479,0.0008,73.08605883,
0.00082,0.8952311347,0.00082,73.08605883,
0.00084,-2.393641513,0.00084,73.45148913,
0.00086,-3.124502101,0.00086,73.08605883,
0.00088,-2.393641513,0.00088,74.18234972,
0.0009,-3.124502101,0.0009,74.18234972,
0.00092,-2.028211219,0.00092,71.98976795,
0.00094,-1.29735063,0.00094,73.45148913,
0.00096,-1.29735063,0.00096,74.18234972,
0.00098,0.1643705463,0.00098,73.81691942,
0.001,-0.566490042,0.001,73.45148913,
0.00102,0.5298008405,0.00102,73.45148913,
0.00104,-0.2010597479,0.00104,73.45148913,
0.00106,-0.2010597479,0.00106,73.08605883,
0.00108,-0.9319203362,0.00108,73.81691942,
0.0011,-1.662780925,0.0011,73.45148913,
0.00112,0.1643705463,0.00112,73.08605883,
0.00114,-0.566490042,0.00114,73.81691942,
0.00116,-0.566490042,0.00116,73.08605883,
0.00118,-0.2010597479,0.00118,73.08605883,
0.0012,1.260661429,0.0012,73.81691942,
0.00122,0.5298008405,0.00122,73.45148913,
0.00124,1.260661429,0.00124,73.45148913,
0.00126,1.626091723,0.00126,73.08605883,
0.00128,0.5298008405,0.00128,73.08605883,
0.0013,0.5298008405,0.0013,73.08605883,
0.00132,0.8952311347,0.00132,73.45148913,
0.00134,0.5298008405,0.00134,73.08605883,
0.00136,0.8952311347,0.00136,73.08605883,
0.00138,0.5298008405,0.00138,73.45148913,
0.0014,0.8952311347,0.0014,73.81691942,
0.00142,1.260661429,0.00142,73.45148913,
0.00144,2.356952311,0.00144,73.45148913,
0.00146,0.8952311347,0.00146,73.45148913,
0.00148,2.356952311,0.00148,73.81691942,
0.0015,1.626091723,0.0015,73.81691942,
0.00152,0.8952311347,0.00152,73.45148913,
0.00154,-0.2010597479,0.00154,73.81691942,
0.00156,0.5298008405,0.00156,73.81691942,
0.00158,0.1643705463,0.00158,73.45148913,
0.0016,-0.9319203362,0.0016,73.45148913,
0.00162,-0.9319203362,0.00162,73.45148913,
0.00164,-0.9319203362,0.00164,73.08605883,
0.00166,-0.2010597479,0.00166,73.45148913,
0.00168,0.8952311347,0.00168,73.45148913,
0.0017,1.260661429,0.0017,73.45148913,
0.00172,0.8952311347,0.00172,72.72062854,
0.00174,0.1643705463,0.00174,73.08605883,
0.00176,0.8952311347,0.00176,73.08605883,
0.00178,0.5298008405,0.00178,72.72062854,
0.0018,-2.028211219,0.0018,73.08605883,
0.00182,-2.393641513,0.00182,74.18234972,
0.00184,-3.124502101,0.00184,74.18234972,
0.00186,-3.85536269,0.00186,72.72062854,
0.00188,-3.124502101,0.00188,74.54778001,
0.0019,-3.489932395,0.0019,73.45148913,
0.00192,-0.9319203362,0.00192,74.54778001,
0.00194,-0.566490042,0.00194,72.72062854,
0.00196,0.8952311347,0.00196,73.81691942,
0.00198,0.5298008405,0.00198,74.18234972,
0.002,-2.028211219,0.002,73.08605883,
0.00202,-0.566490042,0.00202,73.08605883,
0.00204,-1.662780925,0.00204,73.81691942,
0.00206,-2.028211219,0.00206,73.45148913,
0.00208,0.1643705463,0.00208,73.45148913,
0.0021,-0.9319203362,0.0021,73.45148913,
0.00212,-0.9319203362,0.00212,73.45148913,
0.00214,-0.2010597479,0.00214,73.08605883,
0.00216,-0.566490042,0.00216,74.18234972,
0.00218,0.5298008405,0.00218,73.45148913,
0.0022,1.626091723,0.0022,72.72062854,
0.00222,0.5298008405,0.00222,73.45148913,
0.00224,0.1643705463,0.00224,73.81691942,
0.00226,-0.2010597479,0.00226,73.08605883,
0.00228,-0.2010597479,0.00228,72.72062854,
0.0023,0.1643705463,0.0023,73.45148913,
0.00232,-0.9319203362,0.00232,73.45148913,
0.00234,0.1643705463,0.00234,72.72062854,
0.00236,2.356952311,0.00236,73.45148913,
0.00238,0.5298008405,0.00238,73.45148913,
0.0024,0.1643705463,0.0024,72.72062854,
0.00242,0.8952311347,0.00242,73.45148913,
0.00244,0.8952311347,0.00244,73.08605883,
0.00246,1.991522017,0.00246,72.72062854,
0.00248,1.991522017,0.00248,73.08605883,
0.0025,1.991522017,0.0025,73.45148913,
0.00252,1.260661429,0.00252,72.72062854,
0.00254,0.5298008405,0.00254,73.81691942,
0.00256,0.8952311347,0.00256,73.08605883,
0.00258,0.1643705463,0.00258,72.72062854,
0.0026,-0.2010597479,0.0026,73.45148913,
0.00262,-0.2010597479,0.00262,73.08605883,
0.00264,-0.566490042,0.00264,73.08605883,
0.00266,0.1643705463,0.00266,72.72062854,
0.00268,0.8952311347,0.00268,73.08605883,
0.0027,1.991522017,0.0027,72.35519825,
0.00272,0.5298008405,0.00272,74.18234972,
0.00274,-2.028211219,0.00274,72.35519825,
0.00276,1.991522017,0.00276,71.98976795,
0.00278,1.991522017,0.00278,71.98976795,
0.0028,-3.489932395,0.0028,73.45148913,
0.00282,0.8952311347,0.00282,73.08605883,
0.00284,0.5298008405,0.00284,72.72062854,
0.00286,-1.662780925,0.00286,74.54778001,
0.00288,-2.028211219,0.00288,73.81691942,
0.0029,-1.29735063,0.0029,73.08605883,
0.00292,-2.028211219,0.00292,73.45148913,
0.00294,0.1643705463,0.00294,72.35519825,
0.00296,0.5298008405,0.00296,73.08605883,
0.00298,-0.9319203362,0.00298,72.72062854,
0.003,-1.662780925,0.003,72.35519825,
0.00302,-0.2010597479,0.00302,73.08605883,
0.00304,-1.29735063,0.00304,73.45148913,
0.00306,-1.29735063,0.00306,72.72062854,
0.00308,-0.566490042,0.00308,73.08605883,
0.0031,-0.9319203362,0.0031,73.08605883,
0.00312,-0.2010597479,0.00312,72.35519825,
0.00314,0.5298008405,0.00314,73.08605883,
0.00316,-0.2010597479,0.00316,73.45148913,
0.00318,1.260661429,0.00318,73.45148913,
0.0032,1.626091723,0.0032,73.45148913,
0.00322,0.8952311347,0.00322,73.45148913,
0.00324,0.5298008405,0.00324,73.45148913,
0.00326,1.260661429,0.00326,73.08605883,
0.00328,1.260661429,0.00328,73.45148913,
0.0033,0.8952311347,0.0033,73.08605883,
0.00332,1.260661429,0.00332,73.45148913,
0.00334,-0.566490042,0.00334,72.72062854,
0.00336,0.8952311347,0.00336,73.08605883,
0.00338,0.1643705463,0.00338,73.45148913,
0.0034,1.626091723,0.0034,73.08605883,
0.00342,1.991522017,0.00342,73.08605883,
0.00344,1.260661429,0.00344,73.45148913,
0.00346,2.356952311,0.00346,73.45148913,
0.00348,0.8952311347,0.00348,73.08605883,
0.0035,1.626091723,0.0035,73.08605883,
0.00352,1.260661429,0.00352,73.45148913,
0.00354,0.5298008405,0.00354,73.81691942,
0.00356,-0.566490042,0.00356,73.45148913,
0.00358,0.1643705463,0.00358,73.08605883,
0.0036,-0.2010597479,0.0036,73.81691942,
0.00362,-1.29735063,0.00362,73.45148913,
0.00364,-0.2010597479,0.00364,73.08605883,
0.00366,0.5298008405,0.00366,73.81691942,
0.00368,0.5298008405,0.00368,72.72062854,
0.0037,0.5298008405,0.0037,73.08605883,
0.00372,-1.662780925,0.00372,72.35519825,
0.00374,-2.759071807,0.00374,73.08605883,
0.00376,-3.124502101,0.00376,73.08605883,
0.00378,0.8952311347,0.00378,72.35519825,
0.0038,-0.9319203362,0.0038,73.08605883,
0.00382,-2.028211219,0.00382,72.72062854,
0.00384,-3.489932395,0.00384,72.72062854,
0.00386,-1.29735063,0.00386,73.81691942,
0.00388,-0.9319203362,0.00388,73.45148913,
0.0039,0.1643705463,0.0039,73.81691942,
0.00392,-0.9319203362,0.00392,73.08605883,
0.00394,0.1643705463,0.00394,73.45148913,
0.00396,-0.9319203362,0.00396,73.81691942,
0.00398,-2.028211219,0.00398,73.45148913,
0.004,-0.566490042,0.004,73.45148913,
0.00402,-1.29735063,0.00402,73.45148913,
0.00404,-1.662780925,0.00404,73.45148913,
0.00406,-1.662780925,0.00406,73.08605883,
0.00408,0.5298008405,0.00408,73.45148913,
0.0041,-0.566490042,0.0041,73.08605883,
0.00412,0.8952311347,0.00412,73.45148913,
0.00414,1.260661429,0.00414,73.45148913,
0.00416,0.1643705463,0.00416,73.45148913,
0.00418,1.260661429,0.00418,73.45148913,
0.0042,1.626091723,0.0042,73.81691942,
0.00422,-0.2010597479,0.00422,73.08605883,
0.00424,0.5298008405,0.00424,73.08605883,
0.00426,-0.9319203362,0.00426,73.81691942,
0.00428,0.1643705463,0.00428,73.08605883,
0.0043,-0.2010597479,0.0043,73.08605883,
0.00432,-0.2010597479,0.00432,73.81691942,
0.00434,-0.2010597479,0.00434,73.45148913,
0.00436,0.5298008405,0.00436,73.08605883,
0.00438,0.8952311347,0.00438,73.81691942,
0.0044,1.626091723,0.0044,73.45148913,
0.00442,1.626091723,0.00442,73.45148913,
0.00444,1.991522017,0.00444,73.45148913,
0.00446,-0.2010597479,0.00446,73.45148913,
0.00448,1.626091723,0.00448,72.72062854,
0.0045,-0.2010597479,0.0045,73.81691942,
0.00452,0.5298008405,0.00452,73.45148913,
0.00454,-0.9319203362,0.00454,73.08605883,
0.00456,-1.29735063,0.00456,73.81691942,
0.00458,-1.662780925,0.00458,73.45148913,
0.0046,-0.2010597479,0.0046,73.45148913,
0.00462,-0.566490042,0.00462,73.81691942,
0.00464,0.8952311347,0.00464,73.45148913,
0.00466,0.1643705463,0.00466,73.45148913,
0.00468,0.1643705463,0.00468,73.45148913,
0.0047,-3.124502101,0.0047,72.35519825,
0.00472,1.260661429,0.00472,73.08605883,
0.00474,0.1643705463,0.00474,74.18234972,
0.00476,-2.028211219,0.00476,74.18234972,
0.00478,-2.759071807,0.00478,74.18234972,
0.0048,0.1643705463,0.0048,74.54778001,
0.00482,-2.028211219,0.00482,73.08605883,
0.00484,-2.759071807,0.00484,73.08605883,
0.00486,-0.2010597479,0.00486,73.08605883,
0.00488,-1.29735063,0.00488,73.45148913,
0.0049,-0.2010597479,0.0049,73.45148913,
0.00492,-0.2010597479,0.00492,73.81691942,
0.00494,-1.662780925,0.00494,73.81691942,
0.00496,-0.9319203362,0.00496,73.45148913,
0.00498,-1.29735063,0.00498,73.81691942,
0.005,-0.9319203362,0.005,73.08605883,
0.00502,-0.9319203362,0.00502,72.72062854,
0.00504,-1.29735063,0.00504,73.45148913,
0.00506,-0.2010597479,0.00506,73.08605883,
0.00508,-0.9319203362,0.00508,73.08605883,
0.0051,0.8952311347,0.0051,73.81691942,
0.00512,0.8952311347,0.00512,72.35519825,
0.00514,1.260661429,0.00514,73.08605883,
0.00516,0.8952311347,0.00516,73.08605883,
0.00518,0.5298008405,0.00518,72.72062854,
0.0052,1.626091723,0.0052,73.45148913,
0.00522,-0.566490042,0.00522,73.45148913,
0.00524,0.1643705463,0.00524,72.35519825,
0.00526,-0.566490042,0.00526,73.45148913,
0.00528,0.5298008405,0.00528,73.45148913,
0.0053,0.1643705463,0.0053,72.72062854,
0.00532,-0.2010597479,0.00532,73.45148913,
0.00534,0.8952311347,0.00534,73.45148913,
0.00536,1.260661429,0.00536,72.72062854,
0.00538,0.8952311347,0.00538,73.45148913,
0.0054,2.722382606,0.0054,73.45148913,
0.00542,1.260661429,0.00542,73.08605883,
0.00544,1.260661429,0.00544,73.45148913,
0.00546,0.8952311347,0.00546,73.45148913,
0.00548,0.5298008405,0.00548,72.72062854,
0.0055,0.1643705463,0.0055,73.45148913,
0.00552,-0.566490042,0.00552,73.45148913,
0.00554,-2.028211219,0.00554,73.08605883,
0.00556,-0.566490042,0.00556,73.45148913,
0.00558,-0.566490042,0.00558,73.81691942,
0.0056,-0.2010597479,0.0056,72.72062854,
0.00562,1.991522017,0.00562,73.45148913,
0.00564,1.626091723,0.00564,73.08605883,
0.00566,0.1643705463,0.00566,73.08605883,
0.00568,1.260661429,0.00568,73.81691942,
0.0057,-0.566490042,0.0057,71.62433766,
0.00572,-1.29735063,0.00572,73.08605883,
0.00574,0.5298008405,0.00574,74.18234972,
0.00576,-4.586223278,0.00576,73.08605883,
0.00578,0.5298008405,0.00578,73.08605883,
0.0058,-0.566490042,0.0058,73.81691942,
0.00582,-0.9319203362,0.00582,72.35519825,
0.00584,-2.393641513,0.00584,73.45148913,
0.00586,0.8952311347,0.00586,73.81691942,
0.00588,0.1643705463,0.00588,74.18234972,
0.0059,-0.2010597479,0.0059,72.35519825,
0.00592,0.1643705463,0.00592,73.08605883,
0.00594,-0.2010597479,0.00594,73.08605883,
0.00596,-1.662780925,0.00596,73.08605883,
0.00598,-0.9319203362,0.00598,73.45148913,
0.006,-0.2010597479,0.006,73.45148913,
0.00602,-0.9319203362,0.00602,72.72062854,
0.00604,0.5298008405,0.00604,73.08605883,
0.00606,0.5298008405,0.00606,73.45148913,
0.00608,0.8952311347,0.00608,73.08605883,
0.0061,-0.2010597479,0.0061,73.45148913,
0.00612,0.8952311347,0.00612,73.08605883,
0.00614,0.8952311347,0.00614,72.72062854,
0.00616,0.1643705463,0.00616,73.45148913,
0.00618,0.5298008405,0.00618,73.45148913,
0.0062,0.1643705463,0.0062,73.08605883,
0.00622,0.5298008405,0.00622,73.08605883,
0.00624,0.5298008405,0.00624,73.08605883,
0.00626,-0.566490042,0.00626,73.08605883,
0.00628,-0.2010597479,0.00628,73.81691942,
0.0063,0.5298008405,0.0063,73.45148913,
0.00632,1.260661429,0.00632,72.35519825,
0.00634,1.626091723,0.00634,73.45148913,
0.00636,2.356952311,0.00636,72.72062854,
0.00638,1.991522017,0.00638,72.72062854,
0.0064,1.626091723,0.0064,73.45148913,
0.00642,1.260661429,0.00642,73.08605883,
0.00644,0.5298008405,0.00644,72.72062854,
0.00646,0.8952311347,0.00646,73.81691942,
0.00648,0.1643705463,0.00648,73.45148913,
0.0065,-0.566490042,0.0065,72.72062854,
0.00652,-0.566490042,0.00652,73.45148913,
0.00654,-0.566490042,0.00654,73.45148913,
0.00656,-0.2010597479,0.00656,72.72062854,
0.00658,0.8952311347,0.00658,73.45148913,
0.0066,1.991522017,0.0066,73.08605883,
0.00662,-0.9319203362,0.00662,72.35519825,
0.00664,2.722382606,0.00664,73.08605883,
0.00666,-0.566490042,0.00666,72.72062854,
0.00668,-1.662780925,0.00668,73.08605883,
0.0067,-0.2010597479,0.0067,74.18234972,
0.00672,0.8952311347,0.00672,72.35519825,
0.00674,-4.586223278,0.00674,71.62433766,
0.00676,-1.662780925,0.00676,71.98976795,
0.00678,-2.393641513,0.00678,72.72062854,
0.0068,-2.028211219,0.0068,73.45148913,
0.00682,0.8952311347,0.00682,73.45148913,
0.00684,-0.9319203362,0.00684,74.18234972,
0.00686,0.1643705463,0.00686,72.72062854,
0.00688,-0.9319203362,0.00688,73.45148913,
0.0069,-1.29735063,0.0069,73.08605883,
0.00692,-2.028211219,0.00692,73.08605883,
0.00694,-0.9319203362,0.00694,73.45148913,
0.00696,-1.662780925,0.00696,73.45148913,
0.00698,-1.29735063,0.00698,72.35519825,
0.007,0.5298008405,0.007,73.08605883,
0.00702,-1.662780925,0.00702,73.08605883,
0.00704,0.8952311347,0.00704,73.45148913,
0.00706,0.5298008405,0.00706,73.08605883,
0.00708,0.5298008405,0.00708,72.72062854,
0.0071,1.260661429,0.0071,74.18234972,
0.00712,0.8952311347,0.00712,73.08605883,
0.00714,-0.566490042,0.00714,72.72062854,
0.00716,0.5298008405,0.00716,73.45148913,
0.00718,-0.566490042,0.00718,73.08605883,
0.0072,-0.566490042,0.0072,73.08605883,
0.00722,-0.2010597479,0.00722,73.45148913,
0.00724,-0.2010597479,0.00724,73.08605883,
0.00726,-0.2010597479,0.00726,72.72062854,
0.00728,1.626091723,0.00728,73.45148913,
0.0073,0.5298008405,0.0073,73.81691942,
0.00732,1.626091723,0.00732,73.08605883,
0.00734,2.722382606,0.00734,73.45148913,
0.00736,1.626091723,0.00736,73.08605883,
0.00738,-0.2010597479,0.00738,73.08605883,
0.0074,0.8952311347,0.0074,73.45148913,
0.00742,-0.2010597479,0.00742,73.45148913,
0.00744,0.5298008405,0.00744,72.72062854,
0.00746,0.8952311347,0.00746,73.81691942,
0.00748,-0.9319203362,0.00748,73.08605883,
0.0075,-0.9319203362,0.0075,73.08605883,
0.00752,-0.9319203362,0.00752,73.81691942,
0.00754,-0.2010597479,0.00754,73.08605883,
0.00756,0.5298008405,0.00756,73.08605883,
0.00758,0.8952311347,0.00758,73.45148913,
0.0076,-1.29735063,0.0076,73.45148913,
0.00762,-0.566490042,0.00762,72.35519825,
0.00764,0.1643705463,0.00764,73.08605883,
0.00766,-1.29735063,0.00766,71.98976795,
0.00768,-1.662780925,0.00768,73.08605883,
0.0077,-3.124502101,0.0077,74.18234972,
0.00772,-4.586223278,0.00772,73.81691942,
0.00774,-4.951653572,0.00774,73.45148913,
0.00776,0.1643705463,0.00776,72.35519825,
0.00778,-1.29735063,0.00778,73.45148913,
0.0078,-1.29735063,0.0078,73.08605883,
0.00782,0.8952311347,0.00782,73.08605883,
0.00784,-0.566490042,0.00784,72.72062854,
0.00786,-0.9319203362,0.00786,72.72062854,
0.00788,-0.9319203362,0.00788,73.45148913,
0.0079,-0.9319203362,0.0079,73.08605883,
0.00792,-1.29735063,0.00792,73.08605883,
0.00794,-0.566490042,0.00794,73.45148913,
0.00796,-2.393641513,0.00796,73.45148913,
0.00798,-0.9319203362,0.00798,73.45148913,
0.008,0.1643705463,0.008,73.45148913,
0.00802,-0.566490042,0.00802,73.45148913,
0.00804,1.991522017,0.00804,73.08605883,
0.00806,1.260661429,0.00806,73.81691942,
0.00808,0.5298008405,0.00808,73.08605883,
0.0081,0.1643705463,0.0081,72.72062854,
0.00812,1.260661429,0.00812,73.81691942,
0.00814,-0.2010597479,0.00814,73.08605883,
0.00816,0.5298008405,0.00816,72.72062854,
0.00818,0.1643705463,0.00818,73.81691942,
0.0082,0.1643705463,0.0082,73.45148913,
0.00822,-0.2010597479,0.00822,73.08605883,
0.00824,0.1643705463,0.00824,73.81691942,
0.00826,-0.566490042,0.00826,73.08605883,
0.00828,1.260661429,0.00828,73.45148913,
0.0083,1.626091723,0.0083,73.45148913,
0.00832,1.991522017,0.00832,72.72062854,
0.00834,1.991522017,0.00834,72.72062854,
0.00836,0.8952311347,0.00836,73.08605883,
0.00838,1.626091723,0.00838,73.45148913,
0.0084,0.5298008405,0.0084,73.45148913,
0.00842,0.8952311347,0.00842,73.08605883,
0.00844,0.1643705463,0.00844,73.81691942,
0.00846,-1.662780925,0.00846,73.45148913,
0.00848,-0.2010597479,0.00848,73.08605883,
0.0085,-0.566490042,0.0085,73.45148913,
0.00852,-0.2010597479,0.00852,73.45148913,
0.00854,0.5298008405,0.00854,73.81691942,
0.00856,2.722382606,0.00856,73.45148913,
0.00858,0.5298008405,0.00858,73.45148913,
0.0086,-0.2010597479,0.0086,73.81691942,
0.00862,0.5298008405,0.00862,73.81691942,
0.00864,0.5298008405,0.00864,73.45148913,
0.00866,-0.2010597479,0.00866,73.45148913,
0.00868,-0.2010597479,0.00868,74.18234972,
0.0087,-3.124502101,0.0087,72.72062854,
0.00872,-4.220792984,0.00872,73.81691942,
0.00874,-3.124502101,0.00874,72.35519825,
0.00876,-1.29735063,0.00876,73.45148913,
0.00878,0.5298008405,0.00878,74.18234972,
0.0088,-0.566490042,0.0088,73.08605883,
0.00882,0.1643705463,0.00882,73.08605883,
0.00884,-0.9319203362,0.00884,73.81691942,
0.00886,-1.29735063,0.00886,73.08605883,
0.00888,-0.9319203362,0.00888,73.08605883,
0.0089,0.1643705463,0.0089,73.81691942,
0.00892,-2.393641513,0.00892,73.81691942,
0.00894,-2.759071807,0.00894,73.45148913,
0.00896,0.1643705463,0.00896,73.08605883,
0.00898,-0.2010597479,0.00898,73.08605883,
0.009,0.8952311347,0.009,73.45148913,
0.00902,0.5298008405,0.00902,73.08605883,
0.00904,2.356952311,0.00904,73.08605883,
0.00906,1.626091723,0.00906,73.45148913,
0.00908,1.260661429,0.00908,73.45148913,
0.0091,0.8952311347,0.0091,73.08605883,
0.00912,-0.566490042,0.00912,73.08605883,
0.00914,-0.566490042,0.00914,73.08605883,
0.00916,0.8952311347,0.00916,73.45148913,
0.00918,-0.566490042,0.00918,73.45148913,
0.0092,0.1643705463,0.0092,73.45148913,
0.00922,0.1643705463,0.00922,73.45148913,
0.00924,1.260661429,0.00924,73.45148913,
0.00926,1.260661429,0.00926,73.45148913,
0.00928,1.260661429,0.00928,73.45148913,
0.0093,1.626091723,0.0093,73.45148913,
0.00932,1.626091723,0.00932,73.45148913,
0.00934,2.722382606,0.00934,73.08605883,
0.00936,2.356952311,0.00936,73.45148913,
0.00938,0.8952311347,0.00938,73.81691942,
0.0094,-0.2010597479,0.0094,73.45148913,
0.00942,-0.9319203362,0.00942,73.45148913,
0.00944,-0.566490042,0.00944,73.45148913,
0.00946,-0.566490042,0.00946,73.45148913,
0.00948,-0.2010597479,0.00948,73.08605883,
0.0095,0.1643705463,0.0095,73.81691942,
0.00952,0.5298008405,0.00952,73.08605883,
0.00954,0.5298008405,0.00954,74.18234972,
0.00956,0.8952311347,0.00956,74.18234972,
0.00958,-0.9319203362,0.00958,74.18234972,
0.0096,1.626091723,0.0096,74.54778001,
0.00962,-3.124502101,0.00962,74.54778001,
0.00964,-3.124502101,0.00964,74.54778001,
0.00966,-2.028211219,0.00966,74.18234972,
0.00968,1.260661429,0.00968,72.72062854,
0.0097,-2.393641513,0.0097,73.45148913,
0.00972,-3.489932395,0.00972,72.72062854,
0.00974,-1.662780925,0.00974,74.18234972,
0.00976,0.5298008405,0.00976,73.45148913,
0.00978,0.1643705463,0.00978,73.45148913,
0.0098,0.1643705463,0.0098,73.45148913,
0.00982,-0.9319203362,0.00982,73.45148913,
0.00984,-1.662780925,0.00984,73.45148913,
0.00986,-1.29735063,0.00986,73.45148913,
0.00988,-0.9319203362,0.00988,73.45148913,
0.0099,-2.028211219,0.0099,73.08605883,
0.00992,0.1643705463,0.00992,73.45148913,
0.00994,-0.9319203362,0.00994,73.45148913,
0.00996,-0.566490042,0.00996,73.45148913,
0.00998,0.1643705463,0.00998,73.81691942,
0.01,0.1643705463,0.01,73.45148913,
0.01002,1.260661429,0.01002,72.72062854,
0.01004,1.626091723,0.01004,73.81691942,
0.01006,0.5298008405,0.01006,73.45148913,
0.01008,0.8952311347,0.01008,73.08605883,
0.0101,0.8952311347,0.0101,74.18234972,
0.01012,0.8952311347,0.01012,73.08605883,
0.01014,-0.566490042,0.01014,73.08605883,
0.01016,1.260661429,0.01016,73.81691942,
0.01018,-0.2010597479,0.01018,73.08605883,
0.0102,0.1643705463,0.0102,73.08605883,
0.01022,0.1643705463,0.01022,73.45148913,
0.01024,0.8952311347,0.01024,73.08605883,
0.01026,0.8952311347,0.01026,72.72062854,
0.01028,1.626091723,0.01028,73.81691942,
0.0103,0.8952311347,0.0103,73.45148913,
0.01032,0.5298008405,0.01032,72.72062854,
0.01034,0.5298008405,0.01034,73.45148913,
0.01036,-0.2010597479,0.01036,73.08605883,
0.01038,-0.2010597479,0.01038,72.72062854,
0.0104,0.5298008405,0.0104,73.45148913,
0.01042,-1.662780925,0.01042,73.45148913,
0.01044,-1.662780925,0.01044,73.08605883,
0.01046,0.1643705463,0.01046,73.81691942,
0.01048,-0.2010597479,0.01048,73.45148913,
0.0105,0.1643705463,0.0105,72.35519825,
0.01052,1.991522017,0.01052,72.72062854,
0.01054,-0.9319203362,0.01054,72.72062854,
0.01056,-1.662780925,0.01056,72.35519825,
0.01058,-3.124502101,0.01058,72.72062854,
0.0106,-4.220792984,0.0106,74.18234972,
0.01062,-4.220792984,0.01062,74.18234972,
0.01064,1.260661429,0.01064,73.81691942,
0.01066,-0.566490042,0.01066,73.08605883,
0.01068,-3.85536269,0.01068,74.18234972,
0.0107,-1.29735063,0.0107,73.81691942,
0.01072,-1.662780925,0.01072,72.72062854,
0.01074,-1.29735063,0.01074,72.72062854,
0.01076,-0.2010597479,0.01076,73.45148913,
0.01078,-0.2010597479,0.01078,72.72062854,
0.0108,0.5298008405,0.0108,72.72062854,
0.01082,-1.662780925,0.01082,73.81691942,
0.01084,-2.028211219,0.01084,73.81691942,
0.01086,-2.393641513,0.01086,73.08605883,
0.01088,-2.028211219,0.01088,73.81691942,
0.0109,-2.028211219,0.0109,73.08605883,
0.01092,0.5298008405,0.01092,72.72062854,
0.01094,-0.9319203362,0.01094,73.81691942,
0.01096,0.1643705463,0.01096,73.45148913,
0.01098,-0.2010597479,0.01098,73.45148913,
0.011,0.8952311347,0.011,73.81691942,
0.01102,-0.566490042,0.01102,73.08605883,
0.01104,0.5298008405,0.01104,73.45148913,
0.01106,-0.2010597479,0.01106,74.18234972,
0.01108,-0.566490042,0.01108,73.08605883,
0.0111,0.8952311347,0.0111,72.72062854,
0.01112,0.1643705463,0.01112,73.81691942,
0.01114,-0.2010597479,0.01114,73.45148913,
0.01116,0.1643705463,0.01116,73.08605883,
0.01118,0.1643705463,0.01118,73.81691942,
0.0112,0.5298008405,0.0112,73.08605883,
0.01122,0.5298008405,0.01122,73.45148913,
0.01124,2.356952311,0.01124,73.45148913,
0.01126,0.5298008405,0.01126,73.45148913,
0.01128,0.1643705463,0.01128,73.08605883,
0.0113,1.260661429,0.0113,73.08605883,
0.01132,-0.2010597479,0.01132,73.45148913,
0.01134,-0.566490042,0.01134,73.08605883,
0.01136,-0.2010597479,0.01136,73.45148913,
0.01138,-0.2010597479,0.01138,73.08605883,
0.0114,-0.2010597479,0.0114,73.08605883,
0.01142,-0.566490042,0.01142,73.81691942,
0.01144,0.1643705463,0.01144,73.08605883,
0.01146,-0.9319203362,0.01146,72.72062854,
0.01148,1.260661429,0.01148,73.81691942,
0.0115,-0.2010597479,0.0115,73.08605883,
0.01152,-2.028211219,0.01152,73.45148913,
0.01154,1.260661429,0.01154,73.08605883,
0.01156,-0.9319203362,0.01156,71.62433766,
0.01158,-2.393641513,0.01158,72.72062854,
0.0116,0.1643705463,0.0116,72.72062854,
0.01162,-4.220792984,0.01162,72.35519825,
0.01164,-4.951653572,0.01164,73.08605883,
0.01166,-1.662780925,0.01166,71.98976795,
0.01168,0.8952311347,0.01168,73.81691942,
0.0117,-1.29735063,0.0117,72.72062854,
0.01172,0.8952311347,0.01172,73.45148913,
0.01174,0.5298008405,0.01174,73.45148913,
0.01176,-1.662780925,0.01176,73.08605883,
0.01178,-0.9319203362,0.01178,73.08605883,
0.0118,-2.759071807,0.0118,73.08605883,
0.01182,-2.028211219,0.01182,73.08605883,
0.01184,-1.662780925,0.01184,73.45148913,
0.01186,-2.028211219,0.01186,73.45148913,
0.01188,-0.2010597479,0.01188,73.45148913,
0.0119,-1.662780925,0.0119,74.18234972,
0.01192,0.1643705463,0.01192,72.72062854,
0.01194,1.991522017,0.01194,73.08605883,
0.01196,1.260661429,0.01196,73.81691942,
0.01198,0.1643705463,0.01198,73.08605883,
0.012,1.626091723,0.012,73.08605883,
0.01202,0.1643705463,0.01202,74.18234972,
0.01204,0.8952311347,0.01204,73.08605883,
0.01206,1.260661429,0.01206,73.08605883,
0.01208,0.5298008405,0.01208,73.45148913,
0.0121,0.1643705463,0.0121,73.08605883,
0.01212,-0.2010597479,0.01212,73.45148913,
0.01214,0.5298008405,0.01214,73.81691942,
0.01216,0.1643705463,0.01216,73.08605883,
0.01218,1.991522017,0.01218,73.08605883,
0.0122,1.260661429,0.0122,73.81691942,
0.01222,0.5298008405,0.01222,73.08605883,
0.01224,1.626091723,0.01224,73.08605883,
0.01226,1.260661429,0.01226,73.81691942,
0.01228,1.260661429,0.01228,73.08605883,
0.0123,-0.566490042,0.0123,73.45148913,
0.01232,0.1643705463,0.01232,73.81691942,
0.01234,-0.9319203362,0.01234,73.08605883,
0.01236,-0.566490042,0.01236,73.45148913,
0.01238,-0.566490042,0.01238,73.81691942,
0.0124,-0.566490042,0.0124,73.08605883,
0.01242,-0.2010597479,0.01242,73.45148913,
0.01244,-0.2010597479,0.01244,73.81691942,
0.01246,-0.2010597479,0.01246,73.45148913,
0.01248,0.1643705463,0.01248,72.35519825,
0.0125,0.1643705463,0.0125,72.72062854,
0.01252,-2.393641513,0.01252,74.18234972,
0.01254,-2.759071807,0.01254,73.08605883,
0.01256,0.1643705463,0.01256,73.45148913,
0.01258,-2.028211219,0.01258,73.81691942,
0.0126,-4.220792984,0.0126,73.81691942,
0.01262,0.8952311347,0.01262,73.81691942,
0.01264,-1.29735063,0.01264,73.08605883,
0.01266,-2.028211219,0.01266,72.72062854,
0.01268,-1.662780925,0.01268,73.81691942,
0.0127,-1.29735063,0.0127,73.08605883,
0.01272,0.5298008405,0.01272,72.72062854,
0.01274,0.5298008405,0.01274,73.81691942,
0.01276,-0.9319203362,0.01276,73.08605883,
0.01278,-1.29735063,0.01278,73.45148913,
0.0128,-0.566490042,0.0128,73.81691942,
0.01282,-1.29735063,0.01282,73.45148913,
0.01284,-0.9319203362,0.01284,73.45148913,
0.01286,0.8952311347,0.01286,73.45148913,
0.01288,-0.9319203362,0.01288,73.45148913,
0.0129,-0.566490042,0.0129,73.08605883,
0.01292,0.5298008405,0.01292,73.45148913,
0.01294,0.5298008405,0.01294,73.45148913,
0.01296,0.8952311347,0.01296,73.45148913,
0.01298,1.260661429,0.01298,73.08605883,
0.013,0.1643705463,0.013,73.08605883,
0.01302,1.260661429,0.01302,73.45148913,
0.01304,0.1643705463,0.01304,73.45148913,
0.01306,1.260661429,0.01306,73.45148913,
0.01308,1.260661429,0.01308,73.08605883,
0.0131,0.1643705463,0.0131,73.08605883,
0.01312,0.1643705463,0.01312,73.45148913,
0.01314,0.1643705463,0.01314,73.45148913,
0.01316,0.8952311347,0.01316,73.45148913,
0.01318,1.260661429,0.01318,73.45148913,
0.0132,1.626091723,0.0132,73.08605883,
0.01322,1.260661429,0.01322,73.81691942,
0.01324,1.260661429,0.01324,73.08605883,
0.01326,0.5298008405,0.01326,73.45148913,
0.01328,0.5298008405,0.01328,73.45148913,
0.0133,-0.2010597479,0.0133,73.08605883,
0.01332,0.1643705463,0.01332,73.45148913,
0.01334,-0.2010597479,0.01334,73.45148913,
0.01336,-1.29735063,0.01336,73.45148913,
0.01338,-0.566490042,0.01338,73.81691942,
0.0134,-0.9319203362,0.0134,74.18234972,
0.01342,0.8952311347,0.01342,72.72062854,
0.01344,2.356952311,0.01344,72.72062854,
0.01346,-0.566490042,0.01346,73.45148913,
0.01348,-1.29735063,0.01348,73.45148913,
0.0135,-0.9319203362,0.0135,73.45148913,
0.01352,-0.9319203362,0.01352,73.81691942,
0.01354,-3.124502101,0.01354,73.08605883,
0.01356,-2.028211219,0.01356,73.81691942,
0.01358,-0.9319203362,0.01358,74.18234972,
0.0136,-2.393641513,0.0136,74.18234972,
0.01362,-0.566490042,0.01362,73.81691942,
0.01364,-0.9319203362,0.01364,73.45148913,
0.01366,1.260661429,0.01366,73.45148913,
0.01368,0.8952311347,0.01368,73.08605883,
0.0137,-0.2010597479,0.0137,73.45148913,
0.01372,-0.566490042,0.01372,73.08605883,
0.01374,-0.2010597479,0.01374,73.45148913,
0.01376,-0.2010597479,0.01376,73.45148913,
0.01378,-1.662780925,0.01378,73.08605883,
0.0138,-2.028211219,0.0138,72.72062854,
0.01382,-1.29735063,0.01382,73.45148913,
0.01384,0.5298008405,0.01384,73.45148913,
0.01386,0.1643705463,0.01386,72.72062854,
0.01388,0.5298008405,0.01388,73.45148913,
0.0139,0.8952311347,0.0139,73.45148913,
0.01392,0.8952311347,0.01392,72.72062854,
0.01394,2.722382606,0.01394,73.08605883,
0.01396,0.5298008405,0.01396,72.72062854,
0.01398,0.1643705463,0.01398,72.35519825,
0.014,0.1643705463,0.014,73.45148913,
0.01402,0.1643705463,0.01402,73.45148913,
0.01404,0.1643705463,0.01404,72.35519825,
0.01406,0.1643705463,0.01406,73.08605883,
0.01408,0.1643705463,0.01408,73.08605883,
0.0141,0.1643705463,0.0141,73.08605883,
0.01412,0.5298008405,0.01412,73.45148913,
0.01414,1.260661429,0.01414,73.08605883,
0.01416,1.626091723,0.01416,72.72062854,
0.01418,3.453243194,0.01418,73.08605883,
0.0142,1.991522017,0.0142,73.08605883,
0.01422,0.8952311347,0.01422,72.72062854,
0.01424,0.8952311347,0.01424,73.08605883,
0.01426,0.5298008405,0.01426,73.45148913,
0.01428,-0.9319203362,0.01428,73.08605883,
0.0143,0.8952311347,0.0143,73.45148913,
0.01432,-1.29735063,0.01432,73.08605883,
0.01434,-0.9319203362,0.01434,72.72062854,
0.01436,-0.9319203362,0.01436,73.08605883,
0.01438,0.1643705463,0.01438,73.45148913,
0.0144,1.260661429,0.0144,73.08605883,
0.01442,2.356952311,0.01442,72.72062854,
0.01444,0.1643705463,0.01444,72.35519825,
0.01446,-2.028211219,0.01446,73.08605883,
0.01448,1.626091723,0.01448,73.45148913,
0.0145,-3.489932395,0.0145,72.72062854,
0.01452,-3.85536269,0.01452,72.35519825,
0.01454,-0.566490042,0.01454,73.45148913,
0.01456,-1.29735063,0.01456,72.72062854,
0.01458,-4.220792984,0.01458,72.35519825,
0.0146,-0.2010597479,0.0146,73.45148913,
0.01462,-1.29735063,0.01462,73.08605883,
0.01464,-0.566490042,0.01464,73.08605883,
0.01466,-0.9319203362,0.01466,73.08605883,
0.01468,-0.2010597479,0.01468,73.45148913,
0.0147,-2.393641513,0.0147,72.72062854,
0.01472,-0.566490042,0.01472,73.08605883,
0.01474,-1.662780925,0.01474,73.08605883,
0.01476,-2.028211219,0.01476,72.35519825,
0.01478,-0.2010597479,0.01478,73.08605883,
0.0148,-0.9319203362,0.0148,73.45148913,
0.01482,-1.662780925,0.01482,72.35519825,
0.01484,-0.2010597479,0.01484,73.81691942,
0.01486,-0.2010597479,0.01486,73.08605883,
0.01488,0.8952311347,0.01488,73.08605883,
0.0149,1.991522017,0.0149,73.08605883,
0.01492,1.991522017,0.01492,73.45148913,
0.01494,0.8952311347,0.01494,72.72062854,
0.01496,1.626091723,0.01496,73.45148913,
0.01498,0.5298008405,0.01498,73.45148913,
0.015,0.8952311347,0.015,72.35519825,
0.01502,1.626091723,0.01502,73.08605883,
0.01504,0.1643705463,0.01504,73.45148913,
0.01506,-0.566490042,0.01506,72.72062854,
0.01508,0.1643705463,0.01508,73.08605883,
0.0151,0.8952311347,0.0151,73.45148913,
0.01512,1.991522017,0.01512,72.35519825,
0.01514,2.356952311,0.01514,73.45148913,
0.01516,1.260661429,0.01516,73.08605883,
0.01518,1.626091723,0.01518,72.72062854,
0.0152,0.8952311347,0.0152,73.08605883,
0.01522,0.8952311347,0.01522,73.08605883,
0.01524,0.1643705463,0.01524,72.72062854,
0.01526,-0.566490042,0.01526,73.45148913,
0.01528,0.1643705463,0.01528,73.45148913,
0.0153,-0.9319203362,0.0153,73.08605883,
0.01532,-0.9319203362,0.01532,73.08605883,
0.01534,-0.2010597479,0.01534,73.45148913,
0.01536,0.5298008405,0.01536,73.08605883,
0.01538,-0.2010597479,0.01538,72.72062854,
0.0154,1.260661429,0.0154,73.45148913,
0.01542,-0.9319203362,0.01542,73.08605883,
0.01544,0.5298008405,0.01544,73.45148913,
0.01546,-2.393641513,0.01546,73.45148913,
0.01548,-0.9319203362,0.01548,71.62433766,
0.0155,-3.489932395,0.0155,73.81691942,
0.01552,-2.028211219,0.01552,73.45148913,
0.01554,-3.489932395,0.01554,73.08605883,
0.01556,-2.393641513,0.01556,73.45148913,
0.01558,-1.29735063,0.01558,73.08605883,
0.0156,-1.662780925,0.0156,73.81691942,
0.01562,-0.566490042,0.01562,74.18234972,
0.01564,-1.29735063,0.01564,73.45148913,
0.01566,0.5298008405,0.01566,73.08605883,
0.01568,-0.2010597479,0.01568,73.81691942,
0.0157,-2.393641513,0.0157,72.72062854,
0.01572,-1.29735063,0.01572,73.08605883,
0.01574,-1.662780925,0.01574,74.18234972,
0.01576,-2.393641513,0.01576,73.45148913,
0.01578,-2.393641513,0.01578,73.08605883,
0.0158,-0.9319203362,0.0158,73.45148913,
0.01582,-0.566490042,0.01582,73.08605883,
0.01584,0.5298008405,0.01584,72.72062854,
0.01586,0.8952311347,0.01586,73.81691942,
0.01588,1.260661429,0.01588,73.45148913,
0.0159,0.8952311347,0.0159,73.08605883,
0.01592,0.1643705463,0.01592,73.45148913,
0.01594,0.8952311347,0.01594,73.08605883,
0.01596,-0.566490042,0.01596,73.08605883,
0.01598,0.1643705463,0.01598,73.81691942,
0.016,-0.566490042,0.016,73.08605883,
0.01602,-0.566490042,0.01602,73.08605883,
0.01604,-0.566490042,0.01604,73.45148913,
0.01606,-0.2010597479,0.01606,73.08605883,
0.01608,1.260661429,0.01608,73.08605883,
0.0161,1.626091723,0.0161,73.81691942,
0.01612,1.260661429,0.01612,73.08605883,
0.01614,1.991522017,0.01614,73.08605883,
0.01616,1.991522017,0.01616,73.45148913,
0.01618,0.5298008405,0.01618,73.08605883,
0.0162,1.260661429,0.0162,73.08605883,
0.01622,0.1643705463,0.01622,73.45148913,
0.01624,-0.566490042,0.01624,73.08605883,
0.01626,-0.566490042,0.01626,72.72062854,
0.01628,-1.29735063,0.01628,73.45148913,
0.0163,-2.028211219,0.0163,73.08605883,
0.01632,-0.2010597479,0.01632,73.08605883,
0.01634,-0.2010597479,0.01634,73.45148913,
0.01636,1.260661429,0.01636,72.72062854,
0.01638,1.626091723,0.01638,73.08605883,
0.0164,0.5298008405,0.0164,73.81691942,
0.01642,-1.662780925,0.01642,73.81691942,
0.01644,-1.29735063,0.01644,73.45148913,
0.01646,-2.759071807,0.01646,73.45148913,
0.01648,-4.220792984,0.01648,72.72062854,
0.0165,-0.9319203362,0.0165,72.35519825,
0.01652,-1.662780925,0.01652,73.45148913,
0.01654,-3.124502101,0.01654,72.72062854,
0.01656,-0.9319203362,0.01656,73.08605883,
0.01658,2.356952311,0.01658,73.81691942,
0.0166,-0.2010597479,0.0166,73.08605883,
0.01662,0.8952311347,0.01662,73.08605883,
0.01664,-0.9319203362,0.01664,73.45148913,
0.01666,-1.29735063,0.01666,73.45148913,
0.01668,-2.028211219,0.01668,72.72062854,
0.0167,-1.29735063,0.0167,73.81691942,
0.01672,-0.566490042,0.01672,73.45148913,
0.01674,-0.9319203362,0.01674,73.08605883,
0.01676,-1.662780925,0.01676,73.45148913,
0.01678,-0.566490042,0.01678,73.45148913,
0.0168,-0.2010597479,0.0168,73.45148913,
0.01682,1.260661429,0.01682,73.81691942,
0.01684,0.5298008405,0.01684,72.72062854,
0.01686,0.1643705463,0.01686,72.72062854,
0.01688,1.626091723,0.01688,73.45148913,
0.0169,0.8952311347,0.0169,73.08605883,
0.01692,0.1643705463,0.01692,73.08605883,
0.01694,0.5298008405,0.01694,73.08605883,
0.01696,-0.9319203362,0.01696,73.45148913,
0.01698,-0.566490042,0.01698,72.72062854,
0.017,-1.29735063,0.017,74.18234972,
0.01702,-1.29735063,0.01702,73.08605883,
0.01704,0.1643705463,0.01704,73.81691942,
0.01706,0.1643705463,0.01706,73.08605883,
0.01708,0.1643705463,0.01708,73.45148913,
0.0171,1.991522017,0.0171,73.08605883,
0.01712,2.722382606,0.01712,73.45148913,
0.01714,1.626091723,0.01714,73.08605883,
0.01716,1.626091723,0.01716,72.72062854,
0.01718,1.260661429,0.01718,73.45148913,
0.0172,-0.566490042,0.0172,73.08605883,
0.01722,-0.9319203362,0.01722,73.45148913,
0.01724,-0.9319203362,0.01724,73.45148913,
0.01726,-0.9319203362,0.01726,73.08605883,
0.01728,-0.566490042,0.01728,72.35519825,
0.0173,0.5298008405,0.0173,73.81691942,
0.01732,-0.9319203362,0.01732,73.08605883,
0.01734,1.260661429,0.01734,73.08605883,
0.01736,0.1643705463,0.01736,73.81691942,
0.01738,-0.2010597479,0.01738,73.81691942,
0.0174,-1.662780925,0.0174,73.08605883,
0.01742,-1.29735063,0.01742,73.45148913,
0.01744,-3.489932395,0.01744,73.08605883,
0.01746,-3.124502101,0.01746,73.45148913,
0.01748,-1.662780925,0.01748,74.18234972,
0.0175,-3.489932395,0.0175,73.08605883,
0.01752,-2.028211219,0.01752,73.45148913,
0.01754,-2.393641513,0.01754,72.72062854,
0.01756,-0.566490042,0.01756,73.45148913,
0.01758,0.1643705463,0.01758,73.81691942,
0.0176,-0.2010597479,0.0176,73.08605883,
0.01762,-0.9319203362,0.01762,73.45148913,
0.01764,-0.9319203362,0.01764,73.45148913,
0.01766,-1.29735063,0.01766,73.45148913,
0.01768,-1.29735063,0.01768,73.45148913,
0.0177,-0.9319203362,0.0177,73.81691942,
0.01772,-0.9319203362,0.01772,73.45148913,
0.01774,-0.2010597479,0.01774,72.72062854,
0.01776,-0.9319203362,0.01776,73.81691942,
0.01778,-0.2010597479,0.01778,73.45148913,
0.0178,0.8952311347,0.0178,73.08605883,
0.01782,0.8952311347,0.01782,73.45148913,
0.01784,0.5298008405,0.01784,73.08605883,
0.01786,0.5298008405,0.01786,73.08605883,
0.01788,0.5298008405,0.01788,73.45148913,
0.0179,0.1643705463,0.0179,73.81691942,
0.01792,-0.566490042,0.01792,72.72062854,
0.01794,0.1643705463,0.01794,73.81691942,
0.01796,-0.9319203362,0.01796,73.08605883,
0.01798,0.1643705463,0.01798,73.45148913,
0.018,0.5298008405,0.018,73.45148913,
0.01802,0.1643705463,0.01802,73.45148913,
0.01804,1.260661429,0.01804,73.08605883,
0.01806,1.991522017,0.01806,73.45148913,
0.01808,1.626091723,0.01808,73.08605883,
0.0181,1.626091723,0.0181,73.08605883,
0.01812,1.260661429,0.01812,73.45148913,
0.01814,-0.566490042,0.01814,72.72062854,
0.01816,0.8952311347,0.01816,73.08605883,
0.01818,0.5298008405,0.01818,73.45148913,
0.0182,-0.9319203362,0.0182,73.08605883,
0.01822,-0.2010597479,0.01822,73.45148913,
0.01824,-1.662780925,0.01824,73.45148913,
0.01826,-0.9319203362,0.01826,73.08605883,
0.01828,-0.9319203362,0.01828,73.45148913,
0.0183,1.626091723,0.0183,73.81691942,
0.01832,1.260661429,0.01832,73.08605883,
0.01834,0.8952311347,0.01834,73.81691942,
0.01836,0.5298008405,0.01836,73.81691942,
0.01838,0.8952311347,0.01838,73.45148913,
0.0184,-0.2010597479,0.0184,73.45148913,
0.01842,-2.759071807,0.01842,73.08605883,
0.01844,-0.9319203362,0.01844,73.08605883,
0.01846,0.5298008405,0.01846,72.72062854,
0.01848,0.8952311347,0.01848,74.54778001,
0.0185,-2.759071807,0.0185,73.81691942,
0.01852,-0.9319203362,0.01852,73.45148913,
0.01854,-1.662780925,0.01854,73.81691942,
0.01856,-0.2010597479,0.01856,73.45148913,
0.01858,-0.9319203362,0.01858,73.45148913,
0.0186,-0.2010597479,0.0186,73.08605883,
0.01862,-1.29735063,0.01862,73.45148913,
0.01864,-1.29735063,0.01864,73.45148913,
0.01866,-1.29735063,0.01866,73.08605883,
0.01868,-0.9319203362,0.01868,73.45148913,
0.0187,-1.662780925,0.0187,73.45148913,
0.01872,-1.662780925,0.01872,73.45148913,
0.01874,-0.2010597479,0.01874,73.08605883,
0.01876,0.5298008405,0.01876,72.72062854,
0.01878,0.8952311347,0.01878,73.45148913,
0.0188,0.1643705463,0.0188,73.81691942,
0.01882,0.8952311347,0.01882,73.08605883,
0.01884,0.5298008405,0.01884,73.08605883,
0.01886,0.5298008405,0.01886,73.45148913,
0.01888,-0.2010597479,0.01888,73.45148913,
0.0189,0.1643705463,0.0189,73.45148913,
0.01892,0.5298008405,0.01892,73.81691942,
0.01894,0.5298008405,0.01894,73.81691942,
0.01896,-0.2010597479,0.01896,73.08605883,
0.01898,0.1643705463,0.01898,72.72062854,
0.019,0.1643705463,0.019,73.45148913,
0.01902,1.260661429,0.01902,73.08605883,
0.01904,1.626091723,0.01904,73.08605883,
0.01906,0.8952311347,0.01906,74.18234972,
0.01908,1.260661429,0.01908,73.45148913,
0.0191,0.8952311347,0.0191,73.08605883,
0.01912,0.8952311347,0.01912,73.45148913,
0.01914,-0.566490042,0.01914,73.45148913,
0.01916,0.1643705463,0.01916,73.08605883,
0.01918,-0.2010597479,0.01918,73.45148913,
0.0192,-1.662780925,0.0192,73.08605883,
0.01922,-0.566490042,0.01922,73.08605883,
0.01924,-0.566490042,0.01924,73.08605883,
0.01926,-0.566490042,0.01926,73.08605883,
0.01928,-0.566490042,0.01928,73.08605883,
0.0193,-0.9319203362,0.0193,73.45148913,
0.01932,0.5298008405,0.01932,73.45148913,
0.01934,-1.662780925,0.01934,72.35519825,
0.01936,-2.759071807,0.01936,73.81691942,
0.01938,-1.29735063,0.01938,72.72062854,
0.0194,-3.124502101,0.0194,73.45148913,
0.01942,-2.393641513,0.01942,75.2786406,
0.01944,-1.29735063,0.01944,72.35519825,
0.01946,-4.586223278,0.01946,72.35519825,
0.01948,-2.028211219,0.01948,73.45148913,
0.0195,-2.393641513,0.0195,73.45148913,
0.01952,-0.566490042,0.01952,72.72062854,
0.01954,-0.566490042,0.01954,73.45148913,
0.01956,-2.028211219,0.01956,73.45148913,
0.01958,-1.662780925,0.01958,73.08605883,
0.0196,-0.566490042,0.0196,73.81691942,
0.01962,-2.028211219,0.01962,73.08605883,
0.01964,-1.662780925,0.01964,73.08605883,
0.01966,-0.9319203362,0.01966,73.45148913,
0.01968,-2.393641513,0.01968,73.45148913,
0.0197,-1.29735063,0.0197,72.72062854,
0.01972,0.1643705463,0.01972,73.45148913,
0.01974,-0.566490042,0.01974,73.08605883,
0.01976,0.1643705463,0.01976,73.08605883,
0.01978,0.5298008405,0.01978,73.45148913,
0.0198,-0.9319203362,0.0198,73.45148913,
0.01982,-0.2010597479,0.01982,73.08605883,
0.01984,-0.566490042,0.01984,73.81691942,
0.01986,0.5298008405,0.01986,73.45148913,
0.01988,-0.2010597479,0.01988,73.08605883,
0.0199,-0.2010597479,0.0199,73.45148913,
0.01992,-0.566490042,0.01992,73.08605883,
0.01994,-0.9319203362,0.01994,72.72062854,
0.01996,0.1643705463,0.01996,73.81691942,
0.01998,-0.566490042,0.01998,73.45148913,
0.02,1.260661429,0.02,72.72062854,
0.02002,1.626091723,0.02002,73.45148913,
0.02004,0.8952311347,0.02004,73.08605883,
0.02006,0.5298008405,0.02006,73.08605883,
0.02008,2.356952311,0.02008,73.45148913,
0.0201,0.5298008405,0.0201,73.08605883,
0.02012,1.260661429,0.02012,73.08605883,
0.02014,0.5298008405,0.02014,73.45148913,
0.02016,-0.9319203362,0.02016,73.08605883,
0.02018,-0.9319203362,0.02018,73.08605883,
0.0202,-1.29735063,0.0202,73.08605883,
0.02022,-1.662780925,0.02022,73.08605883,
0.02024,-0.9319203362,0.02024,73.08605883,
0.02026,0.5298008405,0.02026,73.81691942,
0.02028,0.1643705463,0.02028,72.72062854,
0.0203,-0.566490042,0.0203,73.08605883,
0.02032,-0.566490042,0.02032,74.18234972,
0.02034,-3.124502101,0.02034,73.81691942,
0.02036,-0.566490042,0.02036,73.08605883,
0.02038,-2.759071807,0.02038,73.81691942,
0.0204,-0.9319203362,0.0204,72.72062854,
0.02042,-2.759071807,0.02042,74.18234972,
0.02044,-2.393641513,0.02044,73.81691942,
0.02046,-2.759071807,0.02046,73.81691942,
0.02048,-0.9319203362,0.02048,73.45148913,
0.0205,-0.566490042,0.0205,73.45148913,
0.02052,0.5298008405,0.02052,73.45148913,
0.02054,-0.566490042,0.02054,73.81691942,
0.02056,-0.2010597479,0.02056,73.81691942,
0.02058,-0.9319203362,0.02058,72.72062854,
0.0206,-0.9319203362,0.0206,73.08605883,
0.02062,-1.29735063,0.02062,73.45148913,
0.02064,-0.566490042,0.02064,73.45148913,
0.02066,-0.566490042,0.02066,73.81691942,
0.02068,-0.9319203362,0.02068,73.45148913,
0.0207,1.626091723,0.0207,72.72062854,
0.02072,0.5298008405,0.02072,73.45148913,
0.02074,0.1643705463,0.02074,73.45148913,
0.02076,0.8952311347,0.02076,73.08605883,
0.02078,0.8952311347,0.02078,73.45148913,
0.0208,0.1643705463,0.0208,73.08605883,
0.02082,-0.2010597479,0.02082,73.08605883,
0.02084,0.1643705463,0.02084,73.81691942,
0.02086,-1.662780925,0.02086,73.45148913,
0.02088,0.8952311347,0.02088,73.45148913,
0.0209,-0.566490042,0.0209,73.45148913,
0.02092,-0.2010597479,0.02092,73.45148913,
0.02094,-0.2010597479,0.02094,73.45148913,
0.02096,0.5298008405,0.02096,73.81691942,
0.02098,0.8952311347,0.02098,73.81691942,
0.021,0.8952311347,0.021,73.08605883,
0.02102,0.8952311347,0.02102,73.81691942,
0.02104,0.1643705463,0.02104,73.45148913,
0.02106,0.5298008405,0.02106,73.08605883,
0.02108,1.260661429,0.02108,73.45148913,
0.0211,-0.2010597479,0.0211,73.08605883,
0.02112,0.1643705463,0.02112,73.08605883,
0.02114,0.5298008405,0.02114,73.45148913,
0.02116,-2.028211219,0.02116,73.45148913,
0.02118,-1.29735063,0.02118,72.72062854,
0.0212,0.1643705463,0.0212,73.08605883,
0.02122,-0.2010597479,0.02122,73.81691942,
0.02124,2.722382606,0.02124,73.45148913,
0.02126,-0.566490042,0.02126,73.81691942,
0.02128,-2.393641513,0.02128,73.45148913,
0.0213,0.1643705463,0.0213,73.45148913,
0.02132,-2.393641513,0.02132,74.18234972,
0.02134,1.260661429,0.02134,73.45148913,
0.02136,1.260661429,0.02136,74.18234972,
0.02138,-1.662780925,0.02138,73.45148913,
0.0214,-0.2010597479,0.0214,73.81691942,
0.02142,-2.393641513,0.02142,72.72062854,
0.02144,-2.393641513,0.02144,73.45148913,
0.02146,-1.29735063,0.02146,72.72062854,
0.02148,0.5298008405,0.02148,73.08605883,
0.0215,-0.566490042,0.0215,73.45148913,
0.02152,-0.9319203362,0.02152,73.45148913,
0.02154,-0.2010597479,0.02154,73.08605883,
0.02156,-1.662780925,0.02156,73.81691942,
0.02158,-2.028211219,0.02158,73.08605883,
0.0216,-0.9319203362,0.0216,72.35519825,
0.02162,-0.9319203362,0.02162,73.45148913,
0.02164,-0.9319203362,0.02164,73.08605883,
0.02166,-1.29735063,0.02166,73.45148913,
0.02168,0.8952311347,0.02168,73.08605883,
0.0217,-0.9319203362,0.0217,73.08605883,
0.02172,1.260661429,0.02172,73.08605883,
0.02174,1.260661429,0.02174,73.08605883,
0.02176,0.8952311347,0.02176,73.45148913,
0.02178,0.1643705463,0.02178,72.72062854,
0.0218,0.8952311347,0.0218,73.45148913,
0.02182,-1.662780925,0.02182,73.45148913,
0.02184,0.1643705463,0.02184,73.45148913,
0.02186,0.8952311347,0.02186,73.81691942,
0.02188,-0.9319203362,0.02188,73.45148913,
0.0219,-0.2010597479,0.0219,73.08605883,
0.02192,0.1643705463,0.02192,73.08605883,
0.02194,0.1643705463,0.02194,73.08605883,
0.02196,1.626091723,0.02196,73.08605883,
0.02198,1.991522017,0.02198,73.81691942,
0.022,1.260661429,0.022,73.45148913,
0.02202,1.260661429,0.02202,73.45148913,
0.02204,0.5298008405,0.02204,73.45148913,
0.02206,0.1643705463,0.02206,73.08605883,
0.02208,0.8952311347,0.02208,73.08605883,
0.0221,-0.2010597479,0.0221,73.45148913,
0.02212,-1.29735063,0.02212,73.08605883,
0.02214,-0.566490042,0.02214,73.45148913,
0.02216,-0.2010597479,0.02216,73.81691942,
0.02218,0.5298008405,0.02218,73.08605883,
0.0222,0.5298008405,0.0222,73.08605883,
0.02222,-0.2010597479,0.02222,73.45148913,
0.02224,-0.566490042,0.02224,73.45148913,
0.02226,-0.2010597479,0.02226,73.81691942,
0.02228,-0.2010597479,0.02228,72.35519825,
0.0223,1.626091723,0.0223,72.72062854,
0.02232,-3.489932395,0.02232,72.35519825,
0.02234,0.5298008405,0.02234,72.72062854,
0.02236,-0.2010597479,0.02236,73.08605883,
0.02238,-3.85536269,0.02238,73.08605883,
0.0224,-1.29735063,0.0224,73.45148913,
0.02242,-0.566490042,0.02242,73.81691942,
0.02244,0.1643705463,0.02244,73.08605883,
0.02246,-0.566490042,0.02246,72.35519825,
0.02248,0.8952311347,0.02248,73.08605883,
0.0225,-1.29735063,0.0225,73.45148913,
0.02252,-0.2010597479,0.02252,72.72062854,
0.02254,-1.662780925,0.02254,73.45148913,
0.02256,-1.29735063,0.02256,73.08605883,
0.02258,-2.028211219,0.02258,73.08605883,
0.0226,-1.29735063,0.0226,72.72062854,
0.02262,-1.29735063,0.02262,72.72062854,
0.02264,-1.662780925,0.02264,72.72062854,
0.02266,0.1643705463,0.02266,73.45148913,
0.02268,0.8952311347,0.02268,72.72062854,
0.0227,0.5298008405,0.0227,72.35519825,
0.02272,0.8952311347,0.02272,72.72062854,
0.02274,1.260661429,0.02274,73.45148913,
0.02276,1.260661429,0.02276,73.08605883,
0.02278,0.1643705463,0.02278,73.08605883,
0.0228,0.1643705463,0.0228,73.45148913,
0.02282,0.1643705463,0.02282,73.08605883,
0.02284,0.1643705463,0.02284,73.08605883,
0.02286,0.5298008405,0.02286,73.08605883,
0.02288,-0.2010597479,0.02288,72.72062854,
0.0229,0.1643705463,0.0229,73.45148913,
0.02292,-0.566490042,0.02292,73.45148913,
0.02294,0.8952311347,0.02294,73.08605883,
0.02296,2.356952311,0.02296,73.45148913,
0.02298,1.260661429,0.02298,73.08605883,
0.023,1.260661429,0.023,72.35519825,
0.02302,1.260661429,0.02302,73.08605883,
0.02304,0.8952311347,0.02304,73.08605883,
0.02306,0.5298008405,0.02306,72.72062854,
0.02308,0.1643705463,0.02308,73.45148913,
0.0231,-1.29735063,0.0231,73.45148913,
0.02312,-1.662780925,0.02312,72.72062854,
0.02314,-0.2010597479,0.02314,73.08605883,
0.02316,0.1643705463,0.02316,73.08605883,
0.02318,-0.566490042,0.02318,73.08605883,
0.0232,1.991522017,0.0232,73.08605883,
0.02322,0.8952311347,0.02322,72.72062854,
0.02324,-0.2010597479,0.02324,72.72062854,
0.02326,-1.662780925,0.02326,72.72062854,
0.02328,-3.124502101,0.02328,73.45148913,
0.0233,-2.028211219,0.0233,73.08605883,
0.02332,-2.028211219,0.02332,72.72062854,
0.02334,-4.586223278,0.02334,72.72062854,
0.02336,-2.028211219,0.02336,72.35519825,
0.02338,-0.566490042,0.02338,72.72062854,
0.0234,-0.566490042,0.0234,72.35519825,
0.02342,-1.29735063,0.02342,72.72062854,
0.02344,0.5298008405,0.02344,73.81691942,
0.02346,0.1643705463,0.02346,73.08605883,
0.02348,0.1643705463,0.02348,72.72062854,
0.0235,-0.9319203362,0.0235,73.45148913,
0.02352,-0.9319203362,0.02352,73.08605883,
0.02354,-2.028211219,0.02354,72.72062854,
0.02356,-0.566490042,0.02356,73.08605883,
0.02358,-1.662780925,0.02358,73.08605883,
0.0236,-1.662780925,0.0236,72.35519825,
0.02362,0.1643705463,0.02362,72.72062854,
0.02364,0.1643705463,0.02364,73.45148913,
0.02366,0.1643705463,0.02366,73.08605883,
0.02368,0.5298008405,0.02368,73.45148913,
0.0237,1.626091723,0.0237,73.08605883,
0.02372,0.1643705463,0.02372,73.45148913,
0.02374,0.1643705463,0.02374,73.45148913,
0.02376,0.5298008405,0.02376,73.81691942,
0.02378,-0.2010597479,0.02378,72.72062854,
0.0238,0.1643705463,0.0238,73.45148913,
0.02382,0.8952311347,0.02382,73.08605883,
0.02384,-0.9319203362,0.02384,73.45148913,
0.02386,0.8952311347,0.02386,73.45148913,
0.02388,-0.2010597479,0.02388,73.45148913,
0.0239,0.8952311347,0.0239,73.81691942,
0.02392,1.991522017,0.02392,73.45148913,
0.02394,2.356952311,0.02394,72.72062854,
0.02396,1.626091723,0.02396,73.45148913,
0.02398,1.991522017,0.02398,73.08605883,
0.024,1.260661429,0.024,73.08605883,
0.02402,0.8952311347,0.02402,73.81691942,
0.02404,1.991522017,0.02404,73.08605883,
0.02406,-0.566490042,0.02406,73.08605883,
0.02408,-0.9319203362,0.02408,73.81691942,
0.0241,-1.29735063,0.0241,73.45148913,
0.02412,-1.29735063,0.02412,73.08605883,
0.02414,0.5298008405,0.02414,73.45148913,
0.02416,0.8952311347,0.02416,72.35519825,
0.02418,0.8952311347,0.02418,73.08605883,
0.0242,-0.566490042,0.0242,72.72062854,
0.02422,-1.662780925,0.02422,73.45148913,
0.02424,-1.662780925,0.02424,73.45148913,
0.02426,-3.489932395,0.02426,72.35519825,
0.02428,-4.586223278,0.02428,73.81691942,
0.0243,-3.124502101,0.0243,73.08605883,
0.02432,-3.85536269,0.02432,71.98976795,
0.02434,-0.2010597479,0.02434,73.45148913,
0.02436,-3.124502101,0.02436,73.45148913,
0.02438,-2.028211219,0.02438,73.08605883,
0.0244,-0.566490042,0.0244,72.72062854,
0.02442,-0.2010597479,0.02442,73.81691942,
0.02444,-0.566490042,0.02444,73.45148913,
0.02446,-0.566490042,0.02446,73.08605883,
0.02448,-1.29735063,0.02448,73.81691942,
0.0245,-1.662780925,0.0245,73.08605883,
0.02452,-1.29735063,0.02452,73.08605883,
0.02454,-0.9319203362,0.02454,73.45148913,
0.02456,-2.028211219,0.02456,72.72062854,
0.02458,-1.29735063,0.02458,72.72062854,
0.0246,-0.2010597479,0.0246,73.45148913,
0.02462,-0.9319203362,0.02462,73.08605883,
0.02464,0.5298008405,0.02464,73.45148913,
0.02466,1.626091723,0.02466,73.45148913,
0.02468,1.260661429,0.02468,73.45148913,
0.0247,0.5298008405,0.0247,73.45148913,
0.02472,1.626091723,0.02472,73.81691942,
0.02474,-0.566490042,0.02474,73.08605883,
0.02476,-0.566490042,0.02476,72.72062854,
0.02478,0.1643705463,0.02478,73.45148913,
0.0248,0.1643705463,0.0248,73.08605883,
0.02482,-0.2010597479,0.02482,72.72062854,
0.02484,-0.2010597479,0.02484,73.45148913,
0.02486,-0.9319203362,0.02486,73.45148913,
0.02488,1.260661429,0.02488,72.72062854,
0.0249,1.991522017,0.0249,73.45148913,
0.02492,1.626091723,0.02492,73.45148913,
0.02494,0.1643705463,0.02494,72.72062854,
0.02496,0.1643705463,0.02496,72.72062854,
0.02498,-0.2010597479,0.02498,73.45148913,
0.025,0.1643705463,0.025,72.35519825,
0.02502,-0.2010597479,0.02502,73.45148913,
0.02504,-0.566490042,0.02504,72.72062854,
0.02506,-1.662780925,0.02506,72.72062854,
0.02508,-1.29735063,0.02508,73.45148913,
0.0251,-2.028211219,0.0251,73.45148913,
0.02512,-0.566490042,0.02512,73.45148913,
0.02514,0.8952311347,0.02514,73.45148913,
0.02516,0.5298008405,0.02516,73.45148913,
0.02518,-0.2010597479,0.02518,73.81691942,
0.0252,0.5298008405,0.0252,74.18234972,
0.02522,-3.489932395,0.02522,72.35519825,
0.02524,1.626091723,0.02524,72.35519825,
0.02526,-2.028211219,0.02526,73.08605883,
0.02528,-3.85536269,0.02528,72.72062854,
0.0253,-1.662780925,0.0253,73.45148913,
0.02532,-4.951653572,0.02532,73.45148913,
0.02534,-0.566490042,0.02534,73.08605883,
0.02536,0.1643705463,0.02536,73.08605883,
0.02538,0.5298008405,0.02538,73.45148913,
0.0254,-0.566490042,0.0254,73.08605883,
0.02542,-0.566490042,0.02542,73.08605883,
0.02544,-1.662780925,0.02544,73.08605883,
0.02546,-2.393641513,0.02546,73.08605883,
0.02548,-0.2010597479,0.02548,73.08605883,
0.0255,-2.028211219,0.0255,73.08605883,
0.02552,-1.29735063,0.02552,73.08605883,
0.02554,-1.29735063,0.02554,72.72062854,
0.02556,-0.566490042,0.02556,73.81691942,
0.02558,-0.2010597479,0.02558,73.08605883,
0.0256,0.1643705463,0.0256,73.08605883,
0.02562,0.8952311347,0.02562,73.45148913,
0.02564,0.5298008405,0.02564,73.08605883,
0.02566,0.5298008405,0.02566,72.72062854,
0.02568,0.8952311347,0.02568,73.45148913,
0.0257,0.1643705463,0.0257,73.08605883,
0.02572,-0.2010597479,0.02572,72.72062854,
0.02574,0.1643705463,0.02574,73.45148913,
0.02576,-1.29735063,0.02576,72.72062854,
0.02578,-0.566490042,0.02578,72.72062854,
0.0258,-0.2010597479,0.0258,73.45148913,
0.02582,-0.566490042,0.02582,73.08605883,
0.02584,0.5298008405,0.02584,72.72062854,
0.02586,1.260661429,0.02586,73.81691942,
0.02588,-0.2010597479,0.02588,72.72062854,
0.0259,0.5298008405,0.0259,73.08605883,
0.02592,1.626091723,0.02592,74.18234972,
0.02594,0.8952311347,0.02594,73.08605883,
0.02596,-0.2010597479,0.02596,72.72062854,
0.02598,-0.2010597479,0.02598,73.45148913,
0.026,-1.29735063,0.026,73.08605883,
0.02602,-1.29735063,0.02602,72.72062854,
0.02604,-2.028211219,0.02604,73.45148913,
0.02606,-1.29735063,0.02606,73.08605883,
0.02608,-0.2010597479,0.02608,73.08605883,
0.0261,-0.566490042,0.0261,73.81691942,
0.02612,0.1643705463,0.02612,73.08605883,
0.02614,0.5298008405,0.02614,73.08605883,
0.02616,1.991522017,0.02616,73.81691942,
0.02618,1.626091723,0.02618,74.18234972,
0.0262,-2.759071807,0.0262,73.45148913,
0.02622,-1.662780925,0.02622,73.08605883,
0.02624,-4.586223278,0.02624,74.18234972,
0.02626,-3.124502101,0.02626,73.81691942,
0.02628,-3.85536269,0.02628,73.08605883,
0.0263,-1.662780925,0.0263,73.81691942,
0.02632,-0.566490042,0.02632,72.35519825,
0.02634,-1.29735063,0.02634,73.81691942,
0.02636,-0.2010597479,0.02636,73.81691942,
0.02638,0.5298008405,0.02638,72.72062854,
0.0264,-0.2010597479,0.0264,73.08605883,
0.02642,-0.9319203362,0.02642,73.08605883,
0.02644,-0.2010597479,0.02644,73.08605883,
0.02646,-2.028211219,0.02646,73.08605883,
0.02648,-1.662780925,0.02648,73.81691942,
0.0265,-1.662780925,0.0265,73.45148913,
0.02652,-0.2010597479,0.02652,73.45148913,
0.02654,-0.9319203362,0.02654,73.08605883,
0.02656,0.5298008405,0.02656,73.45148913,
0.02658,0.8952311347,0.02658,73.08605883,
0.0266,-0.2010597479,0.0266,73.08605883,
0.02662,0.8952311347,0.02662,72.72062854,
0.02664,0.5298008405,0.02664,73.45148913,
0.02666,0.1643705463,0.02666,73.45148913,
0.02668,0.5298008405,0.02668,73.08605883,
0.0267,-0.2010597479,0.0267,73.81691942,
0.02672,-0.2010597479,0.02672,73.81691942,
0.02674,1.260661429,0.02674,73.08605883,
0.02676,-0.566490042,0.02676,73.81691942,
0.02678,-0.2010597479,0.02678,73.08605883,
0.0268,-0.2010597479,0.0268,73.08605883,
0.02682,0.1643705463,0.02682,73.45148913,
0.02684,1.260661429,0.02684,73.45148913,
0.02686,0.1643705463,0.02686,73.08605883,
0.02688,1.260661429,0.02688,73.45148913,
0.0269,-0.566490042,0.0269,73.45148913,
0.02692,0.8952311347,0.02692,73.08605883,
0.02694,0.1643705463,0.02694,73.45148913,
0.02696,-0.9319203362,0.02696,73.81691942,
0.02698,0.8952311347,0.02698,73.08605883,
0.027,-0.566490042,0.027,73.45148913,
0.02702,-0.2010597479,0.02702,73.45148913,
0.02704,0.1643705463,0.02704,73.45148913,
0.02706,0.5298008405,0.02706,73.45148913,
0.02708,0.5298008405,0.02708,73.45148913,
0.0271,-0.2010597479,0.0271,73.45148913,
0.02712,-0.2010597479,0.02712,72.35519825,
0.02714,-0.2010597479,0.02714,72.72062854,
0.02716,-1.662780925,0.02716,71.62433766,
0.02718,-1.662780925,0.02718,74.18234972,
0.0272,-0.9319203362,0.0272,72.35519825,
0.02722,-0.9319203362,0.02722,72.72062854,
0.02724,-1.29735063,0.02724,74.18234972,
0.02726,-4.586223278,0.02726,71.98976795,
0.02728,-2.028211219,0.02728,73.81691942,
0.0273,-0.9319203362,0.0273,73.81691942,
0.02732,-2.393641513,0.02732,73.81691942,
0.02734,0.1643705463,0.02734,73.08605883,
0.02736,-0.2010597479,0.02736,73.81691942,
0.02738,-1.29735063,0.02738,73.45148913,
0.0274,-0.9319203362,0.0274,73.08605883,
0.02742,-0.9319203362,0.02742,73.08605883,
0.02744,-2.759071807,0.02744,73.08605883,
0.02746,-0.9319203362,0.02746,72.72062854,
0.02748,-1.662780925,0.02748,73.45148913,
0.0275,-0.9319203362,0.0275,73.08605883,
0.02752,-0.2010597479,0.02752,73.08605883,
0.02754,0.1643705463,0.02754,73.81691942,
0.02756,0.8952311347,0.02756,73.08605883,
0.02758,0.8952311347,0.02758,73.08605883,
0.0276,0.8952311347,0.0276,73.81691942,
0.02762,-0.566490042,0.02762,73.08605883,
0.02764,0.5298008405,0.02764,73.45148913,
0.02766,-0.2010597479,0.02766,73.81691942,
0.02768,0.5298008405,0.02768,73.45148913,
0.0277,0.5298008405,0.0277,73.45148913,
0.02772,-0.2010597479,0.02772,73.45148913,
0.02774,-0.2010597479,0.02774,73.81691942,
0.02776,0.1643705463,0.02776,73.08605883,
0.02778,-0.2010597479,0.02778,73.81691942,
0.0278,0.5298008405,0.0278,73.45148913,
0.02782,1.260661429,0.02782,73.08605883,
0.02784,1.626091723,0.02784,73.45148913,
0.02786,0.5298008405,0.02786,73.81691942,
0.02788,0.8952311347,0.02788,73.45148913,
0.0279,0.8952311347,0.0279,73.45148913,
0.02792,0.5298008405,0.02792,73.08605883,
0.02794,0.1643705463,0.02794,72.72062854,
0.02796,0.1643705463,0.02796,73.45148913,
0.02798,-0.9319203362,0.02798,73.08605883,
0.028,-0.2010597479,0.028,73.45148913,
0.02802,-0.566490042,0.02802,72.72062854,
0.02804,0.5298008405,0.02804,73.08605883,
0.02806,0.1643705463,0.02806,73.45148913,
0.02808,-0.566490042,0.02808,72.72062854,
0.0281,0.1643705463,0.0281,73.45148913,
0.02812,-0.566490042,0.02812,73.08605883,
0.02814,-2.759071807,0.02814,72.72062854,
0.02816,-0.566490042,0.02816,72.72062854,
0.02818,-2.759071807,0.02818,73.45148913,
0.0282,-0.566490042,0.0282,74.18234972,
0.02822,-3.85536269,0.02822,73.81691942,
0.02824,-2.028211219,0.02824,73.45148913,
0.02826,-2.393641513,0.02826,71.98976795,
0.02828,-0.566490042,0.02828,74.18234972,
0.0283,-1.29735063,0.0283,73.45148913,
0.02832,-0.566490042,0.02832,72.72062854,
0.02834,-1.29735063,0.02834,73.45148913,
0.02836,-1.662780925,0.02836,73.08605883,
0.02838,-0.9319203362,0.02838,72.35519825,
0.0284,-0.566490042,0.0284,73.08605883,
0.02842,-2.028211219,0.02842,73.45148913,
0.02844,-0.9319203362,0.02844,73.08605883,
0.02846,-0.2010597479,0.02846,73.45148913,
0.02848,-0.9319203362,0.02848,73.45148913,
0.0285,-0.566490042,0.0285,72.72062854,
0.02852,0.5298008405,0.02852,73.08605883,
0.02854,0.5298008405,0.02854,73.45148913,
0.02856,1.260661429,0.02856,72.72062854,
0.02858,1.626091723,0.02858,73.45148913,
0.0286,0.1643705463,0.0286,73.08605883,
0.02862,0.1643705463,0.02862,72.35519825,
0.02864,-0.2010597479,0.02864,73.08605883,
0.02866,0.5298008405,0.02866,73.45148913,
0.02868,-1.29735063,0.02868,72.72062854,
0.0287,-0.566490042,0.0287,72.72062854,
0.02872,-0.2010597479,0.02872,73.45148913,
0.02874,-0.2010597479,0.02874,72.35519825,
0.02876,0.8952311347,0.02876,72.72062854,
0.02878,-0.566490042,0.02878,73.08605883,
0.0288,1.260661429,0.0288,73.08605883,
0.02882,1.991522017,0.02882,73.45148913,
0.02884,-0.2010597479,0.02884,73.45148913,
0.02886,1.260661429,0.02886,73.81691942,
0.02888,1.260661429,0.02888,73.08605883,
0.0289,0.5298008405,0.0289,72.72062854,
0.02892,-0.2010597479,0.02892,73.08605883,
0.02894,-0.566490042,0.02894,73.08605883,
0.02896,0.1643705463,0.02896,72.72062854,
0.02898,-0.2010597479,0.02898,73.08605883,
0.029,-0.566490042,0.029,73.45148913,
0.02902,-1.29735063,0.02902,73.08605883,
0.02904,0.1643705463,0.02904,73.45148913,
0.02906,0.5298008405,0.02906,73.45148913,
0.02908,-0.2010597479,0.02908,73.08605883,
0.0291,0.8952311347,0.0291,73.45148913,
0.02912,-2.393641513,0.02912,74.18234972,
0.02914,-0.2010597479,0.02914,74.18234972,
0.02916,-3.489932395,0.02916,73.08605883,
0.02918,-2.759071807,0.02918,71.98976795,
0.0292,-2.393641513,0.0292,72.72062854,
0.02922,-1.662780925,0.02922,73.08605883,
0.02924,-0.2010597479,0.02924,73.45148913,
0.02926,-1.662780925,0.02926,73.08605883,
0.02928,1.626091723,0.02928,73.45148913,
0.0293,0.8952311347,0.0293,72.72062854,
0.02932,1.260661429,0.02932,73.08605883,
0.02934,-1.29735063,0.02934,73.08605883,
0.02936,-0.9319203362,0.02936,72.72062854,
0.02938,-1.662780925,0.02938,73.81691942,
0.0294,-0.9319203362,0.0294,73.08605883,
0.02942,-0.9319203362,0.02942,72.72062854,
0.02944,-0.566490042,0.02944,73.81691942,
0.02946,-1.29735063,0.02946,73.45148913,
0.02948,0.1643705463,0.02948,72.72062854,
0.0295,-0.2010597479,0.0295,73.08605883,
0.02952,0.5298008405,0.02952,73.08605883,
0.02954,0.8952311347,0.02954,73.08605883,
0.02956,1.260661429,0.02956,73.45148913,
0.02958,-0.566490042,0.02958,73.45148913,
0.0296,1.260661429,0.0296,73.08605883,
0.02962,0.5298008405,0.02962,73.81691942,
0.02964,0.5298008405,0.02964,73.45148913,
0.02966,-0.2010597479,0.02966,72.72062854,
0.02968,-0.566490042,0.02968,73.45148913,
0.0297,-0.9319203362,0.0297,72.72062854,
0.02972,0.1643705463,0.02972,73.08605883,
0.02974,0.1643705463,0.02974,73.81691942,
0.02976,0.5298008405,0.02976,73.08605883,
0.02978,1.991522017,0.02978,72.72062854,
0.0298,1.991522017,0.0298,73.45148913,
0.02982,1.260661429,0.02982,72.72062854,
0.02984,1.626091723,0.02984,73.08605883,
0.02986,0.5298008405,0.02986,73.45148913,
0.02988,0.5298008405,0.02988,73.45148913,
0.0299,-0.2010597479,0.0299,73.45148913,
0.02992,-2.028211219,0.02992,73.81691942,
0.02994,-1.662780925,0.02994,73.08605883,
0.02996,-0.9319203362,0.02996,73.08605883,
0.02998,-0.566490042,0.02998,73.81691942,
0.03,-0.566490042,0.03,73.08605883,
0.03002,0.8952311347,0.03002,73.08605883,
0.03004,-0.2010597479,0.03004,74.54778001,
0.03006,-0.2010597479,0.03006,73.81691942,
0.03008,1.626091723,0.03008,72.72062854,
0.0301,1.260661429,0.0301,73.45148913,
0.03012,-1.662780925,0.03012,74.18234972,
0.03014,-0.2010597479,0.03014,73.08605883,
0.03016,-1.662780925,0.03016,73.45148913,
0.03018,-3.124502101,0.03018,71.98976795,
0.0302,-3.85536269,0.0302,73.45148913,
0.03022,-3.124502101,0.03022,74.18234972,
0.03024,-1.29735063,0.03024,72.72062854,
0.03026,-0.9319203362,0.03026,73.45148913,
0.03028,-0.2010597479,0.03028,73.45148913,
0.0303,-2.028211219,0.0303,72.72062854,
0.03032,-0.9319203362,0.03032,73.45148913,
0.03034,-1.29735063,0.03034,73.45148913,
0.03036,-1.662780925,0.03036,73.08605883,
0.03038,-1.662780925,0.03038,73.08605883,
0.0304,-0.566490042,0.0304,73.45148913,
0.03042,-1.29735063,0.03042,73.08605883,
0.03044,-1.29735063,0.03044,73.08605883,
0.03046,0.5298008405,0.03046,73.45148913,
0.03048,-0.2010597479,0.03048,72.72062854,
0.0305,0.8952311347,0.0305,73.08605883,
0.03052,1.260661429,0.03052,73.45148913,
0.03054,0.5298008405,0.03054,73.45148913,
0.03056,1.991522017,0.03056,73.08605883,
0.03058,0.5298008405,0.03058,73.45148913,
0.0306,-0.566490042,0.0306,72.72062854,
0.03062,-0.566490042,0.03062,72.72062854,
0.03064,-0.9319203362,0.03064,73.45148913,
0.03066,-0.9319203362,0.03066,73.45148913,
0.03068,0.1643705463,0.03068,72.72062854,
0.0307,0.5298008405,0.0307,73.08605883,
0.03072,-0.566490042,0.03072,73.08605883,
0.03074,0.8952311347,0.03074,73.08605883,
0.03076,1.626091723,0.03076,73.45148913,
0.03078,1.260661429,0.03078,72.72062854,
0.0308,-0.2010597479,0.0308,72.72062854,
0.03082,0.8952311347,0.03082,73.45148913,
0.03084,-0.2010597479,0.03084,73.08605883,
0.03086,1.260661429,0.03086,72.72062854,
0.03088,-0.566490042,0.03088,73.45148913,
0.0309,-2.028211219,0.0309,73.45148913,
0.03092,-0.9319203362,0.03092,73.08605883,
0.03094,0.1643705463,0.03094,73.08605883,
0.03096,-0.9319203362,0.03096,73.08605883,
0.03098,-0.2010597479,0.03098,73.08605883,
0.031,0.5298008405,0.031,73.81691942,
0.03102,1.626091723,0.03102,72.72062854,
0.03104,-0.566490042,0.03104,73.45148913,
0.03106,1.626091723,0.03106,73.08605883,
0.03108,-3.489932395,0.03108,73.08605883,
0.0311,-3.124502101,0.0311,71.25890736,
0.03112,0.5298008405,0.03112,73.08605883,
0.03114,-2.393641513,0.03114,73.81691942,
0.03116,-2.759071807,0.03116,72.35519825,
0.03118,-4.220792984,0.03118,74.18234972,
0.0312,-3.489932395,0.0312,73.81691942,
0.03122,-0.566490042,0.03122,73.45148913,
0.03124,0.5298008405,0.03124,73.81691942,
0.03126,-0.9319203362,0.03126,72.72062854,
0.03128,-0.2010597479,0.03128,72.72062854,
0.0313,-0.9319203362,0.0313,73.08605883,
0.03132,-1.662780925,0.03132,73.08605883,
0.03134,-0.9319203362,0.03134,73.08605883,
0.03136,-1.662780925,0.03136,73.81691942,
0.03138,-1.662780925,0.03138,73.08605883,
0.0314,-1.662780925,0.0314,72.72062854,
0.03142,-0.2010597479,0.03142,73.08605883,
0.03144,-1.29735063,0.03144,72.72062854,
0.03146,0.1643705463,0.03146,73.08605883,
0.03148,0.5298008405,0.03148,73.81691942,
0.0315,0.1643705463,0.0315,72.72062854,
0.03152,0.1643705463,0.03152,72.72062854,
0.03154,0.8952311347,0.03154,73.45148913,
0.03156,-0.9319203362,0.03156,73.08605883,
0.03158,-0.2010597479,0.03158,72.72062854,
0.0316,-0.566490042,0.0316,73.08605883,
0.03162,-0.9319203362,0.03162,72.72062854,
0.03164,-0.2010597479,0.03164,72.72062854,
0.03166,-0.2010597479,0.03166,73.81691942,
0.03168,-0.2010597479,0.03168,73.08605883,
0.0317,0.8952311347,0.0317,73.08605883,
0.03172,1.991522017,0.03172,74.18234972,
0.03174,0.8952311347,0.03174,73.45148913,
0.03176,0.5298008405,0.03176,73.08605883,
0.03178,1.260661429,0.03178,73.81691942,
0.0318,0.8952311347,0.0318,73.45148913,
0.03182,0.8952311347,0.03182,73.08605883,
0.03184,0.1643705463,0.03184,73.45148913,
0.03186,0.1643705463,0.03186,73.81691942,
0.03188,-0.9319203362,0.03188,73.08605883,
0.0319,-0.9319203362,0.0319,73.08605883,
0.03192,-1.29735063,0.03192,73.45148913,
0.03194,-0.566490042,0.03194,73.45148913,
0.03196,1.260661429,0.03196,73.45148913,
0.03198,-0.2010597479,0.03198,73.08605883,
0.032,0.5298008405,0.032,73.08605883,
0.03202,-0.2010597479,0.03202,72.72062854,
0.03204,-2.028211219,0.03204,72.72062854,
0.03206,-2.028211219,0.03206,72.35519825,
0.03208,-2.759071807,0.03208,73.81691942,
0.0321,-2.393641513,0.0321,71.98976795,
0.03212,-2.028211219,0.03212,73.08605883,
0.03214,-3.124502101,0.03214,73.81691942,
0.03216,-2.759071807,0.03216,73.45148913,
0.03218,-2.393641513,0.03218,72.72062854,
0.0322,-3.124502101,0.0322,73.81691942,
0.03222,-0.566490042,0.03222,73.08605883,
0.03224,-0.2010597479,0.03224,72.72062854,
0.03226,-1.29735063,0.03226,73.45148913,
0.03228,-1.29735063,0.03228,73.08605883,
0.0323,-0.9319203362,0.0323,73.08605883,
0.03232,-0.2010597479,0.03232,72.72062854,
0.03234,-1.662780925,0.03234,73.08605883,
0.03236,0.1643705463,0.03236,73.08605883,
0.03238,-1.29735063,0.03238,73.45148913,
0.0324,0.1643705463,0.0324,73.45148913,
0.03242,0.8952311347,0.03242,73.08605883,
0.03244,0.1643705463,0.03244,74.18234972,
0.03246,0.1643705463,0.03246,73.08605883,
0.03248,2.356952311,0.03248,73.08605883,
0.0325,0.8952311347,0.0325,73.45148913,
0.03252,-0.566490042,0.03252,73.45148913,
0.03254,0.1643705463,0.03254,73.08605883,
0.03256,-0.566490042,0.03256,73.45148913,
0.03258,-0.566490042,0.03258,73.08605883,
0.0326,0.1643705463,0.0326,73.45148913,
0.03262,0.1643705463,0.03262,73.45148913,
0.03264,-0.2010597479,0.03264,73.45148913,
0.03266,-0.2010597479,0.03266,73.08605883,
0.03268,0.5298008405,0.03268,73.45148913,
0.0327,0.8952311347,0.0327,73.45148913,
0.03272,1.991522017,0.03272,73.08605883,
0.03274,1.626091723,0.03274,73.81691942,
0.03276,0.5298008405,0.03276,73.08605883,
0.03278,0.8952311347,0.03278,73.08605883,
0.0328,1.260661429,0.0328,73.45148913,
0.03282,-0.2010597479,0.03282,73.08605883,
0.03284,0.5298008405,0.03284,73.08605883,
0.03286,-0.2010597479,0.03286,73.81691942,
0.03288,-0.9319203362,0.03288,73.81691942,
0.0329,-0.2010597479,0.0329,73.08605883,
0.03292,-0.2010597479,0.03292,73.45148913,
0.03294,0.5298008405,0.03294,73.45148913,
0.03296,1.991522017,0.03296,72.72062854,
0.03298,0.5298008405,0.03298,73.81691942,
0.033,1.260661429,0.033,73.81691942,
0.03302,1.260661429,0.03302,73.08605883,
0.03304,-0.9319203362,0.03304,73.08605883,
0.03306,-1.662780925,0.03306,73.45148913,
0.03308,0.1643705463,0.03308,73.45148913,
0.0331,-1.662780925,0.0331,72.72062854,
0.03312,-3.489932395,0.03312,73.81691942,
0.03314,-3.124502101,0.03314,73.08605883,
0.03316,0.5298008405,0.03316,73.45148913,
0.03318,-1.29735063,0.03318,73.81691942,
0.0332,-0.2010597479,0.0332,73.45148913,
0.03322,0.5298008405,0.03322,73.81691942,
0.03324,-0.9319203362,0.03324,73.45148913,
0.03326,-0.566490042,0.03326,72.72062854,
0.03328,-1.29735063,0.03328,73.81691942,
0.0333,-1.662780925,0.0333,73.08605883,
0.03332,-1.662780925,0.03332,73.08605883,
0.03334,-0.9319203362,0.03334,73.81691942,
0.03336,-0.2010597479,0.03336,73.08605883,
0.03338,-1.29735063,0.03338,73.45148913,
0.0334,-0.2010597479,0.0334,73.45148913,
0.03342,-0.2010597479,0.03342,73.08605883,
0.03344,0.1643705463,0.03344,73.45148913,
0.03346,0.8952311347,0.03346,73.45148913,
0.03348,0.1643705463,0.03348,73.45148913,
0.0335,0.1643705463,0.0335,73.08605883,
0.03352,0.5298008405,0.03352,73.81691942,
0.03354,-0.566490042,0.03354,73.45148913,
0.03356,0.5298008405,0.03356,73.08605883,
0.03358,-0.566490042,0.03358,73.45148913,
0.0336,-1.29735063,0.0336,73.08605883,
0.03362,-0.2010597479,0.03362,73.08605883,
0.03364,0.8952311347,0.03364,73.45148913,
0.03366,0.1643705463,0.03366,73.45148913,
0.03368,1.991522017,0.03368,73.08605883,
0.0337,0.8952311347,0.0337,72.35519825,
0.03372,1.626091723,0.03372,73.08605883,
0.03374,1.626091723,0.03374,73.08605883,
0.03376,0.5298008405,0.03376,72.72062854,
0.03378,0.8952311347,0.03378,73.08605883,
0.0338,-0.2010597479,0.0338,73.08605883,
0.03382,-0.2010597479,0.03382,72.72062854,
0.03384,-0.2010597479,0.03384,73.45148913,
0.03386,-1.662780925,0.03386,73.08605883,
0.03388,-1.29735063,0.03388,72.35519825,
0.0339,0.1643705463,0.0339,73.08605883,
0.03392,0.1643705463,0.03392,72.72062854,
0.03394,-0.2010597479,0.03394,72.35519825,
0.03396,0.1643705463,0.03396,71.62433766,
0.03398,-1.662780925,0.03398,73.81691942,
0.034,1.626091723,0.034,73.45148913,
0.03402,-2.759071807,0.03402,73.08605883,
0.03404,-0.2010597479,0.03404,74.54778001,
0.03406,0.8952311347,0.03406,73.45148913,
0.03408,-2.028211219,0.03408,73.08605883,
0.0341,-1.29735063,0.0341,73.45148913,
0.03412,-0.9319203362,0.03412,73.81691942,
0.03414,0.1643705463,0.03414,73.08605883,
0.03416,0.5298008405,0.03416,73.45148913,
0.03418,-0.566490042,0.03418,73.45148913,
0.0342,0.1643705463,0.0342,73.08605883,
0.03422,-0.9319203362,0.03422,73.45148913,
0.03424,-0.566490042,0.03424,73.45148913,
0.03426,-2.028211219,0.03426,73.45148913,
0.03428,-2.028211219,0.03428,73.08605883,
0.0343,-0.566490042,0.0343,73.08605883,
0.03432,-1.29735063,0.03432,73.81691942,
0.03434,-1.29735063,0.03434,73.08605883,
0.03436,-0.9319203362,0.03436,73.45148913,
0.03438,0.5298008405,0.03438,73.08605883,
0.0344,0.1643705463,0.0344,73.45148913,
0.03442,0.1643705463,0.03442,73.08605883,
0.03444,0.5298008405,0.03444,73.45148913,
0.03446,0.8952311347,0.03446,73.45148913,
0.03448,-0.2010597479,0.03448,73.08605883,
0.0345,0.1643705463,0.0345,73.45148913,
0.03452,0.1643705463,0.03452,73.08605883,
0.03454,1.260661429,0.03454,73.45148913,
0.03456,-0.2010597479,0.03456,73.45148913,
0.03458,-0.566490042,0.03458,73.08605883,
0.0346,0.1643705463,0.0346,73.08605883,
0.03462,1.260661429,0.03462,73.45148913,
0.03464,0.1643705463,0.03464,73.08605883,
0.03466,1.626091723,0.03466,73.45148913,
0.03468,1.260661429,0.03468,73.45148913,
0.0347,1.626091723,0.0347,73.81691942,
0.03472,0.1643705463,0.03472,73.45148913,
0.03474,0.8952311347,0.03474,73.45148913,
0.03476,0.1643705463,0.03476,72.72062854,
0.03478,0.1643705463,0.03478,73.81691942,
0.0348,-2.028211219,0.0348,73.45148913,
0.03482,-0.9319203362,0.03482,73.45148913,
0.03484,-0.566490042,0.03484,73.81691942,
0.03486,-0.2010597479,0.03486,73.08605883,
0.03488,-0.2010597479,0.03488,73.08605883,
0.0349,1.260661429,0.0349,73.45148913,
0.03492,-1.29735063,0.03492,74.18234972,
0.03494,-0.9319203362,0.03494,73.08605883,
0.03496,-0.9319203362,0.03496,73.45148913,
0.03498,-1.662780925,0.03498,72.35519825,
0.035,0.1643705463,0.035,71.98976795,
0.03502,-1.662780925,0.03502,72.72062854,
0.03504,0.5298008405,0.03504,73.81691942,
0.03506,-2.759071807,0.03506,74.18234972,
0.03508,-1.29735063,0.03508,74.91321031,
0.0351,-3.489932395,0.0351,73.45148913,
0.03512,-1.662780925,0.03512,72.35519825,
0.03514,0.1643705463,0.03514,73.81691942,
0.03516,-0.9319203362,0.03516,73.45148913,
0.03518,-0.9319203362,0.03518,72.72062854,
0.0352,-0.9319203362,0.0352,73.81691942,
0.03522,-2.028211219,0.03522,73.08605883,
0.03524,-0.9319203362,0.03524,73.08605883,
0.03526,-0.9319203362,0.03526,73.45148913,
0.03528,-2.028211219,0.03528,72.72062854,
0.0353,-0.9319203362,0.0353,73.45148913,
0.03532,-0.9319203362,0.03532,73.45148913,
0.03534,-1.662780925,0.03534,73.08605883,
0.03536,0.8952311347,0.03536,73.08605883,
0.03538,0.1643705463,0.03538,73.81691942,
0.0354,1.260661429,0.0354,72.72062854,
0.03542,0.5298008405,0.03542,73.08605883,
0.03544,0.8952311347,0.03544,73.45148913,
0.03546,0.1643705463,0.03546,73.45148913,
0.03548,0.8952311347,0.03548,72.72062854,
0.0355,-0.2010597479,0.0355,73.45148913,
0.03552,0.5298008405,0.03552,73.08605883,
0.03554,0.8952311347,0.03554,73.08605883,
0.03556,0.1643705463,0.03556,73.45148913,
0.03558,-0.566490042,0.03558,73.08605883,
0.0356,0.1643705463,0.0356,73.08605883,
0.03562,1.260661429,0.03562,73.45148913,
0.03564,0.5298008405,0.03564,73.45148913,
0.03566,1.991522017,0.03566,73.08605883,
0.03568,1.260661429,0.03568,73.45148913,
0.0357,0.8952311347,0.0357,73.08605883,
0.03572,1.260661429,0.03572,73.08605883,
0.03574,0.1643705463,0.03574,73.08605883,
0.03576,-0.566490042,0.03576,73.45148913,
0.03578,-0.2010597479,0.03578,73.08605883,
0.0358,-0.566490042,0.0358,73.45148913,
0.03582,-1.29735063,0.03582,72.72062854,
0.03584,0.5298008405,0.03584,73.08605883,
0.03586,0.1643705463,0.03586,73.45148913,
0.03588,-0.2010597479,0.03588,72.72062854,
0.0359,1.626091723,0.0359,73.08605883,
0.03592,0.8952311347,0.03592,73.45148913,
0.03594,0.1643705463,0.03594,73.45148913,
0.03596,-1.29735063,0.03596,72.72062854,
0.03598,-0.566490042,0.03598,73.45148913,
0.036,-2.393641513,0.036,72.72062854,
0.03602,-0.566490042,0.03602,73.81691942,
0.03604,0.8952311347,0.03604,74.54778001,
0.03606,-2.028211219,0.03606,73.08605883,
0.03608,-2.393641513,0.03608,73.45148913,
0.0361,-1.29735063,0.0361,73.08605883,
0.03612,-0.566490042,0.03612,73.08605883,
0.03614,0.1643705463,0.03614,73.45148913,
0.03616,-2.028211219,0.03616,73.08605883,
0.03618,-0.9319203362,0.03618,73.08605883,
0.0362,-0.9319203362,0.0362,73.45148913,
0.03622,-0.566490042,0.03622,73.81691942,
0.03624,-2.028211219,0.03624,72.72062854,
0.03626,-1.29735063,0.03626,73.08605883,
0.03628,-0.9319203362,0.03628,73.81691942,
0.0363,-1.662780925,0.0363,73.45148913,
0.03632,0.5298008405,0.03632,73.08605883,
0.03634,0.1643705463,0.03634,73.45148913,
0.03636,0.1643705463,0.03636,73.08605883,
0.03638,0.1643705463,0.03638,73.45148913,
0.0364,0.5298008405,0.0364,73.45148913,
0.03642,0.1643705463,0.03642,73.45148913,
0.03644,1.626091723,0.03644,72.72062854,
0.03646,-0.2010597479,0.03646,73.81691942,
0.03648,-0.9319203362,0.03648,73.08605883,
0.0365,0.8952311347,0.0365,73.08605883,
0.03652,0.8952311347,0.03652,73.45148913,
0.03654,-0.2010597479,0.03654,73.08605883,
0.03656,-0.2010597479,0.03656,72.72062854,
0.03658,2.356952311,0.03658,73.08605883,
0.0366,0.5298008405,0.0366,72.72062854,
0.03662,1.260661429,0.03662,73.45148913,
0.03664,1.626091723,0.03664,72.72062854,
0.03666,1.260661429,0.03666,72.72062854,
0.03668,0.8952311347,0.03668,72.72062854,
0.0367,0.5298008405,0.0367,73.08605883,
0.03672,0.1643705463,0.03672,72.35519825,
0.03674,0.5298008405,0.03674,73.45148913,
0.03676,-0.566490042,0.03676,73.08605883,
0.03678,-0.9319203362,0.03678,72.35519825,
0.0368,-0.9319203362,0.0368,73.08605883,
0.03682,0.1643705463,0.03682,72.72062854,
0.03684,0.1643705463,0.03684,73.08605883,
0.03686,-0.2010597479,0.03686,73.08605883,
0.03688,0.8952311347,0.03688,72.72062854,
0.0369,-0.2010597479,0.0369,72.35519825,
0.03692,-0.2010597479,0.03692,73.08605883,
0.03694,0.5298008405,0.03694,73.81691942,
0.03696,-3.489932395,0.03696,72.35519825,
0.03698,-0.2010597479,0.03698,74.18234972,
0.037,-4.220792984,0.037,73.45148913,
0.03702,-2.393641513,0.03702,71.98976795,
0.03704,-3.489932395,0.03704,71.62433766,
0.03706,-2.393641513,0.03706,73.08605883,
0.03708,-2.759071807,0.03708,71.98976795,
0.0371,-0.9319203362,0.0371,73.08605883,
0.03712,-0.566490042,0.03712,73.08605883,
0.03714,-1.29735063,0.03714,72.35519825,
0.03716,-0.2010597479,0.03716,72.72062854,
0.03718,-0.9319203362,0.03718,73.08605883,
0.0372,-2.028211219,0.0372,73.08605883,
0.03722,-0.566490042,0.03722,73.08605883,
0.03724,-0.566490042,0.03724,72.72062854,
0.03726,-1.29735063,0.03726,72.35519825,
0.03728,-0.2010597479,0.03728,73.08605883,
0.0373,-0.566490042,0.0373,73.08605883,
0.03732,-0.2010597479,0.03732,72.72062854,
0.03734,1.991522017,0.03734,73.08605883,
0.03736,0.8952311347,0.03736,73.08605883,
0.03738,0.5298008405,0.03738,72.72062854,
0.0374,1.260661429,0.0374,73.45148913,
0.03742,-0.2010597479,0.03742,73.08605883,
0.03744,0.8952311347,0.03744,72.72062854,
0.03746,1.260661429,0.03746,72.72062854,
0.03748,-0.9319203362,0.03748,73.08605883,
0.0375,0.1643705463,0.0375,72.35519825,
0.03752,-0.566490042,0.03752,73.08605883,
0.03754,0.5298008405,0.03754,73.08605883,
0.03756,-0.566490042,0.03756,72.72062854,
0.03758,1.991522017,0.03758,73.08605883,
0.0376,1.991522017,0.0376,73.08605883,
0.03762,1.991522017,0.03762,72.72062854,
0.03764,1.991522017,0.03764,73.08605883,
0.03766,0.5298008405,0.03766,73.08605883,
0.03768,-0.9319203362,0.03768,72.72062854,
0.0377,0.5298008405,0.0377,72.72062854,
0.03772,-0.2010597479,0.03772,72.72062854,
0.03774,-1.29735063,0.03774,72.72062854,
0.03776,-0.566490042,0.03776,73.08605883,
0.03778,-0.9319203362,0.03778,73.08605883,
0.0378,-0.2010597479,0.0378,72.72062854,
0.03782,0.8952311347,0.03782,73.08605883,
0.03784,0.5298008405,0.03784,73.45148913,
0.03786,-0.566490042,0.03786,72.72062854,
0.03788,-2.028211219,0.03788,72.72062854,
0.0379,0.8952311347,0.0379,74.18234972,
0.03792,-0.9319203362,0.03792,72.35519825,
0.03794,-2.759071807,0.03794,73.08605883,
0.03796,-3.85536269,0.03796,73.08605883,
0.03798,-2.759071807,0.03798,72.35519825,
0.038,-2.393641513,0.038,73.08605883,
0.03802,-2.393641513,0.03802,72.35519825,
0.03804,-0.2010597479,0.03804,72.35519825,
0.03806,0.5298008405,0.03806,72.35519825,
0.03808,0.8952311347,0.03808,73.45148913,
0.0381,-0.2010597479,0.0381,72.72062854,
0.03812,-0.2010597479,0.03812,73.08605883,
0.03814,-0.566490042,0.03814,72.72062854,
0.03816,-0.9319203362,0.03816,72.72062854,
0.03818,-1.29735063,0.03818,73.08605883,
0.0382,-2.393641513,0.0382,73.08605883,
0.03822,-1.662780925,0.03822,72.35519825,
0.03824,-0.2010597479,0.03824,73.08605883,
0.03826,0.1643705463,0.03826,73.08605883,
0.03828,0.1643705463,0.03828,72.72062854,
0.0383,0.5298008405,0.0383,73.08605883,
0.03832,0.8952311347,0.03832,73.08605883,
0.03834,1.260661429,0.03834,72.72062854,
0.03836,0.8952311347,0.03836,73.08605883,
0.03838,0.8952311347,0.03838,73.08605883,
0.0384,-0.566490042,0.0384,73.08605883,
0.03842,0.1643705463,0.03842,73.08605883,
0.03844,-0.566490042,0.03844,72.72062854,
0.03846,-0.566490042,0.03846,72.72062854,
0.03848,-0.2010597479,0.03848,73.08605883,
0.0385,0.1643705463,0.0385,72.72062854,
0.03852,0.8952311347,0.03852,73.81691942,
0.03854,0.1643705463,0.03854,73.08605883,
0.03856,0.8952311347,0.03856,73.08605883,
0.03858,1.260661429,0.03858,73.81691942,
0.0386,2.356952311,0.0386,73.08605883,
0.03862,0.5298008405,0.03862,72.72062854,
0.03864,0.8952311347,0.03864,73.45148913,
0.03866,-0.2010597479,0.03866,73.45148913,
0.03868,-0.2010597479,0.03868,73.45148913,
0.0387,-0.2010597479,0.0387,73.45148913,
0.03872,-1.662780925,0.03872,73.45148913,
0.03874,-2.028211219,0.03874,72.72062854,
0.03876,-1.29735063,0.03876,73.08605883,
0.03878,-2.393641513,0.03878,73.08605883,
0.0388,0.5298008405,0.0388,72.72062854,
0.03882,0.8952311347,0.03882,73.81691942,
0.03884,-0.2010597479,0.03884,73.45148913,
0.03886,0.8952311347,0.03886,72.72062854,
0.03888,-1.29735063,0.03888,73.08605883,
0.0389,-2.393641513,0.0389,73.08605883,
0.03892,-2.759071807,0.03892,71.98976795,
0.03894,-4.586223278,0.03894,74.18234972,
0.03896,-2.393641513,0.03896,74.54778001,
0.03898,-2.393641513,0.03898,72.35519825,
0.039,-3.489932395,0.039,73.81691942,
0.03902,-2.028211219,0.03902,71.98976795,
0.03904,-0.9319203362,0.03904,73.81691942,
0.03906,-0.9319203362,0.03906,73.08605883,
0.03908,0.1643705463,0.03908,73.08605883,
0.0391,-1.29735063,0.0391,73.08605883,
0.03912,-0.9319203362,0.03912,73.81691942,
0.03914,-0.9319203362,0.03914,73.08605883,
0.03916,-1.662780925,0.03916,73.08605883,
0.03918,-1.29735063,0.03918,73.45148913,
0.0392,-2.028211219,0.0392,73.08605883,
0.03922,0.1643705463,0.03922,73.08605883,
0.03924,-0.9319203362,0.03924,73.45148913,
0.03926,-0.2010597479,0.03926,73.45148913,
0.03928,-0.2010597479,0.03928,73.08605883,
0.0393,1.626091723,0.0393,73.08605883,
0.03932,0.5298008405,0.03932,73.08605883,
0.03934,0.5298008405,0.03934,73.45148913,
0.03936,-0.2010597479,0.03936,72.72062854,
0.03938,-0.2010597479,0.03938,72.72062854,
0.0394,0.8952311347,0.0394,73.08605883,
0.03942,0.1643705463,0.03942,73.45148913,
0.03944,-0.566490042,0.03944,73.08605883,
0.03946,-0.2010597479,0.03946,73.08605883,
0.03948,-0.2010597479,0.03948,73.45148913,
0.0395,0.1643705463,0.0395,73.08605883,
0.03952,-0.566490042,0.03952,73.08605883,
0.03954,1.991522017,0.03954,73.08605883,
0.03956,1.991522017,0.03956,73.08605883,
0.03958,0.8952311347,0.03958,73.08605883,
0.0396,1.626091723,0.0396,73.08605883,
0.03962,0.5298008405,0.03962,73.08605883,
0.03964,0.1643705463,0.03964,72.72062854,
0.03966,0.1643705463,0.03966,73.45148913,
0.03968,-1.29735063,0.03968,73.08605883,
0.0397,-0.566490042,0.0397,72.35519825,
0.03972,-1.29735063,0.03972,73.08605883,
0.03974,-0.566490042,0.03974,73.08605883,
0.03976,0.1643705463,0.03976,72.72062854,
0.03978,1.260661429,0.03978,73.45148913,
0.0398,-0.2010597479,0.0398,73.08605883,
0.03982,-0.2010597479,0.03982,72.35519825,
0.03984,-0.9319203362,0.03984,74.18234972,
0.03986,-2.028211219,0.03986,73.45148913,
0.03988,-0.2010597479,0.03988,73.08605883,
0.0399,-0.566490042,0.0399,74.54778001,
0.03992,-4.586223278,0.03992,71.62433766,
0.03994,-2.393641513,0.03994,73.81691942,
0.03996,-1.662780925,0.03996,73.08605883,
0.03998,-2.759071807,0.03998,73.08605883,
0.04,-1.662780925,0.04,72.72062854,
0.04002,-0.9319203362,0.04002,74.18234972,
0.04004,-1.29735063,0.04004,72.72062854,
0.04006,-0.9319203362,0.04006,72.72062854,
0.04008,-1.29735063,0.04008,73.45148913,
0.0401,-2.393641513,0.0401,72.72062854,
0.04012,-0.566490042,0.04012,72.72062854,
0.04014,-1.29735063,0.04014,73.81691942,
0.04016,-1.29735063,0.04016,73.45148913,
0.04018,-1.29735063,0.04018,73.08605883,
0.0402,-0.566490042,0.0402,73.45148913,
0.04022,-0.9319203362,0.04022,73.08605883,
0.04024,-0.9319203362,0.04024,72.72062854,
0.04026,1.260661429,0.04026,73.08605883,
0.04028,0.5298008405,0.04028,73.08605883,
0.0403,0.8952311347,0.0403,72.72062854,
0.04032,-0.566490042,0.04032,73.45148913,
0.04034,0.1643705463,0.04034,73.08605883,
0.04036,0.5298008405,0.04036,73.45148913,
0.04038,-0.2010597479,0.04038,73.08605883,
0.0404,0.5298008405,0.0404,73.08605883,
0.04042,0.1643705463,0.04042,73.81691942,
0.04044,-0.566490042,0.04044,73.08605883,
0.04046,0.5298008405,0.04046,73.08605883,
0.04048,0.5298008405,0.04048,73.45148913,
0.0405,0.8952311347,0.0405,73.08605883,
0.04052,1.626091723,0.04052,73.08605883,
0.04054,0.8952311347,0.04054,73.81691942,
0.04056,2.722382606,0.04056,73.45148913,
0.04058,0.8952311347,0.04058,72.72062854,
0.0406,0.5298008405,0.0406,73.45148913,
0.04062,0.1643705463,0.04062,73.08605883,
0.04064,0.1643705463,0.04064,73.08605883,
0.04066,-0.566490042,0.04066,73.81691942,
0.04068,-2.759071807,0.04068,73.81691942,
0.0407,-0.566490042,0.0407,73.08605883,
0.04072,-0.9319203362,0.04072,73.08605883,
0.04074,0.1643705463,0.04074,73.45148913,
0.04076,0.5298008405,0.04076,73.08605883,
0.04078,1.260661429,0.04078,73.45148913,
0.0408,-1.29735063,0.0408,73.08605883,
0.04082,-0.566490042,0.04082,72.72062854,
0.04084,-0.2010597479,0.04084,73.08605883,
0.04086,-1.29735063,0.04086,71.62433766,
0.04088,0.1643705463,0.04088,72.72062854,
0.0409,-3.489932395,0.0409,71.98976795,
0.04092,-3.124502101,0.04092,73.45148913,
0.04094,-2.393641513,0.04094,73.45148913,
0.04096,0.1643705463,0.04096,72.72062854,
0.04098,-2.393641513,0.04098,73.08605883,
0.041,-0.566490042,0.041,72.72062854,
0.04102,-0.9319203362,0.04102,73.45148913,
0.04104,-0.2010597479,0.04104,73.08605883,
0.04106,-1.29735063,0.04106,73.08605883,
0.04108,-0.566490042,0.04108,73.45148913,
0.0411,-0.9319203362,0.0411,72.72062854,
0.04112,-2.393641513,0.04112,73.08605883,
0.04114,0.1643705463,0.04114,73.45148913,
0.04116,-1.662780925,0.04116,73.08605883,
0.04118,-2.028211219,0.04118,73.45148913,
0.0412,-0.566490042,0.0412,73.08605883,
0.04122,0.5298008405,0.04122,73.45148913,
0.04124,0.1643705463,0.04124,73.08605883,
0.04126,1.991522017,0.04126,73.81691942,
0.04128,0.1643705463,0.04128,73.08605883,
0.0413,0.5298008405,0.0413,73.08605883,
0.04132,-0.566490042,0.04132,73.45148913,
0.04134,-0.2010597479,0.04134,73.08605883,
0.04136,0.1643705463,0.04136,73.08605883,
0.04138,0.1643705463,0.04138,73.08605883,
0.0414,-0.9319203362,0.0414,73.08605883,
0.04142,0.5298008405,0.04142,73.08605883,
0.04144,0.8952311347,0.04144,73.45148913,
0.04146,0.5298008405,0.04146,73.08605883,
0.04148,0.8952311347,0.04148,73.08605883,
0.0415,1.260661429,0.0415,73.08605883,
0.04152,0.8952311347,0.04152,73.08605883,
0.04154,1.260661429,0.04154,73.08605883,
0.04156,0.8952311347,0.04156,73.45148913,
0.04158,-0.2010597479,0.04158,73.45148913,
0.0416,0.8952311347,0.0416,72.72062854,
0.04162,0.5298008405,0.04162,73.45148913,
0.04164,-1.29735063,0.04164,73.08605883,
0.04166,-1.662780925,0.04166,72.72062854,
0.04168,-0.566490042,0.04168,73.45148913,
0.0417,-1.29735063,0.0417,73.45148913,
0.04172,-0.2010597479,0.04172,72.72062854,
0.04174,2.356952311,0.04174,73.45148913,
0.04176,0.5298008405,0.04176,73.45148913,
0.04178,-0.566490042,0.04178,72.72062854,
0.0418,2.356952311,0.0418,74.54778001,
0.04182,-1.662780925,0.04182,71.98976795,
0.04184,-1.662780925,0.04184,73.08605883,
0.04186,-2.759071807,0.04186,73.45148913,
0.04188,-2.759071807,0.04188,73.08605883,
0.0419,-5.317083866,0.0419,73.45148913,
0.04192,-0.9319203362,0.04192,73.81691942,
0.04194,-3.124502101,0.04194,74.18234972,
0.04196,-0.566490042,0.04196,73.08605883,
0.04198,-2.028211219,0.04198,73.08605883,
0.042,-0.566490042,0.042,73.81691942,
0.04202,-0.566490042,0.04202,73.08605883,
0.04204,-0.566490042,0.04204,73.45148913,
0.04206,-2.028211219,0.04206,73.08605883,
0.04208,-0.9319203362,0.04208,72.72062854,
0.0421,-1.29735063,0.0421,73.81691942,
0.04212,-2.028211219,0.04212,72.72062854,
0.04214,-0.9319203362,0.04214,72.72062854,
0.04216,-1.29735063,0.04216,73.81691942,
0.04218,-0.9319203362,0.04218,73.08605883,
0.0422,1.260661429,0.0422,73.45148913,
0.04222,0.8952311347,0.04222,73.45148913,
0.04224,0.8952311347,0.04224,73.08605883,
0.04226,0.5298008405,0.04226,72.72062854,
0.04228,0.1643705463,0.04228,72.72062854,
0.0423,-0.2010597479,0.0423,73.45148913,
0.04232,0.1643705463,0.04232,73.08605883,
0.04234,-0.2010597479,0.04234,73.08605883,
0.04236,1.260661429,0.04236,73.45148913,
0.04238,0.8952311347,0.04238,73.08605883,
0.0424,-0.566490042,0.0424,72.72062854,
0.04242,0.8952311347,0.04242,72.35519825,
0.04244,1.260661429,0.04244,73.08605883,
0.04246,0.8952311347,0.04246,72.72062854,
0.04248,1.626091723,0.04248,73.08605883,
0.0425,2.356952311,0.0425,73.08605883,
0.04252,0.1643705463,0.04252,72.72062854,
0.04254,1.260661429,0.04254,73.08605883,
0.04256,0.8952311347,0.04256,73.08605883,
0.04258,-0.566490042,0.04258,72.72062854,
0.0426,-0.2010597479,0.0426,72.72062854,
0.04262,0.8952311347,0.04262,73.08605883,
0.04264,-1.662780925,0.04264,72.72062854,
0.04266,0.5298008405,0.04266,73.08605883,
0.04268,-1.29735063,0.04268,72.72062854,
0.0427,0.1643705463,0.0427,72.72062854,
0.04272,0.8952311347,0.04272,72.72062854,
0.04274,-0.2010597479,0.04274,73.45148913,
0.04276,-0.566490042,0.04276,71.98976795,
0.04278,3.0878129,0.04278,72.35519825,
0.0428,-1.662780925,0.0428,73.08605883,
0.04282,-1.662780925,0.04282,71.98976795,
0.04284,-2.393641513,0.04284,72.35519825,
0.04286,-0.9319203362,0.04286,74.18234972,
0.04288,-2.393641513,0.04288,72.35519825,
0.0429,-1.662780925,0.0429,72.72062854,
0.04292,-1.29735063,0.04292,73.08605883,
0.04294,-1.29735063,0.04294,73.08605883,
0.04296,-0.9319203362,0.04296,73.08605883,
0.04298,0.1643705463,0.04298,72.72062854,
0.043,-0.566490042,0.043,73.08605883,
0.04302,-0.2010597479,0.04302,72.72062854,
0.04304,-1.29735063,0.04304,73.08605883,
0.04306,-1.662780925,0.04306,73.08605883,
0.04308,-1.662780925,0.04308,73.08605883,
0.0431,-0.9319203362,0.0431,73.08605883,
0.04312,-0.566490042,0.04312,72.35519825,
0.04314,0.5298008405,0.04314,73.08605883,
0.04316,0.5298008405,0.04316,72.72062854,
0.04318,-0.2010597479,0.04318,72.72062854,
0.0432,0.5298008405,0.0432,73.08605883,
0.04322,1.626091723,0.04322,73.08605883,
0.04324,0.5298008405,0.04324,73.08605883,
0.04326,0.8952311347,0.04326,73.08605883,
0.04328,0.1643705463,0.04328,73.08605883,
0.0433,0.1643705463,0.0433,72.35519825,
0.04332,0.8952311347,0.04332,73.08605883,
0.04334,0.5298008405,0.04334,72.72062854,
0.04336,-0.2010597479,0.04336,72.72062854,
0.04338,-0.2010597479,0.04338,73.08605883,
0.0434,1.260661429,0.0434,73.45148913,
0.04342,0.5298008405,0.04342,72.72062854,
0.04344,1.260661429,0.04344,72.72062854,
0.04346,2.356952311,0.04346,72.72062854,
0.04348,0.8952311347,0.04348,72.72062854,
0.0435,1.991522017,0.0435,73.08605883,
0.04352,0.1643705463,0.04352,72.72062854,
0.04354,0.5298008405,0.04354,72.72062854,
0.04356,0.8952311347,0.04356,73.08605883,
0.04358,-0.566490042,0.04358,72.72062854,
0.0436,-0.566490042,0.0436,72.72062854,
0.04362,-1.662780925,0.04362,73.45148913,
0.04364,-0.566490042,0.04364,73.08605883,
0.04366,-0.566490042,0.04366,72.35519825,
0.04368,0.8952311347,0.04368,72.72062854,
0.0437,-0.2010597479,0.0437,73.81691942,
0.04372,-0.2010597479,0.04372,71.98976795,
0.04374,-2.028211219,0.04374,73.45148913,
0.04376,-0.566490042,0.04376,71.62433766,
0.04378,-2.393641513,0.04378,72.35519825,
0.0438,-1.662780925,0.0438,73.08605883,
0.04382,-3.85536269,0.04382,72.72062854,
0.04384,-5.317083866,0.04384,73.08605883,
0.04386,-0.566490042,0.04386,71.62433766,
0.04388,-1.29735063,0.04388,73.81691942,
0.0439,-0.9319203362,0.0439,72.72062854,
0.04392,-0.9319203362,0.04392,73.45148913,
0.04394,-0.2010597479,0.04394,73.08605883,
0.04396,0.1643705463,0.04396,72.35519825,
0.04398,0.8952311347,0.04398,73.45148913,
0.044,-0.9319203362,0.044,73.08605883,
0.04402,-0.9319203362,0.04402,72.72062854,
0.04404,-1.662780925,0.04404,73.45148913,
0.04406,-2.028211219,0.04406,73.08605883,
0.04408,-1.662780925,0.04408,73.45148913,
0.0441,-1.29735063,0.0441,73.08605883,
0.04412,-0.2010597479,0.04412,73.45148913,
0.04414,-0.2010597479,0.04414,72.72062854,
0.04416,0.5298008405,0.04416,73.08605883,
0.04418,0.5298008405,0.04418,73.45148913,
0.0442,0.8952311347,0.0442,73.45148913,
0.04422,-0.9319203362,0.04422,73.08605883,
0.04424,1.260661429,0.04424,73.45148913,
0.04426,1.260661429,0.04426,73.08605883,
0.04428,0.8952311347,0.04428,73.08605883,
0.0443,0.5298008405,0.0443,73.08605883,
0.04432,0.8952311347,0.04432,73.08605883,
0.04434,-0.2010597479,0.04434,73.45148913,
0.04436,-0.2010597479,0.04436,73.45148913,
0.04438,0.5298008405,0.04438,73.08605883,
0.0444,0.8952311347,0.0444,73.08605883,
0.04442,1.626091723,0.04442,73.08605883,
0.04444,1.626091723,0.04444,73.08605883,
0.04446,1.626091723,0.04446,73.45148913,
0.04448,0.5298008405,0.04448,73.45148913,
0.0445,-0.2010597479,0.0445,73.08605883,
0.04452,0.1643705463,0.04452,72.72062854,
0.04454,0.1643705463,0.04454,73.45148913,
0.04456,-0.9319203362,0.04456,73.08605883,
0.04458,-1.29735063,0.04458,72.72062854,
0.0446,-0.566490042,0.0446,73.08605883,
0.04462,-1.662780925,0.04462,72.72062854,
0.04464,-0.566490042,0.04464,72.72062854,
0.04466,0.1643705463,0.04466,73.45148913,
0.04468,-1.29735063,0.04468,73.45148913,
0.0447,0.5298008405,0.0447,73.08605883,
0.04472,1.260661429,0.04472,73.08605883,
0.04474,-2.393641513,0.04474,74.18234972,
0.04476,-2.028211219,0.04476,73.08605883,
0.04478,-0.566490042,0.04478,74.54778001,
0.0448,-3.85536269,0.0448,71.98976795,
0.04482,-3.85536269,0.04482,73.45148913,
0.04484,-0.566490042,0.04484,73.81691942,
0.04486,-3.124502101,0.04486,73.45148913,
0.04488,-2.393641513,0.04488,71.62433766,
0.0449,1.626091723,0.0449,72.72062854,
0.04492,0.5298008405,0.04492,72.72062854,
0.04494,0.5298008405,0.04494,72.72062854,
0.04496,-1.29735063,0.04496,73.45148913,
0.04498,-2.028211219,0.04498,72.72062854,
0.045,-1.662780925,0.045,72.72062854,
0.04502,-1.29735063,0.04502,73.45148913,
0.04504,-2.759071807,0.04504,72.72062854,
0.04506,-1.662780925,0.04506,73.08605883,
0.04508,-0.9319203362,0.04508,73.08605883,
0.0451,-0.566490042,0.0451,72.72062854,
0.04512,0.1643705463,0.04512,73.08605883,
0.04514,0.5298008405,0.04514,73.81691942,
0.04516,0.8952311347,0.04516,73.08605883,
0.04518,0.5298008405,0.04518,72.72062854,
0.0452,-0.566490042,0.0452,73.45148913,
0.04522,-0.566490042,0.04522,73.08605883,
0.04524,-0.566490042,0.04524,73.08605883,
0.04526,0.1643705463,0.04526,73.45148913,
0.04528,-0.566490042,0.04528,73.08605883,
0.0453,0.5298008405,0.0453,72.35519825,
0.04532,0.1643705463,0.04532,73.81691942,
0.04534,-0.2010597479,0.04534,73.08605883,
0.04536,0.8952311347,0.04536,72.72062854,
0.04538,0.8952311347,0.04538,73.45148913,
0.0454,1.991522017,0.0454,73.08605883,
0.04542,0.8952311347,0.04542,73.08605883,
0.04544,1.260661429,0.04544,73.45148913,
0.04546,0.8952311347,0.04546,73.08605883,
0.04548,-0.2010597479,0.04548,72.35519825,
0.0455,0.5298008405,0.0455,73.81691942,
0.04552,0.1643705463,0.04552,72.72062854,
0.04554,-0.2010597479,0.04554,72.72062854,
0.04556,-0.9319203362,0.04556,73.45148913,
0.04558,-1.662780925,0.04558,73.81691942,
0.0456,-0.9319203362,0.0456,72.72062854,
0.04562,0.1643705463,0.04562,73.45148913,
0.04564,0.1643705463,0.04564,73.45148913,
0.04566,0.8952311347,0.04566,73.45148913,
0.04568,0.1643705463,0.04568,74.18234972,
0.0457,0.5298008405,0.0457,72.72062854,
0.04572,-2.028211219,0.04572,73.45148913,
0.04574,-3.489932395,0.04574,71.98976795,
0.04576,-2.759071807,0.04576,73.45148913,
0.04578,-3.489932395,0.04578,74.54778001,
0.0458,-2.393641513,0.0458,72.35519825,
0.04582,-4.586223278,0.04582,73.08605883,
0.04584,-3.489932395,0.04584,74.18234972,
0.04586,-0.9319203362,0.04586,73.81691942,
0.04588,-0.2010597479,0.04588,73.45148913,
0.0459,-0.2010597479,0.0459,72.72062854,
0.04592,0.1643705463,0.04592,73.45148913,
0.04594,-1.662780925,0.04594,73.45148913,
0.04596,-1.662780925,0.04596,72.72062854,
0.04598,-0.9319203362,0.04598,73.45148913,
0.046,-1.662780925,0.046,73.45148913,
0.04602,-2.028211219,0.04602,72.35519825,
0.04604,-0.566490042,0.04604,73.81691942,
0.04606,-1.29735063,0.04606,72.72062854,
0.04608,-0.2010597479,0.04608,73.45148913,
0.0461,1.260661429,0.0461,73.08605883,
0.04612,0.8952311347,0.04612,72.72062854,
0.04614,1.260661429,0.04614,73.45148913,
0.04616,0.8952311347,0.04616,73.08605883,
0.04618,0.1643705463,0.04618,73.45148913,
0.0462,1.626091723,0.0462,72.72062854,
0.04622,-0.2010597479,0.04622,73.45148913,
0.04624,0.1643705463,0.04624,73.08605883,
0.04626,1.260661429,0.04626,72.72062854,
0.04628,-0.2010597479,0.04628,73.08605883,
0.0463,0.1643705463,0.0463,73.08605883,
0.04632,0.8952311347,0.04632,73.08605883,
0.04634,0.8952311347,0.04634,73.08605883,
0.04636,0.8952311347,0.04636,73.08605883,
0.04638,1.991522017,0.04638,72.72062854,
0.0464,1.260661429,0.0464,73.81691942,
0.04642,0.8952311347,0.04642,73.45148913,
0.04644,1.260661429,0.04644,73.08605883,
0.04646,0.5298008405,0.04646,73.45148913,
0.04648,0.1643705463,0.04648,73.45148913,
0.0465,0.5298008405,0.0465,73.08605883,
0.04652,-0.2010597479,0.04652,73.81691942,
0.04654,-0.9319203362,0.04654,73.45148913,
0.04656,-1.29735063,0.04656,73.08605883,
0.04658,-0.566490042,0.04658,73.45148913,
0.0466,-0.566490042,0.0466,73.08605883,
0.04662,1.260661429,0.04662,73.45148913,
0.04664,-0.566490042,0.04664,73.81691942,
0.04666,-1.29735063,0.04666,72.72062854,
0.04668,0.8952311347,0.04668,71.62433766,
0.0467,-0.2010597479,0.0467,72.72062854,
0.04672,0.5298008405,0.04672,72.35519825,
0.04674,-2.759071807,0.04674,71.62433766,
0.04676,-3.85536269,0.04676,72.72062854,
0.04678,-4.586223278,0.04678,72.35519825,
0.0468,-2.028211219,0.0468,72.72062854,
0.04682,-0.9319203362,0.04682,73.81691942,
0.04684,-2.393641513,0.04684,73.45148913,
0.04686,1.260661429,0.04686,73.45148913,
0.04688,0.1643705463,0.04688,73.45148913,
0.0469,-2.028211219,0.0469,73.08605883,
0.04692,-1.29735063,0.04692,73.08605883,
0.04694,-0.9319203362,0.04694,73.45148913,
0.04696,-1.662780925,0.04696,73.45148913,
0.04698,-1.29735063,0.04698,72.72062854,
0.047,-0.566490042,0.047,73.08605883,
0.04702,-0.9319203362,0.04702,73.08605883,
0.04704,-0.566490042,0.04704,72.72062854,
0.04706,-0.2010597479,0.04706,73.45148913,
0.04708,0.5298008405,0.04708,73.81691942,
0.0471,0.8952311347,0.0471,73.45148913,
0.04712,0.5298008405,0.04712,73.81691942,
0.04714,-0.566490042,0.04714,73.45148913,
0.04716,0.8952311347,0.04716,72.72062854,
0.04718,-0.2010597479,0.04718,73.81691942,
0.0472,-0.566490042,0.0472,73.08605883,
0.04722,-0.566490042,0.04722,73.08605883,
0.04724,0.1643705463,0.04724,73.45148913,
0.04726,0.1643705463,0.04726,73.45148913,
0.04728,-0.9319203362,0.04728,73.45148913,
0.0473,-0.2010597479,0.0473,73.45148913,
0.04732,1.260661429,0.04732,73.45148913,
0.04734,1.991522017,0.04734,73.08605883,
0.04736,2.722382606,0.04736,73.81691942,
0.04738,1.260661429,0.04738,73.81691942,
0.0474,2.356952311,0.0474,73.08605883,
0.04742,0.5298008405,0.04742,73.45148913,
0.04744,0.5298008405,0.04744,73.08605883,
0.04746,0.8952311347,0.04746,72.72062854,
0.04748,0.1643705463,0.04748,73.08605883,
0.0475,-0.9319203362,0.0475,73.08605883,
0.04752,-0.566490042,0.04752,73.08605883,
0.04754,-0.9319203362,0.04754,73.08605883,
0.04756,0.1643705463,0.04756,73.45148913,
0.04758,0.8952311347,0.04758,72.72062854,
0.0476,1.260661429,0.0476,73.45148913,
0.04762,0.8952311347,0.04762,73.08605883,
0.04764,-0.9319203362,0.04764,72.72062854,
0.04766,-1.29735063,0.04766,73.08605883,
0.04768,-0.2010597479,0.04768,73.08605883,
0.0477,-0.2010597479,0.0477,71.62433766,
0.04772,-4.220792984,0.04772,73.81691942,
0.04774,-1.662780925,0.04774,73.45148913,
0.04776,-0.9319203362,0.04776,72.35519825,
0.04778,-2.393641513,0.04778,73.45148913,
0.0478,-2.759071807,0.0478,73.08605883,
0.04782,0.8952311347,0.04782,73.45148913,
0.04784,0.5298008405,0.04784,73.81691942,
0.04786,-0.2010597479,0.04786,72.72062854,
0.04788,-0.566490042,0.04788,73.08605883,
0.0479,-1.29735063,0.0479,73.81691942,
0.04792,-0.9319203362,0.04792,73.08605883,
0.04794,-0.566490042,0.04794,73.08605883,
0.04796,-1.662780925,0.04796,73.45148913,
0.04798,0.1643705463,0.04798,72.72062854,
0.048,-0.9319203362,0.048,73.08605883,
0.04802,0.1643705463,0.04802,72.35519825,
0.04804,0.5298008405,0.04804,73.45148913,
0.04806,0.5298008405,0.04806,73.08605883,
0.04808,0.5298008405,0.04808,72.72062854,
0.0481,1.991522017,0.0481,73.08605883,
0.04812,0.1643705463,0.04812,73.08605883,
0.04814,-0.9319203362,0.04814,72.72062854,
0.04816,0.1643705463,0.04816,72.72062854,
0.04818,0.1643705463,0.04818,73.45148913,
0.0482,-0.9319203362,0.0482,72.35519825,
0.04822,1.260661429,0.04822,72.72062854,
0.04824,0.1643705463,0.04824,73.08605883,
0.04826,-0.9319203362,0.04826,72.72062854,
0.04828,0.1643705463,0.04828,73.08605883,
0.0483,0.8952311347,0.0483,73.08605883,
0.04832,0.8952311347,0.04832,72.72062854,
0.04834,2.722382606,0.04834,72.72062854,
0.04836,1.626091723,0.04836,72.72062854,
0.04838,1.260661429,0.04838,72.72062854,
0.0484,1.260661429,0.0484,73.08605883,
0.04842,-0.2010597479,0.04842,73.08605883,
0.04844,0.1643705463,0.04844,72.72062854,
0.04846,0.5298008405,0.04846,72.72062854,
0.04848,-1.29735063,0.04848,73.08605883,
0.0485,-1.29735063,0.0485,72.72062854,
0.04852,-0.2010597479,0.04852,72.72062854,
0.04854,0.5298008405,0.04854,73.08605883,
0.04856,0.8952311347,0.04856,72.72062854,
0.04858,1.260661429,0.04858,73.08605883,
0.0486,0.1643705463,0.0486,73.45148913,
0.04862,-0.2010597479,0.04862,72.72062854,
0.04864,-0.2010597479,0.04864,71.62433766,
0.04866,-0.2010597479,0.04866,73.08605883,
0.04868,-3.489932395,0.04868,72.35519825,
0.0487,0.1643705463,0.0487,74.54778001,
0.04872,-0.2010597479,0.04872,71.25890736,
0.04874,-2.393641513,0.04874,73.08605883,
0.04876,0.8952311347,0.04876,72.72062854,
0.04878,-1.662780925,0.04878,73.45148913,
0.0488,-0.566490042,0.0488,72.35519825,
0.04882,-0.2010597479,0.04882,73.08605883,
0.04884,0.8952311347,0.04884,73.08605883,
0.04886,-0.566490042,0.04886,72.72062854,
0.04888,-0.9319203362,0.04888,73.45148913,
0.0489,-1.29735063,0.0489,72.72062854,
0.04892,-1.662780925,0.04892,72.72062854,
0.04894,-1.662780925,0.04894,73.08605883,
0.04896,-1.662780925,0.04896,73.08605883,
0.04898,-0.9319203362,0.04898,72.35519825,
0.049,-0.566490042,0.049,72.72062854,
0.04902,-0.2010597479,0.04902,73.08605883,
0.04904,0.5298008405,0.04904,72.72062854,
0.04906,1.260661429,0.04906,73.08605883,
0.04908,1.260661429,0.04908,73.45148913,
0.0491,0.8952311347,0.0491,72.72062854,
0.04912,0.5298008405,0.04912,72.72062854,
0.04914,0.1643705463,0.04914,73.45148913,
0.04916,-0.2010597479,0.04916,72.72062854,
0.04918,1.260661429,0.04918,73.08605883,
0.0492,0.1643705463,0.0492,73.45148913,
0.04922,-1.29735063,0.04922,72.35519825,
0.04924,0.5298008405,0.04924,73.08605883,
0.04926,0.5298008405,0.04926,72.72062854,
0.04928,0.5298008405,0.04928,73.45148913,
0.0493,0.8952311347,0.0493,73.45148913,
0.04932,1.991522017,0.04932,73.08605883,
0.04934,1.626091723,0.04934,73.45148913,
0.04936,0.5298008405,0.04936,73.81691942,
0.04938,1.991522017,0.04938,73.08605883,
0.0494,0.8952311347,0.0494,73.45148913,
0.04942,0.5298008405,0.04942,73.08605883,
0.04944,0.1643705463,0.04944,73.08605883,
0.04946,-0.566490042,0.04946,73.45148913,
0.04948,-0.9319203362,0.04948,73.08605883,
0.0495,-0.2010597479,0.0495,73.45148913,
0.04952,-0.2010597479,0.04952,73.45148913,
0.04954,-0.9319203362,0.04954,73.08605883,
0.04956,1.991522017,0.04956,73.08605883,
0.04958,-0.2010597479,0.04958,73.45148913,
0.0496,-0.2010597479,0.0496,73.81691942,
0.04962,-0.566490042,0.04962,73.81691942,
0.04964,-2.759071807,0.04964,73.45148913,
0.04966,-2.028211219,0.04966,73.81691942,
0.04968,-3.85536269,0.04968,73.81691942,
0.0497,-2.393641513,0.0497,73.08605883,
0.04972,-1.29735063,0.04972,73.45148913,
0.04974,-2.759071807,0.04974,73.45148913,
0.04976,-1.662780925,0.04976,73.08605883,
0.04978,-0.566490042,0.04978,72.35519825,
0.0498,-0.2010597479,0.0498,73.81691942,
0.04982,-0.9319203362,0.04982,72.72062854,
0.04984,-1.29735063,0.04984,72.72062854,
0.04986,-1.662780925,0.04986,73.45148913,
0.04988,-0.9319203362,0.04988,73.08605883,
0.0499,-1.662780925,0.0499,73.08605883,
0.04992,-2.028211219,0.04992,73.08605883,
0.04994,-2.028211219,0.04994,73.08605883,
0.04996,-0.2010597479,0.04996,72.72062854,
0.04998,-0.566490042,0.04998,73.45148913,
0.05,-0.2010597479,0.05,72.72062854,
0.05002,0.8952311347,0.05002,73.08605883,
0.05004,1.991522017,0.05004,73.45148913,
0.05006,0.5298008405,0.05006,72.72062854,
0.05008,1.260661429,0.05008,72.72062854,
0.0501,0.5298008405,0.0501,73.08605883,
0.05012,-0.566490042,0.05012,73.45148913,
0.05014,0.8952311347,0.05014,72.72062854,
0.05016,0.1643705463,0.05016,73.45148913,
0.05018,-0.2010597479,0.05018,73.45148913,
0.0502,0.1643705463,0.0502,72.72062854,
0.05022,-0.566490042,0.05022,73.45148913,
0.05024,0.8952311347,0.05024,73.08605883,
0.05026,0.5298008405,0.05026,73.45148913,
0.05028,2.356952311,0.05028,73.45148913,
0.0503,0.5298008405,0.0503,72.72062854,
0.05032,1.260661429,0.05032,73.08605883,
0.05034,0.8952311347,0.05034,73.45148913,
0.05036,-0.9319203362,0.05036,73.08605883,
0.05038,0.5298008405,0.05038,73.08605883,
0.0504,1.260661429,0.0504,73.45148913,
0.05042,-2.028211219,0.05042,73.08605883,
0.05044,-0.566490042,0.05044,73.08605883,
0.05046,-0.9319203362,0.05046,73.45148913,
0.05048,-0.9319203362,0.05048,72.35519825,
0.0505,-0.2010597479,0.0505,72.72062854,
0.05052,2.356952311,0.05052,72.72062854,
0.05054,-0.9319203362,0.05054,73.45148913,
0.05056,-0.2010597479,0.05056,73.08605883,
0.05058,0.1643705463,0.05058,73.81691942,
0.0506,0.5298008405,0.0506,73.08605883,
0.05062,-3.489932395,0.05062,72.72062854,
0.05064,0.1643705463,0.05064,73.08605883,
0.05066,-3.85536269,0.05066,72.72062854,
0.05068,-0.566490042,0.05068,71.98976795,
0.0507,-0.566490042,0.0507,73.08605883,
0.05072,-3.85536269,0.05072,73.45148913,
0.05074,-1.662780925,0.05074,73.45148913,
0.05076,0.5298008405,0.05076,73.45148913,
0.05078,-0.2010597479,0.05078,73.08605883,
0.0508,-0.9319203362,0.0508,72.72062854,
0.05082,-0.2010597479,0.05082,73.08605883,
0.05084,-0.9319203362,0.05084,73.08605883,
0.05086,-0.9319203362,0.05086,72.72062854,
0.05088,-1.29735063,0.05088,73.45148913,
0.0509,-1.29735063,0.0509,72.72062854,
0.05092,-1.29735063,0.05092,72.72062854,
0.05094,0.1643705463,0.05094,73.81691942,
0.05096,-0.2010597479,0.05096,73.08605883,
0.05098,-0.566490042,0.05098,72.72062854,
0.051,0.8952311347,0.051,73.45148913,
0.05102,0.5298008405,0.05102,73.08605883,
0.05104,0.8952311347,0.05104,73.08605883,
0.05106,0.1643705463,0.05106,73.45148913,
0.05108,0.1643705463,0.05108,72.72062854,
0.0511,0.8952311347,0.0511,72.72062854,
0.05112,-0.9319203362,0.05112,73.45148913,
0.05114,-0.2010597479,0.05114,73.08605883,
0.05116,-0.566490042,0.05116,72.35519825,
0.05118,1.260661429,0.05118,73.45148913,
0.0512,-0.566490042,0.0512,72.72062854,
0.05122,0.5298008405,0.05122,72.72062854,
0.05124,1.626091723,0.05124,73.45148913,
0.05126,0.8952311347,0.05126,72.72062854,
0.05128,1.991522017,0.05128,72.72062854,
0.0513,1.626091723,0.0513,73.81691942,
0.05132,1.260661429,0.05132,73.08605883,
0.05134,0.8952311347,0.05134,73.08605883,
0.05136,0.8952311347,0.05136,73.81691942,
0.05138,-0.2010597479,0.05138,72.72062854,
0.0514,-1.29735063,0.0514,73.08605883,
0.05142,-0.2010597479,0.05142,73.45148913,
0.05144,-1.29735063,0.05144,73.08605883,
0.05146,-0.566490042,0.05146,72.72062854,
0.05148,0.1643705463,0.05148,73.45148913,
0.0515,0.5298008405,0.0515,73.08605883,
0.05152,1.991522017,0.05152,72.72062854,
0.05154,-0.9319203362,0.05154,73.08605883,
0.05156,-3.124502101,0.05156,72.72062854,
0.05158,-1.662780925,0.05158,72.35519825,
0.0516,-2.759071807,0.0516,73.81691942,
0.05162,-2.759071807,0.05162,73.08605883,
0.05164,-2.028211219,0.05164,72.35519825,
0.05166,-3.124502101,0.05166,73.45148913,
0.05168,-2.393641513,0.05168,72.35519825,
0.0517,-2.028211219,0.0517,71.98976795,
0.05172,1.260661429,0.05172,73.81691942,
0.05174,-1.662780925,0.05174,73.08605883,
0.05176,-0.2010597479,0.05176,72.35519825,
0.05178,0.8952311347,0.05178,73.45148913,
0.0518,-0.9319203362,0.0518,73.45148913,
0.05182,-1.662780925,0.05182,73.08605883,
0.05184,-0.2010597479,0.05184,73.45148913,
0.05186,-1.29735063,0.05186,73.08605883,
0.05188,-1.29735063,0.05188,72.72062854,
0.0519,-0.9319203362,0.0519,73.08605883,
0.05192,-1.29735063,0.05192,73.08605883,
0.05194,-0.2010597479,0.05194,72.72062854,
0.05196,0.1643705463,0.05196,73.08605883,
0.05198,-0.2010597479,0.05198,73.45148913,
0.052,1.626091723,0.052,72.35519825,
0.05202,0.5298008405,0.05202,73.45148913,
0.05204,1.260661429,0.05204,73.45148913,
0.05206,0.8952311347,0.05206,73.08605883,
0.05208,0.8952311347,0.05208,74.18234972,
0.0521,0.5298008405,0.0521,73.08605883,
0.05212,0.8952311347,0.05212,73.45148913,
0.05214,0.8952311347,0.05214,73.45148913,
0.05216,0.1643705463,0.05216,73.45148913,
0.05218,1.260661429,0.05218,72.72062854,
0.0522,-0.2010597479,0.0522,73.45148913,
0.05222,0.5298008405,0.05222,73.08605883,
0.05224,1.991522017,0.05224,73.08605883,
0.05226,1.260661429,0.05226,73.08605883,
0.05228,1.260661429,0.05228,73.08605883,
0.0523,2.356952311,0.0523,72.72062854,
0.05232,1.260661429,0.05232,73.45148913,
0.05234,0.1643705463,0.05234,73.45148913,
0.05236,0.8952311347,0.05236,72.72062854,
0.05238,0.1643705463,0.05238,73.45148913,
0.0524,-1.29735063,0.0524,73.08605883,
0.05242,-0.2010597479,0.05242,73.08605883,
0.05244,-0.566490042,0.05244,73.45148913,
0.05246,0.1643705463,0.05246,73.08605883,
0.05248,3.0878129,0.05248,73.08605883,
0.0525,-0.9319203362,0.0525,74.18234972,
0.05252,-1.662780925,0.05252,73.08605883,
0.05254,-1.662780925,0.05254,72.35519825,
0.05256,-0.566490042,0.05256,72.72062854,
0.05258,-0.2010597479,0.05258,74.18234972,
0.0526,1.991522017,0.0526,71.98976795,
0.05262,-4.586223278,0.05262,74.18234972,
0.05264,-5.317083866,0.05264,73.45148913,
0.05266,-1.29735063,0.05266,71.98976795,
0.05268,-2.028211219,0.05268,73.81691942,
0.0527,-1.29735063,0.0527,73.45148913,
0.05272,0.1643705463,0.05272,73.08605883,
0.05274,0.5298008405,0.05274,73.45148913,
0.05276,0.5298008405,0.05276,73.08605883,
0.05278,-0.2010597479,0.05278,73.45148913,
0.0528,-0.566490042,0.0528,73.08605883,
0.05282,-1.662780925,0.05282,72.72062854,
0.05284,-0.566490042,0.05284,73.08605883,
0.05286,-1.29735063,0.05286,73.81691942,
0.05288,-1.662780925,0.05288,72.72062854,
0.0529,0.1643705463,0.0529,72.72062854,
0.05292,0.8952311347,0.05292,73.08605883,
0.05294,0.8952311347,0.05294,73.45148913,
0.05296,0.8952311347,0.05296,73.08605883,
0.05298,1.260661429,0.05298,73.81691942,
0.053,-0.566490042,0.053,73.45148913,
0.05302,0.8952311347,0.05302,73.08605883,
0.05304,0.5298008405,0.05304,73.45148913,
0.05306,0.1643705463,0.05306,72.72062854,
0.05308,0.8952311347,0.05308,72.72062854,
0.0531,-0.566490042,0.0531,73.81691942,
0.05312,-0.2010597479,0.05312,72.72062854,
0.05314,0.5298008405,0.05314,72.72062854,
0.05316,-0.2010597479,0.05316,73.81691942,
0.05318,0.1643705463,0.05318,73.08605883,
0.0532,1.991522017,0.0532,73.08605883,
0.05322,1.260661429,0.05322,73.45148913,
0.05324,1.260661429,0.05324,73.08605883,
0.05326,1.626091723,0.05326,73.45148913,
0.05328,0.8952311347,0.05328,73.81691942,
0.0533,-0.2010597479,0.0533,73.45148913,
0.05332,0.8952311347,0.05332,73.08605883,
0.05334,-0.2010597479,0.05334,73.45148913,
0.05336,-0.566490042,0.05336,73.45148913,
0.05338,-0.566490042,0.05338,73.08605883,
0.0534,-1.29735063,0.0534,73.81691942,
0.05342,-0.9319203362,0.05342,73.08605883,
0.05344,0.1643705463,0.05344,73.08605883,
0.05346,1.260661429,0.05346,73.08605883,
0.05348,0.5298008405,0.05348,73.45148913,
0.0535,0.1643705463,0.0535,73.08605883,
0.05352,-0.2010597479,0.05352,73.45148913,
0.05354,-1.29735063,0.05354,73.45148913,
0.05356,-0.9319203362,0.05356,73.45148913,
0.05358,1.260661429,0.05358,73.81691942,
0.0536,-3.85536269,0.0536,72.72062854,
0.05362,-0.566490042,0.05362,73.81691942,
0.05364,-3.124502101,0.05364,73.08605883,
0.05366,-2.028211219,0.05366,73.08605883,
0.05368,0.8952311347,0.05368,72.35519825,
0.0537,0.1643705463,0.0537,72.35519825,
0.05372,0.5298008405,0.05372,73.08605883,
0.05374,-0.2010597479,0.05374,72.72062854,
0.05376,-0.9319203362,0.05376,72.35519825,
0.05378,-0.9319203362,0.05378,72.72062854,
0.0538,-0.566490042,0.0538,73.08605883,
0.05382,-1.29735063,0.05382,72.72062854,
0.05384,-0.9319203362,0.05384,73.45148913,
0.05386,-0.9319203362,0.05386,73.08605883,
0.05388,-0.9319203362,0.05388,72.72062854,
0.0539,-2.028211219,0.0539,73.08605883,
0.05392,0.1643705463,0.05392,73.45148913,
0.05394,1.260661429,0.05394,72.72062854,
0.05396,1.626091723,0.05396,73.08605883,
0.05398,1.626091723,0.05398,72.72062854,
0.054,0.5298008405,0.054,72.72062854,
0.05402,-0.2010597479,0.05402,73.08605883,
0.05404,0.8952311347,0.05404,73.45148913,
0.05406,-0.566490042,0.05406,72.72062854,
0.05408,0.1643705463,0.05408,72.72062854,
0.0541,0.1643705463,0.0541,72.72062854,
0.05412,-0.566490042,0.05412,72.35519825,
0.05414,0.5298008405,0.05414,73.08605883,
0.05416,0.1643705463,0.05416,73.45148913,
0.05418,1.260661429,0.05418,72.72062854,
0.0542,2.356952311,0.0542,72.72062854,
0.05422,1.991522017,0.05422,73.08605883,
0.05424,1.626091723,0.05424,72.35519825,
0.05426,1.626091723,0.05426,73.08605883,
0.05428,1.260661429,0.05428,72.72062854,
0.0543,0.1643705463,0.0543,73.08605883,
0.05432,0.5298008405,0.05432,72.72062854,
0.05434,-0.566490042,0.05434,73.45148913,
0.05436,-1.29735063,0.05436,73.08605883,
0.05438,-0.566490042,0.05438,72.72062854,
0.0544,-0.2010597479,0.0544,72.72062854,
0.05442,1.626091723,0.05442,73.08605883,
0.05444,0.5298008405,0.05444,73.08605883,
0.05446,2.356952311,0.05446,73.45148913,
0.05448,2.722382606,0.05448,72.72062854,
0.0545,1.626091723,0.0545,74.18234972,
0.05452,-2.028211219,0.05452,73.81691942,
0.05454,-3.124502101,0.05454,71.98976795,
0.05456,1.991522017,0.05456,71.98976795,
0.05458,-3.124502101,0.05458,72.72062854,
0.0546,-2.759071807,0.0546,73.08605883,
0.05462,-1.662780925,0.05462,71.98976795,
0.05464,-0.9319203362,0.05464,73.45148913,
0.05466,0.1643705463,0.05466,73.08605883,
0.05468,0.8952311347,0.05468,72.72062854,
0.0547,-0.9319203362,0.0547,73.45148913,
0.05472,-1.29735063,0.05472,73.45148913,
0.05474,-1.662780925,0.05474,73.08605883,
0.05476,-1.662780925,0.05476,73.08605883,
0.05478,-2.393641513,0.05478,73.08605883,
0.0548,-3.124502101,0.0548,73.08605883,
0.05482,-1.29735063,0.05482,72.72062854,
0.05484,-0.566490042,0.05484,73.08605883,
0.05486,-1.29735063,0.05486,73.45148913,
0.05488,0.5298008405,0.05488,73.45148913,
0.0549,1.260661429,0.0549,73.81691942,
0.05492,0.5298008405,0.05492,73.08605883,
0.05494,1.626091723,0.05494,72.72062854,
0.05496,1.991522017,0.05496,73.08605883,
0.05498,0.5298008405,0.05498,73.08605883,
0.055,1.260661429,0.055,73.08605883,
0.05502,0.1643705463,0.05502,73.81691942,
0.05504,-0.2010597479,0.05504,72.72062854,
0.05506,-0.2010597479,0.05506,73.08605883,
0.05508,0.5298008405,0.05508,73.45148913,
0.0551,-0.9319203362,0.0551,73.08605883,
0.05512,0.8952311347,0.05512,73.08605883,
0.05514,1.991522017,0.05514,73.81691942,
0.05516,0.8952311347,0.05516,73.08605883,
0.05518,1.260661429,0.05518,73.08605883,
0.0552,1.626091723,0.0552,73.45148913,
0.05522,0.8952311347,0.05522,73.08605883,
0.05524,0.1643705463,0.05524,73.08605883,
0.05526,0.5298008405,0.05526,73.81691942,
0.05528,1.260661429,0.05528,73.08605883,
0.0553,-0.2010597479,0.0553,72.72062854,
0.05532,-1.29735063,0.05532,73.45148913,
0.05534,-1.662780925,0.05534,73.08605883,
0.05536,-0.9319203362,0.05536,73.08605883,
0.05538,0.5298008405,0.05538,73.08605883,
0.0554,0.1643705463,0.0554,72.35519825,
0.05542,0.8952311347,0.05542,72.72062854,
0.05544,0.5298008405,0.05544,73.08605883,
0.05546,-2.028211219,0.05546,72.35519825,
0.05548,-0.566490042,0.05548,73.45148913,
0.0555,-1.29735063,0.0555,73.08605883,
0.05552,-2.759071807,0.05552,72.72062854,
0.05554,-0.2010597479,0.05554,73.45148913,
0.05556,-2.759071807,0.05556,74.18234972,
0.05558,-3.85536269,0.05558,71.62433766,
0.0556,-2.393641513,0.0556,73.81691942,
0.05562,-2.028211219,0.05562,73.45148913,
0.05564,-0.2010597479,0.05564,72.72062854,
0.05566,-0.566490042,0.05566,73.08605883,
0.05568,-0.2010597479,0.05568,73.08605883,
0.0557,-1.29735063,0.0557,73.08605883,
0.05572,-0.2010597479,0.05572,72.72062854,
0.05574,-0.566490042,0.05574,73.08605883,
0.05576,-2.028211219,0.05576,73.45148913,
0.05578,-0.2010597479,0.05578,72.72062854,
0.0558,-0.9319203362,0.0558,73.08605883,
0.05582,-1.662780925,0.05582,73.08605883,
0.05584,-0.9319203362,0.05584,72.72062854,
0.05586,1.260661429,0.05586,73.45148913,
0.05588,0.5298008405,0.05588,72.72062854,
0.0559,1.260661429,0.0559,73.08605883,
0.05592,1.626091723,0.05592,73.08605883,
0.05594,0.1643705463,0.05594,73.45148913,
0.05596,0.8952311347,0.05596,73.45148913,
0.05598,0.1643705463,0.05598,73.08605883,
0.056,-0.9319203362,0.056,73.08605883,
0.05602,-0.566490042,0.05602,73.08605883,
0.05604,-0.2010597479,0.05604,73.45148913,
0.05606,0.1643705463,0.05606,73.08605883,
0.05608,0.1643705463,0.05608,72.72062854,
0.0561,-0.2010597479,0.0561,73.45148913,
0.05612,0.5298008405,0.05612,73.45148913,
0.05614,1.991522017,0.05614,73.81691942,
0.05616,1.991522017,0.05616,73.45148913,
0.05618,0.8952311347,0.05618,73.45148913,
0.0562,0.8952311347,0.0562,73.08605883,
0.05622,0.8952311347,0.05622,73.45148913,
0.05624,0.5298008405,0.05624,73.45148913,
0.05626,1.260661429,0.05626,72.72062854,
0.05628,-0.2010597479,0.05628,73.08605883,
0.0563,-1.662780925,0.0563,73.08605883,
0.05632,-0.2010597479,0.05632,73.08605883,
0.05634,-0.566490042,0.05634,73.08605883,
0.05636,-0.566490042,0.05636,73.45148913,
0.05638,1.991522017,0.05638,73.45148913,
0.0564,0.5298008405,0.0564,73.81691942,
0.05642,-0.2010597479,0.05642,73.08605883,
0.05644,-1.662780925,0.05644,72.72062854,
0.05646,-0.566490042,0.05646,72.72062854,
0.05648,-1.662780925,0.05648,71.98976795,
0.0565,-3.124502101,0.0565,73.81691942,
0.05652,-0.9319203362,0.05652,73.45148913,
0.05654,-4.586223278,0.05654,71.62433766,
0.05656,-2.393641513,0.05656,72.35519825,
0.05658,-1.29735063,0.05658,73.08605883,
0.0566,1.260661429,0.0566,71.98976795,
0.05662,-0.2010597479,0.05662,73.45148913,
0.05664,-0.2010597479,0.05664,73.08605883,
0.05666,-1.29735063,0.05666,72.72062854,
0.05668,-0.2010597479,0.05668,72.72062854,
0.0567,-1.29735063,0.0567,72.72062854,
0.05672,-0.566490042,0.05672,72.35519825,
0.05674,-0.2010597479,0.05674,72.72062854,
0.05676,0.5298008405,0.05676,72.72062854,
0.05678,-1.29735063,0.05678,72.72062854,
0.0568,0.1643705463,0.0568,73.08605883,
0.05682,-0.2010597479,0.05682,73.45148913,
0.05684,0.1643705463,0.05684,73.08605883,
0.05686,0.8952311347,0.05686,73.45148913,
0.05688,0.8952311347,0.05688,73.08605883,
0.0569,0.5298008405,0.0569,73.08605883,
0.05692,1.626091723,0.05692,73.08605883,
0.05694,0.5298008405,0.05694,73.08605883,
0.05696,-0.2010597479,0.05696,72.72062854,
0.05698,0.8952311347,0.05698,73.08605883,
0.057,0.1643705463,0.057,73.08605883,
0.05702,-0.2010597479,0.05702,72.72062854,
0.05704,-0.2010597479,0.05704,73.08605883,
0.05706,-0.2010597479,0.05706,73.08605883,
0.05708,0.8952311347,0.05708,72.35519825,
0.0571,0.8952311347,0.0571,72.72062854,
0.05712,1.991522017,0.05712,73.08605883,
0.05714,1.626091723,0.05714,72.35519825,
0.05716,2.356952311,0.05716,72.72062854,
0.05718,0.1643705463,0.05718,73.08605883,
0.0572,1.991522017,0.0572,72.35519825,
0.05722,0.8952311347,0.05722,73.08605883,
0.05724,0.1643705463,0.05724,73.08605883,
0.05726,-0.566490042,0.05726,72.72062854,
0.05728,0.1643705463,0.05728,73.08605883,
0.0573,-0.9319203362,0.0573,73.45148913,
0.05732,-0.2010597479,0.05732,71.98976795,
0.05734,0.8952311347,0.05734,73.08605883,
0.05736,0.8952311347,0.05736,73.08605883,
0.05738,-0.2010597479,0.05738,73.08605883,
0.0574,0.8952311347,0.0574,72.35519825,
0.05742,-1.29735063,0.05742,73.45148913,
0.05744,0.8952311347,0.05744,72.35519825,
0.05746,-1.29735063,0.05746,72.35519825,
0.05748,-2.393641513,0.05748,72.35519825,
0.0575,0.1643705463,0.0575,71.98976795,
0.05752,-2.028211219,0.05752,73.45148913,
0.05754,-2.028211219,0.05754,74.18234972,
0.05756,-0.566490042,0.05756,73.08605883,
0.05758,0.1643705463,0.05758,73.45148913,
0.0576,0.1643705463,0.0576,73.08605883,
0.05762,0.1643705463,0.05762,73.08605883,
0.05764,0.8952311347,0.05764,73.45148913,
0.05766,-0.9319203362,0.05766,73.45148913,
0.05768,-0.9319203362,0.05768,72.72062854,
0.0577,-0.9319203362,0.0577,73.08605883,
