"A0_accX_x","A0_accX_y","A1_rmsX_x","A1_rmsX_y"
0,-0.9741933126,0,70.89347707,
2e-05,-0.2433327243,2e-05,70.52804678,
4e-05,0.4875278641,4e-05,71.25890736,
6e-05,0.1220975699,6e-05,70.89347707,
8e-05,0.1220975699,8e-05,70.89347707,
0.0001,1.583818747,0.0001,71.62433766,
0.00012,1.218388452,0.00012,70.52804678,
0.00014,0.4875278641,0.00014,70.89347707,
0.00016,0.1220975699,0.00016,71.98976795,
0.00018,-0.2433327243,0.00018,70.89347707,
0.0002,0.4875278641,0.0002,70.52804678,
0.00022,0.4875278641,0.00022,71.62433766,
0.00024,-0.2433327243,0.00024,70.89347707,
0.00026,0.1220975699,0.00026,70.89347707,
0.00028,0.1220975699,0.00028,71.62433766,
0.0003,0.8529581582,0.0003,70.89347707,
0.00032,1.218388452,0.00032,70.89347707,
0.00034,1.949249041,0.00034,71.25890736,
0.00036,1.583818747,0.00036,71.25890736,
0.00038,1.949249041,0.00038,70.89347707,
0.0004,1.218388452,0.0004,71.25890736,
0.00042,0.4875278641,0.00042,71.25890736,
0.00044,-0.2433327243,0.00044,70.89347707,
0.00046,0.4875278641,0.00046,71.62433766,
0.00048,-0.6087630185,0.00048,70.89347707,
0.0005,-0.6087630185,0.0005,70.52804678,
0.00052,-0.9741933126,0.00052,71.62433766,
0.00054,-1.339623607,0.00054,71.25890736,
0.00056,0.4875278641,0.00056,70.16261648,
0.00058,0.1220975699,0.00058,70.89347707,
0.0006,-0.2433327243,0.0006,71.25890736,
0.00062,1.583818747,0.00062,70.89347707,
0.00064,0.4875278641,0.00064,71.98976795,
0.00066,-2.070484195,0.00066,71.25890736,
0.00068,-2.435914489,0.00068,71.62433766,
0.0007,-1.705053901,0.0007,72.35519825,
0.00072,-2.435914489,0.00072,70.52804678,
0.00074,-2.070484195,0.00074,71.62433766,
0.00076,-2.435914489,0.00076,72.35519825,
0.00078,-2.801344783,0.00078,70.16261648,
0.0008,-0.2433327243,0.0008,70.16261648,
0.00082,1.218388452,0.00082,71.62433766,
0.00084,-0.6087630185,0.00084,70.89347707,
0.00086,-1.339623607,0.00086,71.25890736,
0.00088,-1.339623607,0.00088,71.25890736,
0.0009,-1.705053901,0.0009,70.89347707,
0.00092,-1.339623607,0.00092,70.52804678,
0.00094,-0.2433327243,0.00094,71.62433766,
0.00096,-1.705053901,0.00096,70.89347707,
0.00098,-0.2433327243,0.00098,70.89347707,
0.001,-0.9741933126,0.001,71.62433766,
0.00102,-0.2433327243,0.00102,71.25890736,
0.00104,0.8529581582,0.00104,70.89347707,
0.00106,1.218388452,0.00106,71.98976795,
0.00108,0.4875278641,0.00108,71.25890736,
0.0011,0.4875278641,0.0011,70.89347707,
0.00112,-0.2433327243,0.00112,71.62433766,
0.00114,0.4875278641,0.00114,71.25890736,
0.00116,-0.6087630185,0.00116,70.89347707,
0.00118,1.218388452,0.00118,71.25890736,
0.0012,0.8529581582,0.0012,71.62433766,
0.00122,0.8529581582,0.00122,70.89347707,
0.00124,0.4875278641,0.00124,71.98976795,
0.00126,0.4875278641,0.00126,70.89347707,
0.00128,0.8529581582,0.00128,71.25890736,
0.0013,1.949249041,0.0013,71.25890736,
0.00132,1.583818747,0.00132,71.25890736,
0.00134,1.583818747,0.00134,70.89347707,
0.00136,0.8529581582,0.00136,71.62433766,
0.00138,0.4875278641,0.00138,70.89347707,
0.0014,1.583818747,0.0014,70.89347707,
0.00142,0.4875278641,0.00142,71.62433766,
0.00144,-0.6087630185,0.00144,71.25890736,
0.00146,0.4875278641,0.00146,70.89347707,
0.00148,-1.339623607,0.00148,71.25890736,
0.0015,-1.339623607,0.0015,71.62433766,
0.00152,-0.9741933126,0.00152,70.52804678,
0.00154,0.1220975699,0.00154,71.62433766,
0.00156,0.4875278641,0.00156,70.52804678,
0.00158,-0.2433327243,0.00158,70.89347707,
0.0016,-0.2433327243,0.0016,70.52804678,
0.00162,2.680109629,0.00162,70.16261648,
0.00164,-0.6087630185,0.00164,70.89347707,
0.00166,-1.705053901,0.00166,71.98976795,
0.00168,0.4875278641,0.00168,71.25890736,
0.0017,-3.532205372,0.0017,71.25890736,
0.00172,-2.801344783,0.00172,71.25890736,
0.00174,-0.9741933126,0.00174,70.89347707,
0.00176,-1.705053901,0.00176,71.62433766,
0.00178,-0.2433327243,0.00178,72.35519825,
0.0018,-0.2433327243,0.0018,70.89347707,
0.00182,-0.2433327243,0.00182,70.52804678,
0.00184,-0.2433327243,0.00184,70.89347707,
0.00186,0.4875278641,0.00186,70.89347707,
0.00188,-2.070484195,0.00188,70.89347707,
0.0019,-1.339623607,0.0019,71.62433766,
0.00192,-2.070484195,0.00192,70.89347707,
0.00194,-0.9741933126,0.00194,70.52804678,
0.00196,-0.2433327243,0.00196,71.25890736,
0.00198,-0.2433327243,0.00198,70.89347707,
0.002,-0.6087630185,0.002,70.89347707,
0.00202,0.4875278641,0.00202,71.25890736,
0.00204,-0.2433327243,0.00204,71.25890736,
0.00206,0.4875278641,0.00206,70.89347707,
0.00208,0.4875278641,0.00208,71.62433766,
0.0021,-0.6087630185,0.0021,70.89347707,
0.00212,0.1220975699,0.00212,70.89347707,
0.00214,-0.2433327243,0.00214,71.62433766,
0.00216,-0.2433327243,0.00216,71.25890736,
0.00218,0.1220975699,0.00218,71.25890736,
0.0022,0.1220975699,0.0022,71.62433766,
0.00222,0.8529581582,0.00222,70.89347707,
0.00224,1.218388452,0.00224,70.89347707,
0.00226,0.4875278641,0.00226,71.62433766,
0.00228,1.218388452,0.00228,71.25890736,
0.0023,1.583818747,0.0023,70.89347707,
0.00232,0.8529581582,0.00232,71.62433766,
0.00234,0.8529581582,0.00234,70.89347707,
0.00236,0.8529581582,0.00236,71.25890736,
0.00238,0.8529581582,0.00238,71.25890736,
0.0024,0.8529581582,0.0024,71.25890736,
0.00242,0.1220975699,0.00242,70.89347707,
0.00244,0.1220975699,0.00244,71.25890736,
0.00246,-0.6087630185,0.00246,71.25890736,
0.00248,-0.2433327243,0.00248,70.89347707,
0.0025,0.1220975699,0.0025,71.62433766,
0.00252,0.1220975699,0.00252,71.25890736,
0.00254,-0.6087630185,0.00254,71.25890736,
0.00256,-0.9741933126,0.00256,71.98976795,
0.00258,-0.6087630185,0.00258,71.25890736,
0.0026,0.8529581582,0.0026,70.89347707,
0.00262,0.1220975699,0.00262,71.25890736,
0.00264,-0.2433327243,0.00264,71.25890736,
0.00266,-2.801344783,0.00266,70.89347707,
0.00268,-1.705053901,0.00268,70.89347707,
0.0027,-1.705053901,0.0027,71.98976795,
0.00272,0.1220975699,0.00272,71.25890736,
0.00274,-2.070484195,0.00274,71.62433766,
0.00276,-1.705053901,0.00276,70.89347707,
0.00278,0.4875278641,0.00278,71.25890736,
0.0028,-2.070484195,0.0028,71.62433766,
0.00282,-1.339623607,0.00282,71.25890736,
0.00284,0.1220975699,0.00284,71.25890736,
0.00286,-1.339623607,0.00286,71.25890736,
0.00288,-0.9741933126,0.00288,71.25890736,
0.0029,-1.339623607,0.0029,71.25890736,
0.00292,0.1220975699,0.00292,71.25890736,
0.00294,-1.339623607,0.00294,71.25890736,
0.00296,-0.2433327243,0.00296,71.25890736,
0.00298,0.1220975699,0.00298,71.62433766,
0.003,0.4875278641,0.003,71.62433766,
0.00302,0.8529581582,0.00302,70.52804678,
0.00304,0.8529581582,0.00304,71.25890736,
0.00306,0.8529581582,0.00306,70.89347707,
0.00308,0.4875278641,0.00308,71.25890736,
0.0031,0.8529581582,0.0031,71.62433766,
0.00312,0.1220975699,0.00312,71.25890736,
0.00314,0.4875278641,0.00314,71.25890736,
0.00316,1.583818747,0.00316,71.25890736,
0.00318,-0.2433327243,0.00318,70.89347707,
0.0032,0.4875278641,0.0032,70.89347707,
0.00322,0.1220975699,0.00322,71.62433766,
0.00324,0.1220975699,0.00324,71.25890736,
0.00326,1.949249041,0.00326,71.25890736,
0.00328,1.218388452,0.00328,71.62433766,
0.0033,1.949249041,0.0033,70.89347707,
0.00332,2.314679335,0.00332,71.62433766,
0.00334,1.949249041,0.00334,71.62433766,
0.00336,0.4875278641,0.00336,70.89347707,
0.00338,1.218388452,0.00338,70.89347707,
0.0034,0.4875278641,0.0034,71.25890736,
0.00342,-0.9741933126,0.00342,70.89347707,
0.00344,0.1220975699,0.00344,70.52804678,
0.00346,0.1220975699,0.00346,71.62433766,
0.00348,-0.2433327243,0.00348,71.25890736,
0.0035,0.1220975699,0.0035,71.25890736,
0.00352,-0.2433327243,0.00352,71.25890736,
0.00354,-0.6087630185,0.00354,71.62433766,
0.00356,-0.6087630185,0.00356,71.62433766,
0.00358,-1.705053901,0.00358,71.62433766,
0.0036,-0.9741933126,0.0036,71.62433766,
0.00362,-2.435914489,0.00362,71.98976795,
0.00364,-1.705053901,0.00364,70.52804678,
0.00366,-3.532205372,0.00366,70.89347707,
0.00368,-3.166775078,0.00368,71.25890736,
0.0037,-1.339623607,0.0037,71.62433766,
0.00372,-2.070484195,0.00372,71.62433766,
0.00374,1.949249041,0.00374,71.25890736,
0.00376,-1.339623607,0.00376,71.62433766,
0.00378,0.4875278641,0.00378,71.25890736,
0.0038,0.4875278641,0.0038,70.89347707,
0.00382,0.8529581582,0.00382,71.62433766,
0.00384,-1.339623607,0.00384,71.25890736,
0.00386,-0.2433327243,0.00386,71.25890736,
0.00388,-0.6087630185,0.00388,71.62433766,
0.0039,-0.9741933126,0.0039,71.25890736,
0.00392,-1.339623607,0.00392,71.25890736,
0.00394,0.1220975699,0.00394,71.62433766,
0.00396,0.1220975699,0.00396,71.25890736,
0.00398,1.218388452,0.00398,70.89347707,
0.004,1.583818747,0.004,71.62433766,
0.00402,-0.6087630185,0.00402,71.25890736,
0.00404,1.949249041,0.00404,71.25890736,
0.00406,0.4875278641,0.00406,71.25890736,
0.00408,-0.6087630185,0.00408,71.25890736,
0.0041,0.4875278641,0.0041,70.89347707,
0.00412,0.8529581582,0.00412,71.25890736,
0.00414,-0.6087630185,0.00414,71.25890736,
0.00416,0.8529581582,0.00416,71.25890736,
0.00418,0.1220975699,0.00418,71.62433766,
0.0042,0.4875278641,0.0042,70.89347707,
0.00422,0.8529581582,0.00422,71.25890736,
0.00424,0.8529581582,0.00424,71.62433766,
0.00426,0.8529581582,0.00426,70.89347707,
0.00428,1.218388452,0.00428,71.25890736,
0.0043,1.949249041,0.0043,70.89347707,
0.00432,1.583818747,0.00432,70.89347707,
0.00434,0.8529581582,0.00434,71.25890736,
0.00436,0.4875278641,0.00436,70.52804678,
0.00438,0.1220975699,0.00438,70.89347707,
0.0044,-1.705053901,0.0044,70.89347707,
0.00442,-1.705053901,0.00442,70.89347707,
0.00444,-0.2433327243,0.00444,70.89347707,
0.00446,-0.6087630185,0.00446,71.25890736,
0.00448,-0.6087630185,0.00448,71.25890736,
0.0045,1.949249041,0.0045,71.62433766,
0.00452,0.1220975699,0.00452,70.89347707,
0.00454,-0.2433327243,0.00454,71.62433766,
0.00456,1.583818747,0.00456,70.16261648,
0.00458,-2.801344783,0.00458,70.52804678,
0.0046,-2.435914489,0.0046,71.25890736,
0.00462,-2.435914489,0.00462,70.89347707,
0.00464,-2.070484195,0.00464,70.89347707,
0.00466,-2.801344783,0.00466,71.25890736,
0.00468,-2.070484195,0.00468,71.62433766,
0.0047,-2.435914489,0.0047,70.52804678,
0.00472,-0.9741933126,0.00472,71.25890736,
0.00474,-0.2433327243,0.00474,70.89347707,
0.00476,-0.6087630185,0.00476,71.62433766,
0.00478,0.1220975699,0.00478,70.89347707,
0.0048,-0.9741933126,0.0048,70.89347707,
0.00482,-0.6087630185,0.00482,71.62433766,
0.00484,-2.070484195,0.00484,70.89347707,
0.00486,-0.9741933126,0.00486,70.89347707,
0.00488,-1.339623607,0.00488,71.62433766,
0.0049,-1.339623607,0.0049,71.25890736,
0.00492,-0.6087630185,0.00492,70.89347707,
0.00494,0.1220975699,0.00494,71.62433766,
0.00496,-0.2433327243,0.00496,70.89347707,
0.00498,0.8529581582,0.00498,71.25890736,
0.005,0.1220975699,0.005,71.62433766,
0.00502,0.1220975699,0.00502,71.25890736,
0.00504,0.4875278641,0.00504,70.89347707,
0.00506,0.4875278641,0.00506,71.25890736,
0.00508,0.1220975699,0.00508,71.25890736,
0.0051,-0.2433327243,0.0051,71.25890736,
0.00512,0.1220975699,0.00512,71.62433766,
0.00514,-0.6087630185,0.00514,71.25890736,
0.00516,0.1220975699,0.00516,70.89347707,
0.00518,0.1220975699,0.00518,71.62433766,
0.0052,0.4875278641,0.0052,70.89347707,
0.00522,1.949249041,0.00522,70.89347707,
0.00524,1.949249041,0.00524,71.62433766,
0.00526,1.949249041,0.00526,70.89347707,
0.00528,0.1220975699,0.00528,71.25890736,
0.0053,0.4875278641,0.0053,71.62433766,
0.00532,0.8529581582,0.00532,71.25890736,
0.00534,0.8529581582,0.00534,71.25890736,
0.00536,-1.339623607,0.00536,71.25890736,
0.00538,-0.9741933126,0.00538,71.25890736,
0.0054,-0.9741933126,0.0054,71.25890736,
0.00542,-1.705053901,0.00542,71.25890736,
0.00544,-0.2433327243,0.00544,71.25890736,
0.00546,0.4875278641,0.00546,71.25890736,
0.00548,0.4875278641,0.00548,71.25890736,
0.0055,-0.6087630185,0.0055,71.62433766,
0.00552,0.4875278641,0.00552,71.62433766,
0.00554,-0.6087630185,0.00554,70.89347707,
0.00556,-0.2433327243,0.00556,71.62433766,
0.00558,-4.26306596,0.00558,71.25890736,
0.0056,-1.705053901,0.0056,71.98976795,
0.00562,-2.801344783,0.00562,71.25890736,
0.00564,-1.705053901,0.00564,71.25890736,
0.00566,-1.339623607,0.00566,70.89347707,
0.00568,0.1220975699,0.00568,70.89347707,
0.0057,0.1220975699,0.0057,71.62433766,
0.00572,-0.2433327243,0.00572,71.25890736,
0.00574,2.314679335,0.00574,70.52804678,
0.00576,-0.9741933126,0.00576,71.62433766,
0.00578,-1.339623607,0.00578,71.25890736,
0.0058,-0.2433327243,0.0058,71.25890736,
0.00582,-0.6087630185,0.00582,71.25890736,
0.00584,-2.070484195,0.00584,70.89347707,
0.00586,-1.705053901,0.00586,70.89347707,
0.00588,-0.2433327243,0.00588,71.62433766,
0.0059,-0.2433327243,0.0059,71.25890736,
0.00592,0.1220975699,0.00592,70.89347707,
0.00594,0.8529581582,0.00594,71.62433766,
0.00596,0.8529581582,0.00596,70.89347707,
0.00598,1.583818747,0.00598,71.25890736,
0.006,-0.2433327243,0.006,71.62433766,
0.00602,0.1220975699,0.00602,71.25890736,
0.00604,0.4875278641,0.00604,71.25890736,
0.00606,0.8529581582,0.00606,71.62433766,
0.00608,-0.2433327243,0.00608,71.25890736,
0.0061,1.218388452,0.0061,70.89347707,
0.00612,0.4875278641,0.00612,71.98976795,
0.00614,-0.2433327243,0.00614,71.25890736,
0.00616,0.4875278641,0.00616,71.25890736,
0.00618,0.1220975699,0.00618,71.25890736,
0.0062,0.4875278641,0.0062,71.25890736,
0.00622,0.8529581582,0.00622,70.89347707,
0.00624,1.583818747,0.00624,71.25890736,
0.00626,2.314679335,0.00626,71.25890736,
0.00628,0.4875278641,0.00628,70.52804678,
0.0063,1.218388452,0.0063,71.98976795,
0.00632,0.4875278641,0.00632,70.89347707,
0.00634,-0.2433327243,0.00634,70.89347707,
0.00636,-0.6087630185,0.00636,71.25890736,
0.00638,-0.2433327243,0.00638,71.25890736,
0.0064,-0.2433327243,0.0064,71.25890736,
0.00642,-0.2433327243,0.00642,71.25890736,
0.00644,-0.6087630185,0.00644,71.62433766,
0.00646,-0.2433327243,0.00646,70.52804678,
0.00648,0.4875278641,0.00648,71.62433766,
0.0065,-1.339623607,0.0065,70.16261648,
0.00652,-0.6087630185,0.00652,71.62433766,
0.00654,-2.070484195,0.00654,71.62433766,
0.00656,-3.532205372,0.00656,69.79718619,
0.00658,-2.801344783,0.00658,70.89347707,
0.0066,-3.166775078,0.0066,72.35519825,
0.00662,-3.166775078,0.00662,71.25890736,
0.00664,-0.6087630185,0.00664,71.25890736,
0.00666,-0.9741933126,0.00666,71.25890736,
0.00668,-1.339623607,0.00668,70.89347707,
0.0067,0.4875278641,0.0067,70.89347707,
0.00672,1.583818747,0.00672,71.62433766,
0.00674,-1.339623607,0.00674,71.62433766,
0.00676,-0.6087630185,0.00676,70.89347707,
0.00678,-0.9741933126,0.00678,71.25890736,
0.0068,-2.070484195,0.0068,71.25890736,
0.00682,-0.6087630185,0.00682,70.89347707,
0.00684,-1.705053901,0.00684,71.25890736,
0.00686,-0.6087630185,0.00686,71.62433766,
0.00688,0.1220975699,0.00688,71.25890736,
0.0069,-0.2433327243,0.0069,71.62433766,
0.00692,0.4875278641,0.00692,71.25890736,
0.00694,0.4875278641,0.00694,71.25890736,
0.00696,0.8529581582,0.00696,71.25890736,
0.00698,0.1220975699,0.00698,71.25890736,
0.007,0.4875278641,0.007,70.89347707,
0.00702,0.1220975699,0.00702,71.62433766,
0.00704,-0.2433327243,0.00704,70.89347707,
0.00706,1.949249041,0.00706,70.89347707,
0.00708,0.4875278641,0.00708,71.25890736,
0.0071,-0.2433327243,0.0071,70.89347707,
0.00712,0.1220975699,0.00712,70.89347707,
0.00714,1.218388452,0.00714,70.52804678,
0.00716,1.583818747,0.00716,70.89347707,
0.00718,1.583818747,0.00718,70.89347707,
0.0072,0.4875278641,0.0072,70.52804678,
0.00722,3.410970217,0.00722,70.89347707,
0.00724,1.218388452,0.00724,70.52804678,
0.00726,1.218388452,0.00726,70.52804678,
0.00728,0.8529581582,0.00728,71.25890736,
0.0073,-0.2433327243,0.0073,71.25890736,
0.00732,0.1220975699,0.00732,70.52804678,
0.00734,0.1220975699,0.00734,71.25890736,
0.00736,-0.6087630185,0.00736,71.25890736,
0.00738,-0.9741933126,0.00738,70.52804678,
0.0074,0.1220975699,0.0074,70.89347707,
0.00742,0.8529581582,0.00742,70.89347707,
0.00744,1.949249041,0.00744,70.52804678,
0.00746,0.8529581582,0.00746,71.25890736,
0.00748,-0.6087630185,0.00748,70.89347707,
0.0075,-0.9741933126,0.0075,70.52804678,
0.00752,0.4875278641,0.00752,70.16261648,
0.00754,-2.801344783,0.00754,70.89347707,
0.00756,-2.070484195,0.00756,70.52804678,
0.00758,-1.705053901,0.00758,71.25890736,
0.0076,-2.801344783,0.0076,70.52804678,
0.00762,-0.9741933126,0.00762,70.16261648,
0.00764,-0.9741933126,0.00764,71.62433766,
0.00766,-0.2433327243,0.00766,71.25890736,
0.00768,0.1220975699,0.00768,70.89347707,
0.0077,-0.2433327243,0.0077,71.25890736,
0.00772,-0.2433327243,0.00772,70.89347707,
0.00774,-0.6087630185,0.00774,70.52804678,
0.00776,-1.705053901,0.00776,70.89347707,
0.00778,-0.6087630185,0.00778,71.25890736,
0.0078,-2.435914489,0.0078,70.52804678,
0.00782,-0.9741933126,0.00782,71.25890736,
0.00784,-0.9741933126,0.00784,71.25890736,
0.00786,-0.2433327243,0.00786,70.89347707,
0.00788,1.218388452,0.00788,70.89347707,
0.0079,-0.2433327243,0.0079,70.89347707,
0.00792,0.4875278641,0.00792,70.52804678,
0.00794,1.949249041,0.00794,71.25890736,
0.00796,-0.6087630185,0.00796,70.89347707,
0.00798,0.4875278641,0.00798,70.52804678,
0.008,1.218388452,0.008,70.89347707,
0.00802,1.583818747,0.00802,71.25890736,
0.00804,-0.9741933126,0.00804,70.52804678,
0.00806,1.218388452,0.00806,71.25890736,
0.00808,-0.6087630185,0.00808,70.89347707,
0.0081,-0.6087630185,0.0081,70.89347707,
0.00812,1.583818747,0.00812,71.25890736,
0.00814,1.583818747,0.00814,71.25890736,
0.00816,1.949249041,0.00816,70.16261648,
0.00818,1.949249041,0.00818,71.25890736,
0.0082,0.8529581582,0.0082,70.89347707,
0.00822,1.218388452,0.00822,70.52804678,
0.00824,0.8529581582,0.00824,71.25890736,
0.00826,0.8529581582,0.00826,71.25890736,
0.00828,0.1220975699,0.00828,70.89347707,
0.0083,0.4875278641,0.0083,70.52804678,
0.00832,-1.705053901,0.00832,71.25890736,
0.00834,-1.339623607,0.00834,70.52804678,
0.00836,0.4875278641,0.00836,71.25890736,
0.00838,0.4875278641,0.00838,70.89347707,
0.0084,-0.2433327243,0.0084,70.52804678,
0.00842,1.218388452,0.00842,70.89347707,
0.00844,0.1220975699,0.00844,71.25890736,
0.00846,-0.6087630185,0.00846,69.43175589,
0.00848,-0.6087630185,0.00848,70.89347707,
0.0085,-2.435914489,0.0085,71.25890736,
0.00852,-2.070484195,0.00852,70.16261648,
0.00854,0.4875278641,0.00854,69.79718619,
0.00856,-1.339623607,0.00856,71.98976795,
0.00858,-3.897635666,0.00858,69.43175589,
0.0086,-0.6087630185,0.0086,71.25890736,
0.00862,0.1220975699,0.00862,71.98976795,
0.00864,-1.339623607,0.00864,70.52804678,
0.00866,1.218388452,0.00866,71.25890736,
0.00868,1.218388452,0.00868,71.25890736,
0.0087,-0.2433327243,0.0087,70.52804678,
0.00872,-0.2433327243,0.00872,70.89347707,
0.00874,-0.9741933126,0.00874,71.25890736,
0.00876,-2.801344783,0.00876,70.89347707,
0.00878,0.1220975699,0.00878,71.25890736,
0.0088,-0.2433327243,0.0088,71.25890736,
0.00882,-0.2433327243,0.00882,70.52804678,
0.00884,0.1220975699,0.00884,71.25890736,
0.00886,0.4875278641,0.00886,70.89347707,
0.00888,0.8529581582,0.00888,70.89347707,
0.0089,0.8529581582,0.0089,70.89347707,
0.00892,0.1220975699,0.00892,71.25890736,
0.00894,1.949249041,0.00894,70.89347707,
0.00896,1.218388452,0.00896,71.25890736,
0.00898,0.8529581582,0.00898,71.25890736,
0.009,-0.2433327243,0.009,70.89347707,
0.00902,1.583818747,0.00902,71.25890736,
0.00904,0.4875278641,0.00904,70.89347707,
0.00906,0.8529581582,0.00906,71.98976795,
0.00908,-0.6087630185,0.00908,71.25890736,
0.0091,0.8529581582,0.0091,71.25890736,
0.00912,0.1220975699,0.00912,71.62433766,
0.00914,0.8529581582,0.00914,70.89347707,
0.00916,1.583818747,0.00916,70.89347707,
0.00918,1.949249041,0.00918,71.62433766,
0.0092,0.8529581582,0.0092,71.25890736,
0.00922,1.218388452,0.00922,71.25890736,
0.00924,0.4875278641,0.00924,71.25890736,
0.00926,-0.2433327243,0.00926,71.25890736,
0.00928,-1.339623607,0.00928,70.89347707,
0.0093,-0.6087630185,0.0093,71.62433766,
0.00932,-0.9741933126,0.00932,71.25890736,
0.00934,-0.2433327243,0.00934,70.89347707,
0.00936,-0.2433327243,0.00936,71.62433766,
0.00938,0.4875278641,0.00938,70.52804678,
0.0094,1.949249041,0.0094,70.89347707,
0.00942,0.1220975699,0.00942,71.62433766,
0.00944,-0.6087630185,0.00944,71.25890736,
0.00946,-1.705053901,0.00946,70.89347707,
0.00948,-1.339623607,0.00948,71.25890736,
0.0095,-3.166775078,0.0095,69.43175589,
0.00952,-3.897635666,0.00952,71.98976795,
0.00954,-2.801344783,0.00954,72.35519825,
0.00956,-2.070484195,0.00956,69.79718619,
0.00958,0.1220975699,0.00958,70.16261648,
0.0096,-0.9741933126,0.0096,69.79718619,
0.00962,2.314679335,0.00962,70.52804678,
0.00964,-0.6087630185,0.00964,70.52804678,
0.00966,-1.705053901,0.00966,70.52804678,
0.00968,-0.6087630185,0.00968,70.89347707,
0.0097,-0.9741933126,0.0097,71.25890736,
0.00972,-0.6087630185,0.00972,71.25890736,
0.00974,-2.070484195,0.00974,71.25890736,
0.00976,-0.6087630185,0.00976,70.89347707,
0.00978,-0.2433327243,0.00978,71.25890736,
0.0098,-0.6087630185,0.0098,71.62433766,
0.00982,0.4875278641,0.00982,71.25890736,
0.00984,1.218388452,0.00984,71.25890736,
0.00986,1.218388452,0.00986,70.89347707,
0.00988,1.583818747,0.00988,71.25890736,
0.0099,0.8529581582,0.0099,71.25890736,
0.00992,0.1220975699,0.00992,70.89347707,
0.00994,0.4875278641,0.00994,71.62433766,
0.00996,-0.2433327243,0.00996,71.62433766,
0.00998,0.1220975699,0.00998,70.89347707,
0.01,0.4875278641,0.01,70.89347707,
0.01002,-0.2433327243,0.01002,70.89347707,
0.01004,0.8529581582,0.01004,71.25890736,
0.01006,0.8529581582,0.01006,70.52804678,
0.01008,-0.6087630185,0.01008,70.89347707,
0.0101,1.218388452,0.0101,70.89347707,
0.01012,1.218388452,0.01012,70.52804678,
0.01014,0.4875278641,0.01014,70.52804678,
0.01016,2.314679335,0.01016,71.25890736,
0.01018,0.8529581582,0.01018,71.25890736,
0.0102,0.1220975699,0.0102,70.52804678,
0.01022,1.218388452,0.01022,70.89347707,
0.01024,1.583818747,0.01024,71.25890736,
0.01026,-0.9741933126,0.01026,70.52804678,
0.01028,-0.2433327243,0.01028,70.89347707,
0.0103,0.1220975699,0.0103,71.25890736,
0.01032,-0.2433327243,0.01032,70.52804678,
0.01034,0.8529581582,0.01034,70.89347707,
0.01036,0.1220975699,0.01036,70.89347707,
0.01038,0.1220975699,0.01038,70.52804678,
0.0104,1.583818747,0.0104,70.89347707,
0.01042,2.680109629,0.01042,70.16261648,
0.01044,-2.435914489,0.01044,70.89347707,
0.01046,-0.6087630185,0.01046,70.89347707,
0.01048,-1.339623607,0.01048,71.25890736,
0.0105,-0.6087630185,0.0105,70.16261648,
0.01052,-2.070484195,0.01052,70.89347707,
0.01054,-3.166775078,0.01054,70.52804678,
0.01056,0.4875278641,0.01056,70.89347707,
0.01058,1.583818747,0.01058,70.89347707,
0.0106,-0.9741933126,0.0106,70.89347707,
0.01062,-0.6087630185,0.01062,70.89347707,
0.01064,-0.9741933126,0.01064,71.62433766,
0.01066,-0.6087630185,0.01066,71.25890736,
0.01068,-0.9741933126,0.01068,70.52804678,
0.0107,-0.9741933126,0.0107,70.89347707,
0.01072,-1.339623607,0.01072,71.25890736,
0.01074,-0.2433327243,0.01074,70.52804678,
0.01076,-0.9741933126,0.01076,71.25890736,
0.01078,-0.6087630185,0.01078,70.89347707,
0.0108,-0.9741933126,0.0108,70.52804678,
0.01082,0.1220975699,0.01082,70.89347707,
0.01084,0.1220975699,0.01084,71.25890736,
0.01086,1.218388452,0.01086,70.52804678,
0.01088,0.1220975699,0.01088,71.25890736,
0.0109,0.8529581582,0.0109,70.89347707,
0.01092,0.8529581582,0.01092,70.52804678,
0.01094,0.8529581582,0.01094,71.25890736,
0.01096,1.218388452,0.01096,71.25890736,
0.01098,0.1220975699,0.01098,70.52804678,
0.011,0.8529581582,0.011,70.89347707,
0.01102,0.8529581582,0.01102,70.89347707,
0.01104,-0.6087630185,0.01104,70.52804678,
0.01106,1.583818747,0.01106,71.25890736,
0.01108,0.8529581582,0.01108,71.25890736,
0.0111,0.1220975699,0.0111,70.52804678,
0.01112,1.949249041,0.01112,70.89347707,
0.01114,3.045539923,0.01114,71.25890736,
0.01116,0.8529581582,0.01116,70.52804678,
0.01118,1.949249041,0.01118,71.25890736,
0.0112,0.4875278641,0.0112,71.25890736,
0.01122,-0.2433327243,0.01122,70.52804678,
0.01124,0.4875278641,0.01124,71.25890736,
0.01126,0.1220975699,0.01126,71.25890736,
0.01128,-0.6087630185,0.01128,70.52804678,
0.0113,0.4875278641,0.0113,71.25890736,
0.01132,0.1220975699,0.01132,71.25890736,
0.01134,1.218388452,0.01134,70.52804678,
0.01136,-0.2433327243,0.01136,70.89347707,
0.01138,-0.2433327243,0.01138,71.25890736,
0.0114,-0.2433327243,0.0114,70.16261648,
0.01142,-1.339623607,0.01142,71.98976795,
0.01144,-0.6087630185,0.01144,71.98976795,
0.01146,-1.705053901,0.01146,69.43175589,
0.01148,-4.26306596,0.01148,70.52804678,
0.0115,-0.9741933126,0.0115,71.62433766,
0.01152,-2.801344783,0.01152,70.89347707,
0.01154,-0.9741933126,0.01154,71.25890736,
0.01156,-1.705053901,0.01156,71.62433766,
0.01158,-0.2433327243,0.01158,70.89347707,
0.0116,0.4875278641,0.0116,71.25890736,
0.01162,-0.6087630185,0.01162,71.25890736,
0.01164,-2.070484195,0.01164,70.89347707,
0.01166,-0.6087630185,0.01166,70.89347707,
0.01168,-0.6087630185,0.01168,70.89347707,
0.0117,-0.9741933126,0.0117,70.52804678,
0.01172,-1.705053901,0.01172,70.89347707,
0.01174,-0.2433327243,0.01174,70.89347707,
0.01176,-0.2433327243,0.01176,70.89347707,
0.01178,1.218388452,0.01178,70.89347707,
0.0118,1.583818747,0.0118,71.25890736,
0.01182,1.218388452,0.01182,70.89347707,
0.01184,1.583818747,0.01184,70.52804678,
0.01186,1.218388452,0.01186,71.25890736,
0.01188,-0.2433327243,0.01188,70.16261648,
0.0119,0.8529581582,0.0119,71.62433766,
0.01192,-0.6087630185,0.01192,71.25890736,
0.01194,0.4875278641,0.01194,70.52804678,
0.01196,-0.2433327243,0.01196,71.25890736,
0.01198,-0.6087630185,0.01198,70.89347707,
0.012,-0.6087630185,0.012,70.89347707,
0.01202,0.4875278641,0.01202,71.62433766,
0.01204,0.1220975699,0.01204,70.89347707,
0.01206,1.583818747,0.01206,70.52804678,
0.01208,1.583818747,0.01208,71.25890736,
0.0121,1.218388452,0.0121,70.52804678,
0.01212,1.218388452,0.01212,70.89347707,
0.01214,0.8529581582,0.01214,71.25890736,
0.01216,0.1220975699,0.01216,70.89347707,
0.01218,0.1220975699,0.01218,70.52804678,
0.0122,-0.2433327243,0.0122,71.62433766,
0.01222,-0.2433327243,0.01222,70.89347707,
0.01224,-0.2433327243,0.01224,70.52804678,
0.01226,-0.2433327243,0.01226,71.25890736,
0.01228,-0.6087630185,0.01228,70.89347707,
0.0123,0.4875278641,0.0123,70.89347707,
0.01232,-0.2433327243,0.01232,70.89347707,
0.01234,-0.2433327243,0.01234,70.89347707,
0.01236,0.8529581582,0.01236,70.16261648,
0.01238,-0.9741933126,0.01238,71.25890736,
0.0124,-2.435914489,0.0124,71.98976795,
0.01242,-3.166775078,0.01242,71.25890736,
0.01244,-3.897635666,0.01244,71.62433766,
0.01246,-4.628496254,0.01246,71.98976795,
0.01248,-1.705053901,0.01248,71.25890736,
0.0125,-2.070484195,0.0125,71.25890736,
0.01252,0.4875278641,0.01252,71.25890736,
0.01254,-1.705053901,0.01254,70.52804678,
0.01256,0.1220975699,0.01256,71.62433766,
0.01258,0.4875278641,0.01258,71.25890736,
0.0126,-0.2433327243,0.0126,70.52804678,
0.01262,-0.6087630185,0.01262,71.62433766,
0.01264,-1.705053901,0.01264,70.89347707,
0.01266,-0.2433327243,0.01266,70.89347707,
0.01268,-2.070484195,0.01268,71.62433766,
0.0127,-2.070484195,0.0127,70.89347707,
0.01272,-2.070484195,0.01272,70.89347707,
0.01274,-0.2433327243,0.01274,71.25890736,
0.01276,-0.2433327243,0.01276,70.89347707,
0.01278,-0.2433327243,0.01278,70.52804678,
0.0128,0.8529581582,0.0128,71.25890736,
0.01282,0.8529581582,0.01282,71.25890736,
0.01284,1.218388452,0.01284,70.52804678,
0.01286,0.1220975699,0.01286,71.25890736,
0.01288,0.4875278641,0.01288,70.89347707,
0.0129,1.218388452,0.0129,70.89347707,
0.01292,0.1220975699,0.01292,71.25890736,
0.01294,0.8529581582,0.01294,70.89347707,
0.01296,0.1220975699,0.01296,70.52804678,
0.01298,-0.9741933126,0.01298,71.62433766,
0.013,-0.2433327243,0.013,70.89347707,
0.01302,0.1220975699,0.01302,70.89347707,
0.01304,0.8529581582,0.01304,71.62433766,
0.01306,1.218388452,0.01306,70.89347707,
0.01308,1.949249041,0.01308,70.52804678,
0.0131,1.218388452,0.0131,71.62433766,
0.01312,0.8529581582,0.01312,71.25890736,
0.01314,-0.2433327243,0.01314,70.89347707,
0.01316,0.8529581582,0.01316,71.25890736,
0.01318,-0.2433327243,0.01318,70.89347707,
0.0132,-0.2433327243,0.0132,70.89347707,
0.01322,-0.9741933126,0.01322,71.98976795,
0.01324,-0.2433327243,0.01324,71.25890736,
0.01326,-0.9741933126,0.01326,70.52804678,
0.01328,0.1220975699,0.01328,71.25890736,
0.0133,-0.6087630185,0.0133,70.89347707,
0.01332,1.583818747,0.01332,70.89347707,
0.01334,-0.9741933126,0.01334,70.89347707,
0.01336,-0.6087630185,0.01336,71.25890736,
0.01338,1.583818747,0.01338,70.89347707,
0.0134,-0.2433327243,0.0134,70.52804678,
0.01342,-3.166775078,0.01342,71.98976795,
0.01344,-3.897635666,0.01344,70.16261648,
0.01346,-2.435914489,0.01346,71.25890736,
0.01348,-2.070484195,0.01348,70.89347707,
0.0135,-0.6087630185,0.0135,71.25890736,
0.01352,-1.339623607,0.01352,71.25890736,
0.01354,-0.9741933126,0.01354,70.89347707,
0.01356,0.1220975699,0.01356,70.89347707,
0.01358,0.8529581582,0.01358,71.62433766,
0.0136,-0.6087630185,0.0136,71.25890736,
0.01362,-2.435914489,0.01362,71.25890736,
0.01364,-1.705053901,0.01364,71.62433766,
0.01366,-2.801344783,0.01366,71.25890736,
0.01368,-0.9741933126,0.01368,70.52804678,
0.0137,-1.705053901,0.0137,71.62433766,
0.01372,-0.6087630185,0.01372,70.89347707,
0.01374,-0.2433327243,0.01374,70.89347707,
0.01376,1.218388452,0.01376,71.25890736,
0.01378,0.4875278641,0.01378,71.25890736,
0.0138,-0.2433327243,0.0138,71.25890736,
0.01382,0.1220975699,0.01382,71.25890736,
0.01384,0.8529581582,0.01384,70.89347707,
0.01386,1.218388452,0.01386,71.62433766,
0.01388,-0.9741933126,0.01388,71.62433766,
0.0139,-0.6087630185,0.0139,70.89347707,
0.01392,0.4875278641,0.01392,71.25890736,
0.01394,-0.2433327243,0.01394,71.25890736,
0.01396,0.1220975699,0.01396,70.89347707,
0.01398,0.1220975699,0.01398,71.62433766,
0.014,-0.2433327243,0.014,70.89347707,
0.01402,0.8529581582,0.01402,71.25890736,
0.01404,2.680109629,0.01404,71.62433766,
0.01406,1.218388452,0.01406,71.25890736,
0.01408,1.218388452,0.01408,71.25890736,
0.0141,1.218388452,0.0141,71.62433766,
0.01412,1.218388452,0.01412,70.89347707,
0.01414,0.4875278641,0.01414,70.89347707,
0.01416,-0.9741933126,0.01416,71.62433766,
0.01418,0.1220975699,0.01418,71.25890736,
0.0142,-0.6087630185,0.0142,70.89347707,
0.01422,-1.339623607,0.01422,71.62433766,
0.01424,0.1220975699,0.01424,71.25890736,
0.01426,-0.2433327243,0.01426,71.25890736,
0.01428,0.4875278641,0.01428,71.62433766,
0.0143,-2.070484195,0.0143,71.25890736,
0.01432,0.4875278641,0.01432,70.52804678,
0.01434,-1.339623607,0.01434,71.25890736,
0.01436,-2.801344783,0.01436,70.89347707,
0.01438,-0.2433327243,0.01438,70.89347707,
0.0144,-2.070484195,0.0144,70.16261648,
0.01442,-0.6087630185,0.01442,70.52804678,
0.01444,-2.801344783,0.01444,71.25890736,
0.01446,-2.070484195,0.01446,71.62433766,
0.01448,-1.339623607,0.01448,70.89347707,
0.0145,0.1220975699,0.0145,70.89347707,
0.01452,-2.070484195,0.01452,71.62433766,
0.01454,-0.6087630185,0.01454,70.89347707,
0.01456,-0.2433327243,0.01456,70.89347707,
0.01458,-0.6087630185,0.01458,71.25890736,
0.0146,-1.705053901,0.0146,70.89347707,
0.01462,-0.9741933126,0.01462,70.89347707,
0.01464,-2.435914489,0.01464,71.25890736,
0.01466,-2.070484195,0.01466,70.89347707,
0.01468,-0.6087630185,0.01468,71.25890736,
0.0147,0.1220975699,0.0147,71.62433766,
0.01472,-0.2433327243,0.01472,71.62433766,
0.01474,0.4875278641,0.01474,71.25890736,
0.01476,1.218388452,0.01476,71.25890736,
0.01478,1.583818747,0.01478,71.25890736,
0.0148,0.4875278641,0.0148,71.62433766,
0.01482,0.4875278641,0.01482,70.89347707,
0.01484,0.4875278641,0.01484,70.89347707,
0.01486,0.8529581582,0.01486,70.89347707,
0.01488,-0.2433327243,0.01488,71.25890736,
0.0149,1.218388452,0.0149,70.89347707,
0.01492,0.1220975699,0.01492,70.89347707,
0.01494,0.4875278641,0.01494,71.25890736,
0.01496,1.218388452,0.01496,71.25890736,
0.01498,0.8529581582,0.01498,71.25890736,
0.015,1.949249041,0.015,71.25890736,
0.01502,1.583818747,0.01502,70.89347707,
0.01504,1.949249041,0.01504,71.25890736,
0.01506,1.218388452,0.01506,70.89347707,
0.01508,0.4875278641,0.01508,71.25890736,
0.0151,0.1220975699,0.0151,71.25890736,
0.01512,-0.6087630185,0.01512,70.89347707,
0.01514,0.4875278641,0.01514,71.25890736,
0.01516,-0.6087630185,0.01516,70.89347707,
0.01518,-0.9741933126,0.01518,71.25890736,
0.0152,-0.9741933126,0.0152,71.62433766,
0.01522,-0.2433327243,0.01522,70.89347707,
0.01524,1.583818747,0.01524,71.25890736,
0.01526,-0.9741933126,0.01526,71.98976795,
0.01528,-0.6087630185,0.01528,71.62433766,
0.0153,-1.705053901,0.0153,69.79718619,
0.01532,-0.2433327243,0.01532,71.98976795,
0.01534,-2.801344783,0.01534,71.25890736,
0.01536,-3.166775078,0.01536,70.89347707,
0.01538,-3.532205372,0.01538,71.98976795,
0.0154,-3.897635666,0.0154,71.25890736,
0.01542,-2.801344783,0.01542,69.79718619,
0.01544,-2.435914489,0.01544,71.62433766,
0.01546,-2.070484195,0.01546,70.16261648,
0.01548,0.1220975699,0.01548,71.25890736,
0.0155,0.1220975699,0.0155,71.25890736,
0.01552,0.1220975699,0.01552,70.52804678,
0.01554,-1.705053901,0.01554,70.16261648,
0.01556,-0.6087630185,0.01556,71.98976795,
0.01558,-2.070484195,0.01558,70.89347707,
0.0156,-1.339623607,0.0156,70.89347707,
0.01562,-1.705053901,0.01562,71.25890736,
0.01564,-2.070484195,0.01564,71.25890736,
0.01566,-0.2433327243,0.01566,70.89347707,
0.01568,-0.2433327243,0.01568,71.62433766,
0.0157,-0.2433327243,0.0157,70.89347707,
0.01572,-0.6087630185,0.01572,70.52804678,
0.01574,1.583818747,0.01574,71.25890736,
0.01576,1.949249041,0.01576,70.52804678,
0.01578,0.4875278641,0.01578,70.16261648,
0.0158,-0.2433327243,0.0158,71.25890736,
0.01582,-0.2433327243,0.01582,70.52804678,
0.01584,-0.6087630185,0.01584,70.89347707,
0.01586,0.1220975699,0.01586,71.62433766,
0.01588,-0.2433327243,0.01588,70.89347707,
0.0159,-0.2433327243,0.0159,70.89347707,
0.01592,0.4875278641,0.01592,71.25890736,
0.01594,0.4875278641,0.01594,70.89347707,
0.01596,1.218388452,0.01596,70.89347707,
0.01598,0.4875278641,0.01598,71.25890736,
0.016,1.583818747,0.016,70.89347707,
0.01602,1.583818747,0.01602,70.89347707,
0.01604,1.218388452,0.01604,71.25890736,
0.01606,0.4875278641,0.01606,70.52804678,
0.01608,0.1220975699,0.01608,70.89347707,
0.0161,0.8529581582,0.0161,71.62433766,
0.01612,-0.6087630185,0.01612,70.89347707,
0.01614,-0.2433327243,0.01614,70.89347707,
0.01616,-1.339623607,0.01616,71.62433766,
0.01618,-0.6087630185,0.01618,70.52804678,
0.0162,0.8529581582,0.0162,70.89347707,
0.01622,1.583818747,0.01622,70.89347707,
0.01624,0.1220975699,0.01624,71.25890736,
0.01626,-0.9741933126,0.01626,71.25890736,
0.01628,-0.9741933126,0.01628,71.25890736,
0.0163,0.1220975699,0.0163,71.25890736,
0.01632,-2.801344783,0.01632,71.25890736,
0.01634,-3.532205372,0.01634,71.62433766,
0.01636,-4.628496254,0.01636,71.98976795,
0.01638,-2.801344783,0.01638,70.89347707,
0.0164,-3.166775078,0.0164,71.62433766,
0.01642,-2.801344783,0.01642,71.25890736,
0.01644,-1.339623607,0.01644,70.52804678,
0.01646,-0.6087630185,0.01646,71.25890736,
0.01648,-0.2433327243,0.01648,71.25890736,
0.0165,0.1220975699,0.0165,70.89347707,
0.01652,0.4875278641,0.01652,71.25890736,
0.01654,-1.339623607,0.01654,70.89347707,
0.01656,-0.9741933126,0.01656,70.89347707,
0.01658,-0.9741933126,0.01658,71.25890736,
0.0166,-1.705053901,0.0166,70.89347707,
0.01662,-1.339623607,0.01662,70.89347707,
0.01664,0.1220975699,0.01664,71.25890736,
0.01666,-2.070484195,0.01666,71.25890736,
0.01668,-0.2433327243,0.01668,71.25890736,
0.0167,0.8529581582,0.0167,71.25890736,
0.01672,-0.6087630185,0.01672,71.25890736,
0.01674,1.218388452,0.01674,70.89347707,
0.01676,0.8529581582,0.01676,70.89347707,
0.01678,0.8529581582,0.01678,71.25890736,
0.0168,0.1220975699,0.0168,70.89347707,
0.01682,-0.6087630185,0.01682,71.25890736,
0.01684,0.1220975699,0.01684,70.89347707,
0.01686,0.8529581582,0.01686,70.52804678,
0.01688,0.4875278641,0.01688,71.25890736,
0.0169,-0.6087630185,0.0169,71.25890736,
0.01692,0.1220975699,0.01692,70.89347707,
0.01694,0.8529581582,0.01694,70.89347707,
0.01696,1.218388452,0.01696,70.89347707,
0.01698,0.1220975699,0.01698,70.89347707,
0.017,1.218388452,0.017,71.62433766,
0.01702,0.1220975699,0.01702,71.25890736,
0.01704,1.949249041,0.01704,71.25890736,
0.01706,0.8529581582,0.01706,71.62433766,
0.01708,-1.339623607,0.01708,71.25890736,
0.0171,0.4875278641,0.0171,70.52804678,
0.01712,-0.9741933126,0.01712,71.25890736,
0.01714,-2.070484195,0.01714,71.25890736,
0.01716,1.583818747,0.01716,70.89347707,
0.01718,-1.339623607,0.01718,71.25890736,
0.0172,1.218388452,0.0172,71.25890736,
0.01722,0.8529581582,0.01722,70.89347707,
0.01724,0.1220975699,0.01724,71.25890736,
0.01726,0.8529581582,0.01726,71.25890736,
0.01728,-1.705053901,0.01728,71.25890736,
0.0173,-2.070484195,0.0173,70.89347707,
0.01732,-2.801344783,0.01732,71.25890736,
0.01734,0.1220975699,0.01734,70.52804678,
0.01736,-0.9741933126,0.01736,71.62433766,
0.01738,-3.166775078,0.01738,70.16261648,
0.0174,-1.705053901,0.0174,71.25890736,
0.01742,-0.9741933126,0.01742,70.89347707,
0.01744,-1.705053901,0.01744,71.25890736,
0.01746,-0.2433327243,0.01746,70.89347707,
0.01748,-0.9741933126,0.01748,71.25890736,
0.0175,-0.9741933126,0.0175,71.25890736,
0.01752,-1.339623607,0.01752,71.25890736,
0.01754,-0.6087630185,0.01754,71.25890736,
0.01756,-1.705053901,0.01756,71.25890736,
0.01758,-1.339623607,0.01758,71.25890736,
0.0176,-0.9741933126,0.0176,71.25890736,
0.01762,-0.6087630185,0.01762,71.25890736,
0.01764,-0.2433327243,0.01764,71.25890736,
0.01766,1.583818747,0.01766,71.25890736,
0.01768,-0.6087630185,0.01768,71.25890736,
0.0177,0.8529581582,0.0177,70.89347707,
0.01772,0.1220975699,0.01772,71.25890736,
0.01774,-0.2433327243,0.01774,71.25890736,
0.01776,1.218388452,0.01776,70.89347707,
0.01778,0.4875278641,0.01778,71.62433766,
0.0178,-0.2433327243,0.0178,70.89347707,
0.01782,0.8529581582,0.01782,71.25890736,
0.01784,0.8529581582,0.01784,71.62433766,
0.01786,0.8529581582,0.01786,71.25890736,
0.01788,0.8529581582,0.01788,70.89347707,
0.0179,0.1220975699,0.0179,71.62433766,
0.01792,0.8529581582,0.01792,71.25890736,
0.01794,1.218388452,0.01794,71.25890736,
0.01796,0.4875278641,0.01796,71.25890736,
0.01798,0.8529581582,0.01798,71.25890736,
0.018,2.314679335,0.018,70.89347707,
0.01802,0.1220975699,0.01802,71.25890736,
0.01804,0.1220975699,0.01804,71.25890736,
0.01806,0.1220975699,0.01806,70.89347707,
0.01808,-0.9741933126,0.01808,71.62433766,
0.0181,0.1220975699,0.0181,70.89347707,
0.01812,-0.2433327243,0.01812,71.25890736,
0.01814,0.1220975699,0.01814,71.62433766,
0.01816,-0.6087630185,0.01816,70.89347707,
0.01818,-0.6087630185,0.01818,71.25890736,
0.0182,-0.2433327243,0.0182,70.89347707,
0.01822,-1.339623607,0.01822,70.52804678,
0.01824,1.949249041,0.01824,69.79718619,
0.01826,1.583818747,0.01826,71.25890736,
0.01828,-2.070484195,0.01828,70.52804678,
0.0183,-1.339623607,0.0183,71.62433766,
0.01832,-2.070484195,0.01832,71.25890736,
0.01834,-2.070484195,0.01834,70.52804678,
0.01836,-1.705053901,0.01836,70.52804678,
0.01838,-0.6087630185,0.01838,71.62433766,
0.0184,-0.2433327243,0.0184,70.89347707,
0.01842,1.218388452,0.01842,71.25890736,
0.01844,1.583818747,0.01844,71.62433766,
0.01846,-2.070484195,0.01846,70.89347707,
0.01848,-0.9741933126,0.01848,71.25890736,
0.0185,-0.6087630185,0.0185,71.62433766,
0.01852,-1.339623607,0.01852,71.25890736,
0.01854,-0.6087630185,0.01854,70.89347707,
0.01856,-1.705053901,0.01856,71.25890736,
0.01858,-0.6087630185,0.01858,70.89347707,
0.0186,-0.2433327243,0.0186,71.25890736,
0.01862,-0.2433327243,0.01862,70.52804678,
0.01864,0.4875278641,0.01864,70.89347707,
0.01866,0.8529581582,0.01866,71.25890736,
0.01868,1.218388452,0.01868,70.52804678,
0.0187,0.4875278641,0.0187,71.25890736,
0.01872,0.1220975699,0.01872,71.25890736,
0.01874,0.8529581582,0.01874,70.52804678,
0.01876,0.8529581582,0.01876,70.89347707,
0.01878,-0.6087630185,0.01878,71.25890736,
0.0188,0.4875278641,0.0188,70.52804678,
0.01882,0.1220975699,0.01882,70.89347707,
0.01884,0.1220975699,0.01884,71.25890736,
0.01886,0.8529581582,0.01886,70.52804678,
0.01888,1.218388452,0.01888,71.25890736,
0.0189,0.8529581582,0.0189,70.89347707,
0.01892,1.583818747,0.01892,70.52804678,
0.01894,2.680109629,0.01894,70.89347707,
0.01896,2.314679335,0.01896,70.89347707,
0.01898,1.218388452,0.01898,70.52804678,
0.019,1.583818747,0.019,71.25890736,
0.01902,0.8529581582,0.01902,71.25890736,
0.01904,0.1220975699,0.01904,70.52804678,
0.01906,-0.6087630185,0.01906,70.89347707,
0.01908,-0.6087630185,0.01908,70.89347707,
0.0191,-0.6087630185,0.0191,70.52804678,
0.01912,0.8529581582,0.01912,70.89347707,
0.01914,0.1220975699,0.01914,71.25890736,
0.01916,-0.2433327243,0.01916,70.52804678,
0.01918,0.8529581582,0.01918,70.89347707,
0.0192,0.8529581582,0.0192,71.25890736,
0.01922,-1.705053901,0.01922,70.52804678,
0.01924,-2.801344783,0.01924,70.89347707,
0.01926,-2.801344783,0.01926,70.89347707,
0.01928,-2.435914489,0.01928,71.62433766,
0.0193,-2.070484195,0.0193,71.98976795,
0.01932,-0.2433327243,0.01932,70.89347707,
0.01934,-2.435914489,0.01934,70.52804678,
0.01936,-2.070484195,0.01936,71.25890736,
0.01938,-0.2433327243,0.01938,70.89347707,
0.0194,-1.705053901,0.0194,70.16261648,
0.01942,-0.2433327243,0.01942,70.89347707,
0.01944,0.1220975699,0.01944,70.89347707,
0.01946,-0.2433327243,0.01946,70.52804678,
0.01948,-0.6087630185,0.01948,71.25890736,
0.0195,-0.9741933126,0.0195,70.89347707,
0.01952,-1.705053901,0.01952,70.52804678,
0.01954,-0.6087630185,0.01954,70.89347707,
0.01956,-1.705053901,0.01956,70.52804678,
0.01958,-0.6087630185,0.01958,70.52804678,
0.0196,0.8529581582,0.0196,70.89347707,
0.01962,0.4875278641,0.01962,70.89347707,
0.01964,0.4875278641,0.01964,70.52804678,
0.01966,1.218388452,0.01966,70.52804678,
0.01968,0.4875278641,0.01968,70.89347707,
0.0197,0.8529581582,0.0197,70.52804678,
0.01972,0.4875278641,0.01972,70.89347707,
0.01974,0.1220975699,0.01974,70.89347707,
0.01976,0.8529581582,0.01976,70.52804678,
0.01978,1.218388452,0.01978,71.25890736,
0.0198,0.1220975699,0.0198,71.25890736,
0.01982,0.1220975699,0.01982,70.89347707,
0.01984,0.1220975699,0.01984,71.25890736,
0.01986,0.8529581582,0.01986,71.25890736,
0.01988,1.949249041,0.01988,71.25890736,
0.0199,0.8529581582,0.0199,70.52804678,
0.01992,0.8529581582,0.01992,71.62433766,
0.01994,2.314679335,0.01994,70.89347707,
0.01996,1.218388452,0.01996,71.25890736,
0.01998,1.218388452,0.01998,71.25890736,
0.02,1.218388452,0.02,71.25890736,
0.02002,-1.705053901,0.02002,71.25890736,
0.02004,0.1220975699,0.02004,71.25890736,
0.02006,-0.6087630185,0.02006,71.25890736,
0.02008,-0.6087630185,0.02008,71.25890736,
0.0201,0.8529581582,0.0201,70.52804678,
0.02012,0.1220975699,0.02012,71.25890736,
0.02014,0.4875278641,0.02014,71.62433766,
0.02016,0.1220975699,0.02016,71.25890736,
0.02018,0.8529581582,0.02018,70.89347707,
0.0202,-0.6087630185,0.0202,71.62433766,
0.02022,0.8529581582,0.02022,70.89347707,
0.02024,0.1220975699,0.02024,71.62433766,
0.02026,-3.532205372,0.02026,70.89347707,
0.02028,-3.897635666,0.02028,70.52804678,
0.0203,-1.705053901,0.0203,72.35519825,
0.02032,-3.532205372,0.02032,70.89347707,
0.02034,-2.801344783,0.02034,70.89347707,
0.02036,0.4875278641,0.02036,71.25890736,
0.02038,0.4875278641,0.02038,71.25890736,
0.0204,-0.6087630185,0.0204,70.52804678,
0.02042,0.4875278641,0.02042,71.62433766,
0.02044,-1.339623607,0.02044,70.89347707,
0.02046,-0.2433327243,0.02046,70.89347707,
0.02048,-2.070484195,0.02048,71.25890736,
0.0205,-1.339623607,0.0205,70.89347707,
0.02052,-0.9741933126,0.02052,71.62433766,
0.02054,-1.339623607,0.02054,70.89347707,
0.02056,-1.705053901,0.02056,70.89347707,
0.02058,-0.9741933126,0.02058,71.25890736,
0.0206,0.1220975699,0.0206,70.89347707,
0.02062,1.218388452,0.02062,70.89347707,
0.02064,0.4875278641,0.02064,71.62433766,
0.02066,-0.6087630185,0.02066,70.89347707,
0.02068,0.1220975699,0.02068,70.89347707,
0.0207,0.1220975699,0.0207,71.25890736,
0.02072,-0.2433327243,0.02072,70.89347707,
0.02074,0.4875278641,0.02074,70.52804678,
0.02076,0.4875278641,0.02076,71.25890736,
0.02078,0.4875278641,0.02078,70.89347707,
0.0208,0.1220975699,0.0208,70.89347707,
0.02082,1.218388452,0.02082,71.62433766,
0.02084,-0.2433327243,0.02084,70.89347707,
0.02086,0.4875278641,0.02086,70.16261648,
0.02088,1.218388452,0.02088,71.25890736,
0.0209,1.218388452,0.0209,70.89347707,
0.02092,1.583818747,0.02092,70.52804678,
0.02094,1.218388452,0.02094,70.89347707,
0.02096,0.4875278641,0.02096,70.89347707,
0.02098,1.583818747,0.02098,70.16261648,
0.021,1.218388452,0.021,71.62433766,
0.02102,-0.2433327243,0.02102,71.25890736,
0.02104,-0.9741933126,0.02104,70.52804678,
0.02106,-0.9741933126,0.02106,71.25890736,
0.02108,-0.6087630185,0.02108,70.89347707,
0.0211,-0.6087630185,0.0211,70.89347707,
0.02112,-0.2433327243,0.02112,71.25890736,
0.02114,0.8529581582,0.02114,70.89347707,
0.02116,-0.2433327243,0.02116,71.62433766,
0.02118,1.583818747,0.02118,71.25890736,
0.0212,-0.2433327243,0.0212,70.16261648,
0.02122,-0.9741933126,0.02122,69.79718619,
0.02124,-1.339623607,0.02124,72.35519825,
0.02126,-3.166775078,0.02126,70.52804678,
0.02128,0.1220975699,0.02128,70.89347707,
0.0213,-0.9741933126,0.0213,71.62433766,
0.02132,-1.705053901,0.02132,70.89347707,
0.02134,-0.6087630185,0.02134,70.89347707,
0.02136,0.8529581582,0.02136,71.62433766,
0.02138,0.1220975699,0.02138,71.25890736,
0.0214,-2.435914489,0.0214,70.89347707,
0.02142,-0.2433327243,0.02142,71.62433766,
0.02144,-1.705053901,0.02144,70.52804678,
0.02146,-2.070484195,0.02146,70.89347707,
0.02148,-1.339623607,0.02148,71.25890736,
0.0215,-0.9741933126,0.0215,70.52804678,
0.02152,-0.9741933126,0.02152,70.52804678,
0.02154,-0.9741933126,0.02154,71.25890736,
0.02156,-0.6087630185,0.02156,70.89347707,
0.02158,1.583818747,0.02158,70.52804678,
0.0216,0.4875278641,0.0216,71.25890736,
0.02162,0.1220975699,0.02162,70.89347707,
0.02164,0.8529581582,0.02164,70.52804678,
0.02166,1.218388452,0.02166,71.62433766,
0.02168,-0.2433327243,0.02168,70.89347707,
0.0217,0.1220975699,0.0217,70.52804678,
0.02172,0.4875278641,0.02172,71.62433766,
0.02174,0.1220975699,0.02174,70.89347707,
0.02176,-0.9741933126,0.02176,70.89347707,
0.02178,0.1220975699,0.02178,71.62433766,
0.0218,1.218388452,0.0218,70.89347707,
0.02182,0.8529581582,0.02182,70.89347707,
0.02184,1.218388452,0.02184,71.25890736,
0.02186,0.4875278641,0.02186,71.25890736,
0.02188,0.8529581582,0.02188,70.52804678,
0.0219,1.949249041,0.0219,71.25890736,
0.02192,1.583818747,0.02192,71.25890736,
0.02194,0.1220975699,0.02194,70.89347707,
0.02196,0.4875278641,0.02196,71.25890736,
0.02198,-0.9741933126,0.02198,70.89347707,
0.022,-0.9741933126,0.022,70.89347707,
0.02202,-0.6087630185,0.02202,71.25890736,
0.02204,-0.2433327243,0.02204,70.89347707,
0.02206,0.1220975699,0.02206,70.89347707,
0.02208,0.1220975699,0.02208,71.25890736,
0.0221,0.4875278641,0.0221,71.62433766,
0.02212,0.4875278641,0.02212,70.89347707,
0.02214,1.218388452,0.02214,71.25890736,
0.02216,-0.9741933126,0.02216,70.89347707,
0.02218,-0.9741933126,0.02218,71.25890736,
0.0222,-1.705053901,0.0222,70.89347707,
0.02222,-2.801344783,0.02222,71.25890736,
0.02224,-2.801344783,0.02224,70.52804678,
0.02226,-0.9741933126,0.02226,71.62433766,
0.02228,-0.9741933126,0.02228,70.52804678,
0.0223,-1.705053901,0.0223,70.89347707,
0.02232,-1.339623607,0.02232,71.62433766,
0.02234,0.1220975699,0.02234,70.89347707,
0.02236,-1.339623607,0.02236,71.25890736,
0.02238,-0.9741933126,0.02238,70.89347707,
0.0224,-0.2433327243,0.0224,71.25890736,
0.02242,-1.339623607,0.02242,70.52804678,
0.02244,-1.339623607,0.02244,71.25890736,
0.02246,-2.070484195,0.02246,70.89347707,
0.02248,-1.705053901,0.02248,71.25890736,
0.0225,-1.339623607,0.0225,71.25890736,
0.02252,-1.705053901,0.02252,70.89347707,
0.02254,0.8529581582,0.02254,70.89347707,
0.02256,0.8529581582,0.02256,70.89347707,
0.02258,0.8529581582,0.02258,70.89347707,
0.0226,1.218388452,0.0226,70.52804678,
0.02262,2.314679335,0.02262,71.25890736,
0.02264,-0.6087630185,0.02264,70.89347707,
0.02266,0.1220975699,0.02266,70.89347707,
0.02268,0.1220975699,0.02268,71.25890736,
0.0227,-0.2433327243,0.0227,71.25890736,
0.02272,1.218388452,0.02272,70.89347707,
0.02274,0.4875278641,0.02274,71.25890736,
0.02276,-0.2433327243,0.02276,71.25890736,
0.02278,0.8529581582,0.02278,70.89347707,
0.0228,0.4875278641,0.0228,71.25890736,
0.02282,1.218388452,0.02282,71.25890736,
0.02284,1.583818747,0.02284,70.89347707,
0.02286,1.218388452,0.02286,71.62433766,
0.02288,0.8529581582,0.02288,71.25890736,
0.0229,0.1220975699,0.0229,70.89347707,
0.02292,1.218388452,0.02292,71.62433766,
0.02294,0.1220975699,0.02294,70.89347707,
0.02296,0.1220975699,0.02296,70.89347707,
0.02298,0.1220975699,0.02298,71.25890736,
0.023,-0.6087630185,0.023,70.89347707,
0.02302,-1.339623607,0.02302,70.89347707,
0.02304,-0.6087630185,0.02304,71.25890736,
0.02306,1.218388452,0.02306,71.25890736,
0.02308,0.1220975699,0.02308,70.89347707,
0.0231,0.4875278641,0.0231,71.62433766,
0.02312,0.4875278641,0.02312,70.16261648,
0.02314,0.1220975699,0.02314,71.25890736,
0.02316,-0.9741933126,0.02316,71.25890736,
0.02318,-2.435914489,0.02318,72.35519825,
0.0232,-2.435914489,0.0232,71.62433766,
0.02322,0.4875278641,0.02322,71.25890736,
0.02324,-0.9741933126,0.02324,71.25890736,
0.02326,-0.2433327243,0.02326,71.62433766,
0.02328,-0.6087630185,0.02328,71.98976795,
0.0233,-0.2433327243,0.0233,70.89347707,
0.02332,0.1220975699,0.02332,71.62433766,
0.02334,-0.9741933126,0.02334,71.25890736,
0.02336,-1.705053901,0.02336,71.25890736,
0.02338,-0.9741933126,0.02338,70.89347707,
0.0234,-1.339623607,0.0234,71.62433766,
0.02342,-1.339623607,0.02342,70.89347707,
0.02344,-1.705053901,0.02344,70.89347707,
0.02346,-1.339623607,0.02346,71.25890736,
0.02348,-0.6087630185,0.02348,70.52804678,
0.0235,-0.2433327243,0.0235,71.25890736,
0.02352,-0.2433327243,0.02352,71.25890736,
0.02354,0.1220975699,0.02354,71.25890736,
0.02356,1.218388452,0.02356,70.89347707,
0.02358,0.4875278641,0.02358,71.62433766,
0.0236,-0.2433327243,0.0236,71.62433766,
0.02362,0.4875278641,0.02362,70.52804678,
0.02364,-0.9741933126,0.02364,71.25890736,
0.02366,-0.2433327243,0.02366,71.25890736,
0.02368,-0.2433327243,0.02368,70.89347707,
0.0237,-0.6087630185,0.0237,71.25890736,
0.02372,-0.9741933126,0.02372,70.89347707,
0.02374,-0.9741933126,0.02374,70.89347707,
0.02376,-0.2433327243,0.02376,70.89347707,
0.02378,0.4875278641,0.02378,71.25890736,
0.0238,2.314679335,0.0238,70.89347707,
0.02382,1.949249041,0.02382,71.25890736,
0.02384,0.4875278641,0.02384,71.25890736,
0.02386,0.4875278641,0.02386,71.25890736,
0.02388,0.8529581582,0.02388,71.62433766,
0.0239,0.8529581582,0.0239,70.16261648,
0.02392,0.1220975699,0.02392,70.89347707,
0.02394,-0.6087630185,0.02394,71.25890736,
0.02396,-0.9741933126,0.02396,71.25890736,
0.02398,-0.9741933126,0.02398,70.89347707,
0.024,0.1220975699,0.024,71.25890736,
0.02402,-0.6087630185,0.02402,70.89347707,
0.02404,0.1220975699,0.02404,70.52804678,
0.02406,1.218388452,0.02406,71.62433766,
0.02408,-0.2433327243,0.02408,71.62433766,
0.0241,-0.9741933126,0.0241,70.89347707,
0.02412,0.1220975699,0.02412,71.25890736,
0.02414,-0.6087630185,0.02414,70.52804678,
0.02416,-2.801344783,0.02416,71.25890736,
0.02418,-2.070484195,0.02418,71.25890736,
0.0242,-3.897635666,0.0242,71.62433766,
0.02422,-3.166775078,0.02422,70.89347707,
0.02424,-2.070484195,0.02424,70.16261648,
0.02426,-2.070484195,0.02426,71.62433766,
0.02428,0.4875278641,0.02428,70.89347707,
0.0243,0.1220975699,0.0243,70.52804678,
0.02432,0.1220975699,0.02432,71.25890736,
0.02434,-0.6087630185,0.02434,70.52804678,
0.02436,-0.6087630185,0.02436,70.52804678,
0.02438,-1.339623607,0.02438,70.89347707,
0.0244,-2.070484195,0.0244,71.25890736,
0.02442,-2.070484195,0.02442,70.52804678,
0.02444,-0.9741933126,0.02444,70.89347707,
0.02446,-0.6087630185,0.02446,70.52804678,
0.02448,-0.2433327243,0.02448,70.89347707,
0.0245,0.4875278641,0.0245,70.52804678,
0.02452,0.4875278641,0.02452,70.89347707,
0.02454,0.4875278641,0.02454,70.52804678,
0.02456,0.8529581582,0.02456,70.89347707,
0.02458,0.4875278641,0.02458,70.52804678,
0.0246,0.4875278641,0.0246,70.52804678,
0.02462,0.8529581582,0.02462,71.25890736,
0.02464,-0.2433327243,0.02464,71.25890736,
0.02466,0.1220975699,0.02466,70.52804678,
0.02468,1.583818747,0.02468,70.89347707,
0.0247,0.4875278641,0.0247,70.52804678,
0.02472,-0.2433327243,0.02472,70.16261648,
0.02474,0.1220975699,0.02474,71.62433766,
0.02476,0.4875278641,0.02476,70.89347707,
0.02478,1.218388452,0.02478,70.52804678,
0.0248,1.583818747,0.0248,70.89347707,
0.02482,1.949249041,0.02482,70.89347707,
0.02484,1.218388452,0.02484,70.52804678,
0.02486,1.218388452,0.02486,70.52804678,
0.02488,0.4875278641,0.02488,71.25890736,
0.0249,1.218388452,0.0249,70.52804678,
0.02492,0.4875278641,0.02492,70.89347707,
0.02494,0.1220975699,0.02494,70.89347707,
0.02496,0.1220975699,0.02496,70.89347707,
0.02498,0.4875278641,0.02498,71.25890736,
0.025,0.1220975699,0.025,70.89347707,
0.02502,1.583818747,0.02502,71.25890736,
0.02504,0.1220975699,0.02504,71.25890736,
0.02506,1.583818747,0.02506,71.25890736,
0.02508,-0.2433327243,0.02508,71.25890736,
0.0251,-0.6087630185,0.0251,70.89347707,
0.02512,1.218388452,0.02512,70.89347707,
0.02514,-0.2433327243,0.02514,70.16261648,
0.02516,-4.628496254,0.02516,71.25890736,
0.02518,-3.532205372,0.02518,71.98976795,
0.0252,-2.070484195,0.0252,71.98976795,
0.02522,-2.070484195,0.02522,71.25890736,
0.02524,-1.705053901,0.02524,71.62433766,
0.02526,-0.2433327243,0.02526,71.62433766,
0.02528,0.1220975699,0.02528,71.25890736,
0.0253,-0.6087630185,0.0253,70.89347707,
0.02532,-0.2433327243,0.02532,71.25890736,
0.02534,-1.705053901,0.02534,71.25890736,
0.02536,-1.705053901,0.02536,70.89347707,
0.02538,-0.9741933126,0.02538,71.62433766,
0.0254,-2.070484195,0.0254,70.89347707,
0.02542,-2.070484195,0.02542,70.89347707,
0.02544,-1.339623607,0.02544,71.25890736,
0.02546,-0.2433327243,0.02546,70.89347707,
0.02548,0.1220975699,0.02548,70.52804678,
0.0255,1.218388452,0.0255,71.25890736,
0.02552,0.4875278641,0.02552,70.89347707,
0.02554,0.1220975699,0.02554,70.89347707,
0.02556,1.218388452,0.02556,70.89347707,
0.02558,0.1220975699,0.02558,70.89347707,
0.0256,-0.2433327243,0.0256,70.89347707,
0.02562,0.1220975699,0.02562,71.62433766,
0.02564,-0.2433327243,0.02564,70.89347707,
0.02566,0.1220975699,0.02566,70.89347707,
0.02568,0.1220975699,0.02568,71.25890736,
0.0257,-0.2433327243,0.0257,70.52804678,
0.02572,0.4875278641,0.02572,70.89347707,
0.02574,0.4875278641,0.02574,71.25890736,
0.02576,1.218388452,0.02576,71.25890736,
0.02578,-0.2433327243,0.02578,70.52804678,
0.0258,1.949249041,0.0258,70.89347707,
0.02582,0.4875278641,0.02582,70.89347707,
0.02584,1.218388452,0.02584,70.52804678,
0.02586,-0.2433327243,0.02586,71.62433766,
0.02588,-0.9741933126,0.02588,70.89347707,
0.0259,-0.2433327243,0.0259,70.52804678,
0.02592,-0.9741933126,0.02592,71.62433766,
0.02594,-0.9741933126,0.02594,70.89347707,
0.02596,-0.9741933126,0.02596,70.89347707,
0.02598,0.4875278641,0.02598,71.62433766,
0.026,1.218388452,0.026,70.89347707,
0.02602,1.583818747,0.02602,70.89347707,
0.02604,-1.339623607,0.02604,70.89347707,
0.02606,-1.339623607,0.02606,70.52804678,
0.02608,-1.339623607,0.02608,71.25890736,
0.0261,-0.9741933126,0.0261,70.89347707,
0.02612,-0.9741933126,0.02612,70.52804678,
0.02614,-3.897635666,0.02614,70.52804678,
0.02616,-2.801344783,0.02616,70.16261648,
0.02618,-2.435914489,0.02618,71.98976795,
0.0262,0.1220975699,0.0262,70.52804678,
0.02622,-2.070484195,0.02622,70.52804678,
0.02624,0.1220975699,0.02624,70.89347707,
0.02626,-2.070484195,0.02626,71.62433766,
0.02628,-0.6087630185,0.02628,70.52804678,
0.0263,-1.705053901,0.0263,70.52804678,
0.02632,-0.9741933126,0.02632,71.25890736,
0.02634,-2.435914489,0.02634,70.89347707,
0.02636,-1.339623607,0.02636,70.89347707,
0.02638,-1.705053901,0.02638,71.25890736,
0.0264,-2.070484195,0.0264,70.89347707,
0.02642,-0.6087630185,0.02642,70.52804678,
0.02644,0.1220975699,0.02644,71.62433766,
0.02646,-0.6087630185,0.02646,71.25890736,
0.02648,0.1220975699,0.02648,70.89347707,
0.0265,0.4875278641,0.0265,71.62433766,
0.02652,0.1220975699,0.02652,71.25890736,
0.02654,-0.6087630185,0.02654,70.89347707,
0.02656,0.1220975699,0.02656,71.62433766,
0.02658,0.1220975699,0.02658,70.52804678,
0.0266,0.4875278641,0.0266,70.52804678,
0.02662,0.8529581582,0.02662,71.25890736,
0.02664,-0.9741933126,0.02664,70.89347707,
0.02666,0.1220975699,0.02666,70.52804678,
0.02668,0.1220975699,0.02668,71.25890736,
0.0267,-0.2433327243,0.0267,71.25890736,
0.02672,-0.6087630185,0.02672,70.89347707,
0.02674,1.583818747,0.02674,71.25890736,
0.02676,0.8529581582,0.02676,71.25890736,
0.02678,1.218388452,0.02678,70.52804678,
0.0268,1.583818747,0.0268,71.25890736,
0.02682,0.4875278641,0.02682,70.89347707,
0.02684,0.1220975699,0.02684,70.52804678,
0.02686,0.1220975699,0.02686,71.62433766,
0.02688,-1.339623607,0.02688,71.25890736,
0.0269,0.4875278641,0.0269,70.52804678,
0.02692,0.4875278641,0.02692,71.25890736,
0.02694,-0.9741933126,0.02694,71.25890736,
0.02696,-0.2433327243,0.02696,70.89347707,
0.02698,0.4875278641,0.02698,71.62433766,
0.027,-0.2433327243,0.027,70.89347707,
0.02702,0.4875278641,0.02702,70.52804678,
0.02704,-0.9741933126,0.02704,71.62433766,
0.02706,-1.339623607,0.02706,71.25890736,
0.02708,-3.532205372,0.02708,70.16261648,
0.0271,-2.070484195,0.0271,70.89347707,
0.02712,-3.897635666,0.02712,71.25890736,
0.02714,-3.897635666,0.02714,71.25890736,
0.02716,0.8529581582,0.02716,72.35519825,
0.02718,-2.435914489,0.02718,70.52804678,
0.0272,-2.070484195,0.0272,70.52804678,
0.02722,0.1220975699,0.02722,71.25890736,
0.02724,-0.9741933126,0.02724,71.62433766,
0.02726,-1.705053901,0.02726,70.52804678,
0.02728,-0.6087630185,0.02728,71.62433766,
0.0273,-0.9741933126,0.0273,70.89347707,
0.02732,-0.9741933126,0.02732,70.52804678,
0.02734,-1.339623607,0.02734,71.25890736,
0.02736,-1.705053901,0.02736,70.89347707,
0.02738,-2.070484195,0.02738,70.89347707,
0.0274,-0.6087630185,0.0274,71.25890736,
0.02742,-1.339623607,0.02742,70.52804678,
0.02744,-0.2433327243,0.02744,70.52804678,
0.02746,0.1220975699,0.02746,71.25890736,
0.02748,0.8529581582,0.02748,71.25890736,
0.0275,-0.9741933126,0.0275,70.89347707,
0.02752,0.8529581582,0.02752,71.25890736,
0.02754,0.1220975699,0.02754,70.89347707,
0.02756,0.8529581582,0.02756,70.52804678,
0.02758,-0.2433327243,0.02758,71.25890736,
0.0276,-0.9741933126,0.0276,70.52804678,
0.02762,0.4875278641,0.02762,70.52804678,
0.02764,-0.6087630185,0.02764,71.25890736,
0.02766,-0.2433327243,0.02766,70.89347707,
0.02768,-0.2433327243,0.02768,70.89347707,
0.0277,1.218388452,0.0277,71.25890736,
0.02772,1.218388452,0.02772,70.89347707,
0.02774,1.218388452,0.02774,70.52804678,
0.02776,2.680109629,0.02776,71.25890736,
0.02778,0.4875278641,0.02778,70.89347707,
0.0278,0.8529581582,0.0278,70.89347707,
0.02782,0.4875278641,0.02782,71.25890736,
0.02784,-0.6087630185,0.02784,70.89347707,
0.02786,-0.9741933126,0.02786,70.89347707,
0.02788,-0.2433327243,0.02788,71.25890736,
0.0279,-1.705053901,0.0279,70.89347707,
0.02792,-2.070484195,0.02792,70.89347707,
0.02794,-0.9741933126,0.02794,71.25890736,
0.02796,-0.6087630185,0.02796,70.89347707,
0.02798,0.4875278641,0.02798,70.52804678,
0.028,1.218388452,0.028,71.98976795,
0.02802,-2.070484195,0.02802,70.89347707,
0.02804,-0.6087630185,0.02804,70.52804678,
0.02806,-2.070484195,0.02806,71.25890736,
0.02808,-0.9741933126,0.02808,69.79718619,
0.0281,-3.532205372,0.0281,70.52804678,
0.02812,-3.532205372,0.02812,70.52804678,
0.02814,-1.339623607,0.02814,71.62433766,
0.02816,-2.435914489,0.02816,70.89347707,
0.02818,-0.6087630185,0.02818,71.25890736,
0.0282,-2.070484195,0.0282,71.25890736,
0.02822,0.4875278641,0.02822,70.89347707,
0.02824,-0.9741933126,0.02824,71.25890736,
0.02826,-2.801344783,0.02826,71.62433766,
0.02828,-0.9741933126,0.02828,70.89347707,
0.0283,-0.6087630185,0.0283,71.62433766,
0.02832,-1.339623607,0.02832,71.25890736,
0.02834,-0.6087630185,0.02834,70.52804678,
0.02836,-1.339623607,0.02836,71.62433766,
0.02838,-0.6087630185,0.02838,70.89347707,
0.0284,0.1220975699,0.0284,70.89347707,
0.02842,-0.2433327243,0.02842,71.25890736,
0.02844,0.1220975699,0.02844,70.52804678,
0.02846,0.4875278641,0.02846,71.25890736,
0.02848,0.1220975699,0.02848,71.62433766,
0.0285,-0.2433327243,0.0285,71.25890736,
0.02852,0.8529581582,0.02852,70.52804678,
0.02854,0.4875278641,0.02854,71.62433766,
0.02856,1.218388452,0.02856,70.89347707,
0.02858,0.4875278641,0.02858,70.52804678,
0.0286,0.8529581582,0.0286,71.25890736,
0.02862,0.1220975699,0.02862,70.89347707,
0.02864,-0.2433327243,0.02864,70.89347707,
0.02866,1.218388452,0.02866,71.25890736,
0.02868,0.8529581582,0.02868,70.89347707,
0.0287,1.583818747,0.0287,70.89347707,
0.02872,1.949249041,0.02872,71.25890736,
0.02874,1.949249041,0.02874,70.89347707,
0.02876,0.8529581582,0.02876,71.25890736,
0.02878,0.1220975699,0.02878,71.25890736,
0.0288,-0.2433327243,0.0288,70.89347707,
0.02882,0.1220975699,0.02882,70.52804678,
0.02884,-0.9741933126,0.02884,71.25890736,
0.02886,-0.6087630185,0.02886,71.25890736,
0.02888,-0.6087630185,0.02888,70.89347707,
0.0289,1.218388452,0.0289,71.25890736,
0.02892,-0.2433327243,0.02892,70.89347707,
0.02894,0.8529581582,0.02894,70.89347707,
0.02896,0.8529581582,0.02896,71.62433766,
0.02898,1.949249041,0.02898,71.25890736,
0.029,2.680109629,0.029,70.89347707,
0.02902,1.218388452,0.02902,71.25890736,
0.02904,-1.705053901,0.02904,70.89347707,
0.02906,0.4875278641,0.02906,70.89347707,
0.02908,-2.801344783,0.02908,72.35519825,
0.0291,-1.339623607,0.0291,70.89347707,
0.02912,-2.070484195,0.02912,70.89347707,
0.02914,0.1220975699,0.02914,72.35519825,
0.02916,-1.339623607,0.02916,71.25890736,
0.02918,-0.9741933126,0.02918,70.89347707,
0.0292,-0.6087630185,0.0292,71.62433766,
0.02922,-0.9741933126,0.02922,71.25890736,
0.02924,-0.6087630185,0.02924,71.25890736,
0.02926,-2.070484195,0.02926,71.25890736,
0.02928,-1.705053901,0.02928,70.89347707,
0.0293,-0.2433327243,0.0293,71.25890736,
0.02932,-1.339623607,0.02932,71.62433766,
0.02934,-1.705053901,0.02934,71.25890736,
0.02936,0.1220975699,0.02936,70.89347707,
0.02938,-0.2433327243,0.02938,71.25890736,
0.0294,0.4875278641,0.0294,71.25890736,
0.02942,-0.2433327243,0.02942,71.25890736,
0.02944,1.218388452,0.02944,71.25890736,
0.02946,-0.2433327243,0.02946,70.89347707,
0.02948,0.4875278641,0.02948,70.52804678,
0.0295,-0.9741933126,0.0295,71.25890736,
0.02952,0.4875278641,0.02952,70.89347707,
0.02954,-0.6087630185,0.02954,71.25890736,
0.02956,0.4875278641,0.02956,71.25890736,
0.02958,0.1220975699,0.02958,71.25890736,
0.0296,1.218388452,0.0296,70.52804678,
0.02962,0.8529581582,0.02962,71.62433766,
0.02964,0.8529581582,0.02964,71.25890736,
0.02966,2.314679335,0.02966,70.89347707,
0.02968,1.949249041,0.02968,71.25890736,
0.0297,1.583818747,0.0297,70.89347707,
0.02972,1.218388452,0.02972,70.89347707,
0.02974,1.218388452,0.02974,71.25890736,
0.02976,0.1220975699,0.02976,71.25890736,
0.02978,0.1220975699,0.02978,70.89347707,
0.0298,0.1220975699,0.0298,71.62433766,
0.02982,-0.2433327243,0.02982,70.89347707,
0.02984,0.4875278641,0.02984,71.25890736,
0.02986,-0.2433327243,0.02986,71.25890736,
0.02988,-1.339623607,0.02988,71.62433766,
0.0299,-0.6087630185,0.0299,70.89347707,
0.02992,0.1220975699,0.02992,71.62433766,
0.02994,-0.6087630185,0.02994,71.25890736,
0.02996,0.1220975699,0.02996,70.16261648,
0.02998,2.314679335,0.02998,71.25890736,
0.03,-1.705053901,0.03,70.16261648,
0.03002,-0.6087630185,0.03002,71.62433766,
0.03004,-1.339623607,0.03004,71.25890736,
0.03006,-0.9741933126,0.03006,70.16261648,
0.03008,-3.532205372,0.03008,70.52804678,
0.0301,-2.435914489,0.0301,70.52804678,
0.03012,1.218388452,0.03012,71.25890736,
0.03014,0.4875278641,0.03014,71.25890736,
0.03016,-0.6087630185,0.03016,70.89347707,
0.03018,0.4875278641,0.03018,71.25890736,
0.0302,0.4875278641,0.0302,70.89347707,
0.03022,-0.9741933126,0.03022,70.89347707,
0.03024,-0.9741933126,0.03024,70.89347707,
0.03026,-0.6087630185,0.03026,70.89347707,
0.03028,-1.339623607,0.03028,70.89347707,
0.0303,-1.705053901,0.0303,71.62433766,
0.03032,-0.9741933126,0.03032,70.89347707,
0.03034,0.1220975699,0.03034,71.25890736,
0.03036,0.1220975699,0.03036,70.89347707,
0.03038,1.949249041,0.03038,70.89347707,
0.0304,0.8529581582,0.0304,71.25890736,
0.03042,1.218388452,0.03042,71.62433766,
0.03044,0.8529581582,0.03044,71.25890736,
0.03046,1.583818747,0.03046,70.89347707,
0.03048,-0.2433327243,0.03048,71.25890736,
0.0305,0.1220975699,0.0305,70.89347707,
0.03052,0.4875278641,0.03052,71.25890736,
0.03054,0.1220975699,0.03054,71.25890736,
0.03056,-0.2433327243,0.03056,71.25890736,
0.03058,1.218388452,0.03058,70.89347707,
0.0306,-0.2433327243,0.0306,71.25890736,
0.03062,1.583818747,0.03062,70.89347707,
0.03064,2.314679335,0.03064,70.52804678,
0.03066,2.314679335,0.03066,71.25890736,
0.03068,0.8529581582,0.03068,71.25890736,
0.0307,1.218388452,0.0307,70.89347707,
0.03072,1.583818747,0.03072,71.25890736,
0.03074,0.1220975699,0.03074,70.89347707,
0.03076,1.218388452,0.03076,70.89347707,
0.03078,0.1220975699,0.03078,71.62433766,
0.0308,-0.2433327243,0.0308,70.89347707,
0.03082,-0.9741933126,0.03082,70.52804678,
0.03084,-0.9741933126,0.03084,71.25890736,
0.03086,-0.2433327243,0.03086,70.89347707,
0.03088,1.218388452,0.03088,70.52804678,
0.0309,0.1220975699,0.0309,70.52804678,
0.03092,0.1220975699,0.03092,70.52804678,
0.03094,1.218388452,0.03094,70.89347707,
0.03096,-1.705053901,0.03096,71.25890736,
0.03098,-0.6087630185,0.03098,70.89347707,
0.031,-1.339623607,0.031,70.89347707,
0.03102,-4.26306596,0.03102,71.25890736,
0.03104,-1.339623607,0.03104,71.62433766,
0.03106,-3.897635666,0.03106,71.62433766,
0.03108,-3.532205372,0.03108,70.89347707,
0.0311,-2.435914489,0.0311,70.52804678,
0.03112,0.1220975699,0.03112,71.62433766,
0.03114,0.1220975699,0.03114,70.52804678,
0.03116,-0.2433327243,0.03116,71.62433766,
0.03118,-1.705053901,0.03118,71.62433766,
0.0312,-1.339623607,0.0312,71.25890736,
0.03122,-2.070484195,0.03122,70.89347707,
0.03124,-2.435914489,0.03124,71.98976795,
0.03126,-2.435914489,0.03126,71.25890736,
0.03128,-0.6087630185,0.03128,70.89347707,
0.0313,-0.9741933126,0.0313,71.25890736,
0.03132,-1.339623607,0.03132,70.89347707,
0.03134,0.1220975699,0.03134,70.89347707,
0.03136,0.4875278641,0.03136,71.25890736,
0.03138,0.4875278641,0.03138,71.25890736,
0.0314,0.8529581582,0.0314,70.89347707,
0.03142,1.218388452,0.03142,71.25890736,
0.03144,-0.2433327243,0.03144,70.89347707,
0.03146,0.8529581582,0.03146,70.89347707,
0.03148,0.4875278641,0.03148,71.62433766,
0.0315,0.4875278641,0.0315,70.89347707,
0.03152,0.8529581582,0.03152,70.89347707,
0.03154,0.1220975699,0.03154,71.62433766,
0.03156,-1.705053901,0.03156,70.89347707,
0.03158,0.8529581582,0.03158,71.25890736,
0.0316,0.8529581582,0.0316,71.62433766,
0.03162,0.1220975699,0.03162,70.89347707,
0.03164,0.8529581582,0.03164,70.89347707,
0.03166,1.583818747,0.03166,71.62433766,
0.03168,0.4875278641,0.03168,71.25890736,
0.0317,1.583818747,0.0317,70.89347707,
0.03172,0.4875278641,0.03172,71.25890736,
0.03174,-0.2433327243,0.03174,70.89347707,
0.03176,-0.2433327243,0.03176,71.25890736,
0.03178,-1.339623607,0.03178,71.62433766,
0.0318,-1.705053901,0.0318,70.89347707,
0.03182,0.1220975699,0.03182,71.25890736,
0.03184,0.4875278641,0.03184,71.25890736,
0.03186,0.4875278641,0.03186,71.25890736,
0.03188,0.8529581582,0.03188,70.89347707,
0.0319,-0.9741933126,0.0319,71.62433766,
0.03192,-1.339623607,0.03192,71.25890736,
0.03194,-2.801344783,0.03194,70.89347707,
0.03196,-0.9741933126,0.03196,70.52804678,
0.03198,-1.705053901,0.03198,70.89347707,
0.032,-3.897635666,0.032,71.25890736,
0.03202,-1.705053901,0.03202,70.52804678,
0.03204,-4.26306596,0.03204,71.25890736,
0.03206,-1.339623607,0.03206,70.89347707,
0.03208,-0.9741933126,0.03208,71.62433766,
0.0321,0.1220975699,0.0321,71.25890736,
0.03212,0.1220975699,0.03212,70.89347707,
0.03214,-1.339623607,0.03214,70.89347707,
0.03216,-1.339623607,0.03216,70.89347707,
0.03218,0.4875278641,0.03218,70.52804678,
0.0322,-1.705053901,0.0322,71.25890736,
0.03222,-2.070484195,0.03222,71.25890736,
0.03224,0.1220975699,0.03224,70.89347707,
0.03226,-2.070484195,0.03226,71.62433766,
0.03228,-1.339623607,0.03228,71.25890736,
0.0323,0.4875278641,0.0323,70.89347707,
0.03232,-0.2433327243,0.03232,71.25890736,
0.03234,-0.6087630185,0.03234,71.25890736,
0.03236,1.218388452,0.03236,70.89347707,
0.03238,0.4875278641,0.03238,71.25890736,
0.0324,-0.2433327243,0.0324,70.89347707,
0.03242,0.4875278641,0.03242,70.52804678,
0.03244,0.8529581582,0.03244,70.89347707,
0.03246,-0.2433327243,0.03246,70.89347707,
0.03248,0.8529581582,0.03248,70.89347707,
0.0325,0.4875278641,0.0325,70.89347707,
0.03252,-1.339623607,0.03252,70.89347707,
0.03254,-0.6087630185,0.03254,70.89347707,
0.03256,0.4875278641,0.03256,71.25890736,
0.03258,0.1220975699,0.03258,71.25890736,
0.0326,0.8529581582,0.0326,71.25890736,
0.03262,1.218388452,0.03262,71.62433766,
0.03264,1.949249041,0.03264,70.52804678,
0.03266,1.583818747,0.03266,70.89347707,
0.03268,0.1220975699,0.03268,71.25890736,
0.0327,-1.705053901,0.0327,70.89347707,
0.03272,0.4875278641,0.03272,70.89347707,
0.03274,-0.9741933126,0.03274,71.25890736,
0.03276,-1.339623607,0.03276,70.89347707,
0.03278,0.1220975699,0.03278,70.52804678,
0.0328,-1.339623607,0.0328,71.25890736,
0.03282,-0.6087630185,0.03282,70.89347707,
0.03284,1.218388452,0.03284,70.89347707,
0.03286,1.949249041,0.03286,70.52804678,
0.03288,-1.705053901,0.03288,70.16261648,
0.0329,-0.2433327243,0.0329,70.16261648,
0.03292,-2.070484195,0.03292,71.25890736,
0.03294,-2.801344783,0.03294,70.52804678,
0.03296,-0.6087630185,0.03296,71.98976795,
0.03298,-3.897635666,0.03298,70.52804678,
0.033,-3.166775078,0.033,70.89347707,
0.03302,1.949249041,0.03302,71.25890736,
0.03304,-1.339623607,0.03304,71.25890736,
0.03306,-2.070484195,0.03306,69.79718619,
0.03308,-0.9741933126,0.03308,70.89347707,
0.0331,-0.6087630185,0.0331,70.89347707,
0.03312,-2.435914489,0.03312,70.52804678,
0.03314,-1.705053901,0.03314,70.52804678,
0.03316,-1.339623607,0.03316,70.89347707,
0.03318,-0.2433327243,0.03318,70.52804678,
0.0332,-1.705053901,0.0332,71.25890736,
0.03322,-0.9741933126,0.03322,70.89347707,
0.03324,-1.339623607,0.03324,70.52804678,
0.03326,-0.9741933126,0.03326,70.89347707,
0.03328,-0.2433327243,0.03328,70.89347707,
0.0333,0.4875278641,0.0333,70.89347707,
0.03332,0.8529581582,0.03332,70.89347707,
0.03334,0.8529581582,0.03334,70.89347707,
0.03336,0.8529581582,0.03336,70.89347707,
0.03338,0.8529581582,0.03338,70.89347707,
0.0334,-0.2433327243,0.0334,70.52804678,
0.03342,0.1220975699,0.03342,70.52804678,
0.03344,0.4875278641,0.03344,70.52804678,
0.03346,0.8529581582,0.03346,71.25890736,
0.03348,0.1220975699,0.03348,70.52804678,
0.0335,0.8529581582,0.0335,70.52804678,
0.03352,1.583818747,0.03352,70.89347707,
0.03354,0.4875278641,0.03354,70.52804678,
0.03356,1.583818747,0.03356,70.89347707,
0.03358,1.949249041,0.03358,70.89347707,
0.0336,0.8529581582,0.0336,70.52804678,
0.03362,1.949249041,0.03362,70.89347707,
0.03364,1.583818747,0.03364,70.89347707,
0.03366,0.8529581582,0.03366,70.52804678,
0.03368,1.583818747,0.03368,70.89347707,
0.0337,-0.2433327243,0.0337,70.89347707,
0.03372,-0.2433327243,0.03372,70.52804678,
0.03374,0.8529581582,0.03374,70.89347707,
0.03376,-0.6087630185,0.03376,70.89347707,
0.03378,-0.9741933126,0.03378,70.52804678,
0.0338,0.4875278641,0.0338,70.52804678,
0.03382,-0.2433327243,0.03382,71.25890736,
0.03384,-0.2433327243,0.03384,70.52804678,
0.03386,-0.6087630185,0.03386,71.25890736,
0.03388,1.583818747,0.03388,70.16261648,
0.0339,-2.070484195,0.0339,70.16261648,
0.03392,-2.801344783,0.03392,70.89347707,
0.03394,-2.435914489,0.03394,71.62433766,
0.03396,-1.705053901,0.03396,70.16261648,
0.03398,-0.6087630185,0.03398,71.62433766,
0.034,-2.801344783,0.034,70.89347707,
0.03402,-2.801344783,0.03402,70.52804678,
0.03404,-1.339623607,0.03404,70.89347707,
0.03406,-1.339623607,0.03406,70.89347707,
0.03408,-0.6087630185,0.03408,70.52804678,
0.0341,-1.339623607,0.0341,70.52804678,
0.03412,-1.339623607,0.03412,70.89347707,
0.03414,-1.705053901,0.03414,70.89347707,
0.03416,-1.705053901,0.03416,71.25890736,
0.03418,-1.339623607,0.03418,70.89347707,
0.0342,-2.070484195,0.0342,70.52804678,
0.03422,0.1220975699,0.03422,70.89347707,
0.03424,-0.2433327243,0.03424,70.89347707,
0.03426,-0.2433327243,0.03426,70.52804678,
0.03428,0.4875278641,0.03428,70.89347707,
0.0343,0.1220975699,0.0343,70.52804678,
0.03432,1.949249041,0.03432,70.89347707,
0.03434,0.1220975699,0.03434,70.89347707,
0.03436,-0.6087630185,0.03436,71.25890736,
0.03438,-0.2433327243,0.03438,70.52804678,
0.0344,1.583818747,0.0344,70.89347707,
0.03442,-0.2433327243,0.03442,70.89347707,
0.03444,0.1220975699,0.03444,70.52804678,
0.03446,0.8529581582,0.03446,70.52804678,
0.03448,0.1220975699,0.03448,71.25890736,
0.0345,-0.2433327243,0.0345,70.52804678,
0.03452,1.218388452,0.03452,70.52804678,
0.03454,0.8529581582,0.03454,70.89347707,
0.03456,0.4875278641,0.03456,70.89347707,
0.03458,1.583818747,0.03458,70.89347707,
0.0346,1.949249041,0.0346,70.89347707,
0.03462,1.583818747,0.03462,70.16261648,
0.03464,1.218388452,0.03464,70.89347707,
0.03466,0.4875278641,0.03466,70.89347707,
0.03468,-0.2433327243,0.03468,70.89347707,
0.0347,-0.9741933126,0.0347,70.89347707,
0.03472,-0.9741933126,0.03472,70.89347707,
0.03474,-0.9741933126,0.03474,70.52804678,
0.03476,-1.339623607,0.03476,70.89347707,
0.03478,0.8529581582,0.03478,70.52804678,
0.0348,0.1220975699,0.0348,71.25890736,
0.03482,-1.705053901,0.03482,71.25890736,
0.03484,-0.9741933126,0.03484,70.89347707,
0.03486,1.949249041,0.03486,71.62433766,
0.03488,-3.166775078,0.03488,71.98976795,
0.0349,-1.339623607,0.0349,70.52804678,
0.03492,-3.166775078,0.03492,71.98976795,
0.03494,-1.705053901,0.03494,69.43175589,
0.03496,-2.801344783,0.03496,70.52804678,
0.03498,-3.532205372,0.03498,70.52804678,
0.035,-2.435914489,0.035,70.52804678,
0.03502,-0.2433327243,0.03502,69.79718619,
0.03504,-0.6087630185,0.03504,71.25890736,
0.03506,-1.705053901,0.03506,70.52804678,
0.03508,-0.6087630185,0.03508,70.89347707,
0.0351,0.1220975699,0.0351,71.62433766,
0.03512,-0.9741933126,0.03512,70.89347707,
0.03514,-1.705053901,0.03514,70.89347707,
0.03516,-1.339623607,0.03516,71.25890736,
0.03518,-0.6087630185,0.03518,70.89347707,
0.0352,-1.339623607,0.0352,70.89347707,
0.03522,-1.339623607,0.03522,70.89347707,
0.03524,-0.2433327243,0.03524,71.25890736,
0.03526,0.1220975699,0.03526,70.89347707,
0.03528,0.8529581582,0.03528,71.25890736,
0.0353,0.4875278641,0.0353,71.25890736,
0.03532,0.4875278641,0.03532,70.89347707,
0.03534,0.4875278641,0.03534,70.89347707,
0.03536,0.8529581582,0.03536,71.25890736,
0.03538,0.1220975699,0.03538,71.25890736,
0.0354,0.4875278641,0.0354,71.25890736,
0.03542,0.8529581582,0.03542,71.62433766,
0.03544,0.4875278641,0.03544,70.89347707,
0.03546,0.1220975699,0.03546,70.89347707,
0.03548,-0.2433327243,0.03548,71.25890736,
0.0355,0.1220975699,0.0355,71.25890736,
0.03552,0.4875278641,0.03552,70.89347707,
0.03554,0.1220975699,0.03554,70.89347707,
0.03556,0.8529581582,0.03556,70.89347707,
0.03558,0.4875278641,0.03558,70.89347707,
0.0356,0.1220975699,0.0356,70.52804678,
0.03562,0.1220975699,0.03562,70.52804678,
0.03564,-0.2433327243,0.03564,71.25890736,
0.03566,-0.2433327243,0.03566,70.89347707,
0.03568,-0.2433327243,0.03568,70.89347707,
0.0357,-0.9741933126,0.0357,71.25890736,
0.03572,-0.6087630185,0.03572,70.89347707,
0.03574,0.1220975699,0.03574,70.52804678,
0.03576,-0.2433327243,0.03576,71.62433766,
0.03578,0.4875278641,0.03578,70.89347707,
0.0358,-0.2433327243,0.0358,70.52804678,
0.03582,-0.6087630185,0.03582,71.25890736,
0.03584,-0.2433327243,0.03584,71.62433766,
0.03586,-3.166775078,0.03586,71.25890736,
0.03588,-0.6087630185,0.03588,71.25890736,
0.0359,-1.705053901,0.0359,71.62433766,
0.03592,-2.435914489,0.03592,71.25890736,
0.03594,-1.339623607,0.03594,71.98976795,
0.03596,-3.166775078,0.03596,71.25890736,
0.03598,-0.6087630185,0.03598,70.52804678,
0.036,-2.070484195,0.036,71.25890736,
0.03602,-1.339623607,0.03602,70.52804678,
0.03604,0.4875278641,0.03604,70.52804678,
0.03606,-0.9741933126,0.03606,71.62433766,
0.03608,-1.705053901,0.03608,70.52804678,
0.0361,-0.9741933126,0.0361,70.52804678,
0.03612,-1.339623607,0.03612,70.89347707,
0.03614,-1.339623607,0.03614,70.89347707,
0.03616,-1.705053901,0.03616,70.52804678,
0.03618,-0.9741933126,0.03618,71.25890736,
0.0362,-1.705053901,0.0362,71.25890736,
0.03622,-0.9741933126,0.03622,70.89347707,
0.03624,0.8529581582,0.03624,71.62433766,
0.03626,-0.6087630185,0.03626,70.89347707,
0.03628,-0.2433327243,0.03628,71.25890736,
0.0363,0.8529581582,0.0363,71.25890736,
0.03632,0.4875278641,0.03632,71.25890736,
0.03634,-0.6087630185,0.03634,70.89347707,
0.03636,1.949249041,0.03636,71.25890736,
0.03638,-0.2433327243,0.03638,70.16261648,
0.0364,-0.6087630185,0.0364,70.52804678,
0.03642,0.1220975699,0.03642,71.25890736,
0.03644,-0.6087630185,0.03644,70.89347707,
0.03646,0.4875278641,0.03646,70.52804678,
0.03648,0.1220975699,0.03648,71.62433766,
0.0365,-0.2433327243,0.0365,70.52804678,
0.03652,1.218388452,0.03652,70.52804678,
0.03654,2.314679335,0.03654,71.25890736,
0.03656,1.218388452,0.03656,70.89347707,
0.03658,1.218388452,0.03658,70.89347707,
0.0366,0.4875278641,0.0366,71.25890736,
0.03662,0.4875278641,0.03662,70.89347707,
0.03664,0.1220975699,0.03664,70.52804678,
0.03666,-1.705053901,0.03666,70.89347707,
0.03668,-0.6087630185,0.03668,71.25890736,
0.0367,-0.6087630185,0.0367,71.25890736,
0.03672,-0.6087630185,0.03672,71.25890736,
0.03674,0.1220975699,0.03674,70.89347707,
0.03676,0.4875278641,0.03676,71.62433766,
0.03678,0.1220975699,0.03678,71.25890736,
0.0368,-0.6087630185,0.0368,71.25890736,
0.03682,0.1220975699,0.03682,70.89347707,
0.03684,-1.705053901,0.03684,70.16261648,
0.03686,-1.339623607,0.03686,70.16261648,
0.03688,-3.532205372,0.03688,71.62433766,
0.0369,-2.070484195,0.0369,70.89347707,
0.03692,-1.705053901,0.03692,70.52804678,
0.03694,-3.532205372,0.03694,69.79718619,
0.03696,-1.705053901,0.03696,71.25890736,
0.03698,0.1220975699,0.03698,70.89347707,
0.037,-0.2433327243,0.037,70.52804678,
0.03702,0.4875278641,0.03702,70.89347707,
0.03704,0.1220975699,0.03704,70.89347707,
0.03706,-1.705053901,0.03706,71.25890736,
0.03708,-1.339623607,0.03708,71.25890736,
0.0371,-0.9741933126,0.0371,71.25890736,
0.03712,-1.339623607,0.03712,71.62433766,
0.03714,-1.339623607,0.03714,71.62433766,
0.03716,-0.6087630185,0.03716,70.52804678,
0.03718,-0.9741933126,0.03718,71.25890736,
0.0372,-1.705053901,0.0372,70.89347707,
0.03722,0.1220975699,0.03722,70.89347707,
0.03724,0.4875278641,0.03724,71.25890736,
0.03726,-1.339623607,0.03726,71.25890736,
0.03728,0.4875278641,0.03728,70.89347707,
0.0373,1.583818747,0.0373,70.89347707,
0.03732,0.1220975699,0.03732,71.25890736,
0.03734,0.4875278641,0.03734,70.89347707,
0.03736,0.1220975699,0.03736,71.25890736,
0.03738,-0.6087630185,0.03738,70.89347707,
0.0374,0.4875278641,0.0374,70.89347707,
0.03742,0.1220975699,0.03742,71.25890736,
0.03744,0.1220975699,0.03744,70.89347707,
0.03746,1.218388452,0.03746,70.89347707,
0.03748,1.218388452,0.03748,71.25890736,
0.0375,0.8529581582,0.0375,71.25890736,
0.03752,2.314679335,0.03752,70.89347707,
0.03754,1.583818747,0.03754,71.25890736,
0.03756,0.1220975699,0.03756,70.89347707,
0.03758,0.1220975699,0.03758,70.89347707,
0.0376,0.4875278641,0.0376,71.25890736,
0.03762,-0.9741933126,0.03762,70.52804678,
0.03764,-0.9741933126,0.03764,70.89347707,
0.03766,-0.6087630185,0.03766,71.25890736,
0.03768,-1.339623607,0.03768,71.25890736,
0.0377,0.1220975699,0.0377,71.25890736,
0.03772,0.8529581582,0.03772,71.25890736,
0.03774,-0.9741933126,0.03774,71.62433766,
0.03776,0.4875278641,0.03776,70.89347707,
0.03778,-1.339623607,0.03778,71.98976795,
0.0378,-0.6087630185,0.0378,71.98976795,
0.03782,-1.339623607,0.03782,71.25890736,
0.03784,-1.339623607,0.03784,71.98976795,
0.03786,-1.705053901,0.03786,71.98976795,
0.03788,-0.9741933126,0.03788,70.52804678,
0.0379,-1.339623607,0.0379,71.98976795,
0.03792,-2.801344783,0.03792,69.79718619,
0.03794,-2.070484195,0.03794,71.62433766,
0.03796,-0.2433327243,0.03796,70.89347707,
0.03798,-0.6087630185,0.03798,71.62433766,
0.038,-0.2433327243,0.038,70.52804678,
0.03802,0.1220975699,0.03802,71.62433766,
0.03804,-0.9741933126,0.03804,70.52804678,
0.03806,-0.6087630185,0.03806,70.89347707,
0.03808,-1.339623607,0.03808,70.89347707,
0.0381,-1.705053901,0.0381,71.25890736,
0.03812,-1.339623607,0.03812,70.52804678,
0.03814,-1.705053901,0.03814,70.89347707,
0.03816,-1.339623607,0.03816,70.52804678,
0.03818,0.8529581582,0.03818,70.52804678,
0.0382,0.4875278641,0.0382,71.25890736,
0.03822,-0.6087630185,0.03822,71.25890736,
0.03824,0.8529581582,0.03824,70.89347707,
0.03826,0.1220975699,0.03826,70.89347707,
0.03828,-0.2433327243,0.03828,70.89347707,
0.0383,-0.6087630185,0.0383,70.52804678,
0.03832,0.8529581582,0.03832,70.89347707,
0.03834,-0.6087630185,0.03834,70.89347707,
0.03836,-0.2433327243,0.03836,70.52804678,
0.03838,0.1220975699,0.03838,71.25890736,
0.0384,-0.6087630185,0.0384,70.89347707,
0.03842,0.4875278641,0.03842,70.89347707,
0.03844,1.583818747,0.03844,71.25890736,
0.03846,0.1220975699,0.03846,70.89347707,
0.03848,1.218388452,0.03848,70.89347707,
0.0385,0.8529581582,0.0385,71.25890736,
0.03852,0.1220975699,0.03852,70.52804678,
0.03854,0.4875278641,0.03854,70.89347707,
0.03856,1.218388452,0.03856,71.62433766,
0.03858,0.8529581582,0.03858,69.79718619,
0.0386,-0.9741933126,0.0386,70.89347707,
0.03862,0.4875278641,0.03862,70.52804678,
0.03864,-0.6087630185,0.03864,70.89347707,
0.03866,-0.9741933126,0.03866,70.89347707,
0.03868,-0.6087630185,0.03868,70.52804678,
0.0387,0.4875278641,0.0387,70.52804678,
0.03872,0.8529581582,0.03872,70.89347707,
0.03874,-0.6087630185,0.03874,70.89347707,
0.03876,-0.9741933126,0.03876,71.25890736,
0.03878,-0.9741933126,0.03878,69.79718619,
0.0388,-0.2433327243,0.0388,69.43175589,
0.03882,-2.435914489,0.03882,70.89347707,
0.03884,-2.070484195,0.03884,70.52804678,
0.03886,-1.705053901,0.03886,71.62433766,
0.03888,0.1220975699,0.03888,71.25890736,
0.0389,-2.801344783,0.0389,70.89347707,
0.03892,-2.801344783,0.03892,70.52804678,
0.03894,-0.2433327243,0.03894,70.52804678,
0.03896,-0.2433327243,0.03896,70.89347707,
0.03898,-0.6087630185,0.03898,70.52804678,
0.039,0.4875278641,0.039,70.52804678,
0.03902,-0.2433327243,0.03902,70.89347707,
0.03904,-1.705053901,0.03904,70.52804678,
0.03906,-0.9741933126,0.03906,70.89347707,
0.03908,-0.9741933126,0.03908,71.25890736,
0.0391,-0.6087630185,0.0391,70.16261648,
0.03912,-0.6087630185,0.03912,70.89347707,
0.03914,-0.6087630185,0.03914,70.89347707,
0.03916,0.1220975699,0.03916,70.52804678,
0.03918,1.218388452,0.03918,70.89347707,
0.0392,0.8529581582,0.0392,70.89347707,
0.03922,0.4875278641,0.03922,70.52804678,
0.03924,0.8529581582,0.03924,71.25890736,
0.03926,0.4875278641,0.03926,70.89347707,
0.03928,0.1220975699,0.03928,70.52804678,
0.0393,0.1220975699,0.0393,70.52804678,
0.03932,0.1220975699,0.03932,70.89347707,
0.03934,-0.9741933126,0.03934,70.52804678,
0.03936,0.4875278641,0.03936,70.89347707,
0.03938,-0.6087630185,0.03938,70.89347707,
0.0394,-0.9741933126,0.0394,70.52804678,
0.03942,1.218388452,0.03942,71.25890736,
0.03944,1.218388452,0.03944,71.25890736,
0.03946,1.583818747,0.03946,70.52804678,
0.03948,2.314679335,0.03948,70.89347707,
0.0395,1.218388452,0.0395,70.89347707,
0.03952,0.4875278641,0.03952,70.52804678,
0.03954,1.583818747,0.03954,70.52804678,
0.03956,0.4875278641,0.03956,70.52804678,
0.03958,-0.6087630185,0.03958,70.16261648,
0.0396,-1.339623607,0.0396,70.52804678,
0.03962,-0.9741933126,0.03962,70.89347707,
0.03964,-0.9741933126,0.03964,70.52804678,
0.03966,0.4875278641,0.03966,70.52804678,
0.03968,0.4875278641,0.03968,70.89347707,
0.0397,1.218388452,0.0397,70.16261648,
0.03972,1.218388452,0.03972,71.25890736,
0.03974,-1.339623607,0.03974,70.89347707,
0.03976,-0.9741933126,0.03976,69.79718619,
0.03978,1.218388452,0.03978,69.43175589,
0.0398,-1.705053901,0.0398,70.89347707,
0.03982,-3.166775078,0.03982,71.25890736,
0.03984,-3.166775078,0.03984,70.52804678,
0.03986,-2.435914489,0.03986,70.89347707,
0.03988,-2.801344783,0.03988,70.89347707,
0.0399,-0.9741933126,0.0399,71.25890736,
0.03992,0.1220975699,0.03992,70.52804678,
0.03994,0.4875278641,0.03994,70.16261648,
0.03996,-0.6087630185,0.03996,71.25890736,
0.03998,0.1220975699,0.03998,71.25890736,
0.04,-1.339623607,0.04,70.52804678,
0.04002,-1.339623607,0.04002,70.89347707,
0.04004,-1.705053901,0.04004,70.89347707,
0.04006,-1.339623607,0.04006,70.16261648,
0.04008,-0.6087630185,0.04008,70.52804678,
0.0401,-0.6087630185,0.0401,70.89347707,
0.04012,-1.705053901,0.04012,70.52804678,
0.04014,0.4875278641,0.04014,70.52804678,
0.04016,0.8529581582,0.04016,70.89347707,
0.04018,0.8529581582,0.04018,70.89347707,
0.0402,1.218388452,0.0402,70.52804678,
0.04022,0.4875278641,0.04022,70.89347707,
0.04024,0.4875278641,0.04024,70.16261648,
0.04026,-0.2433327243,0.04026,70.89347707,
0.04028,-0.2433327243,0.04028,70.89347707,
0.0403,-0.2433327243,0.0403,70.16261648,
0.04032,0.4875278641,0.04032,70.89347707,
0.04034,0.1220975699,0.04034,70.89347707,
0.04036,0.4875278641,0.04036,71.25890736,
0.04038,0.1220975699,0.04038,70.89347707,
0.0404,1.583818747,0.0404,71.25890736,
0.04042,2.314679335,0.04042,71.25890736,
0.04044,1.218388452,0.04044,70.89347707,
0.04046,2.314679335,0.04046,70.89347707,
0.04048,1.218388452,0.04048,71.62433766,
0.0405,1.583818747,0.0405,71.25890736,
0.04052,1.218388452,0.04052,71.25890736,
0.04054,0.4875278641,0.04054,70.89347707,
0.04056,-0.2433327243,0.04056,70.89347707,
0.04058,-0.9741933126,0.04058,70.89347707,
0.0406,-0.2433327243,0.0406,71.25890736,
0.04062,-0.6087630185,0.04062,70.89347707,
0.04064,-0.9741933126,0.04064,70.52804678,
0.04066,-0.6087630185,0.04066,70.52804678,
0.04068,-0.6087630185,0.04068,70.52804678,
0.0407,0.4875278641,0.0407,71.25890736,
0.04072,-0.6087630185,0.04072,70.16261648,
0.04074,-1.705053901,0.04074,70.89347707,
0.04076,-0.9741933126,0.04076,72.35519825,
0.04078,-2.435914489,0.04078,70.89347707,
0.0408,-2.070484195,0.0408,69.79718619,
0.04082,-3.166775078,0.04082,71.25890736,
0.04084,-0.9741933126,0.04084,71.25890736,
0.04086,-0.6087630185,0.04086,70.52804678,
0.04088,0.4875278641,0.04088,71.98976795,
0.0409,-1.705053901,0.0409,70.52804678,
0.04092,-0.9741933126,0.04092,70.52804678,
0.04094,-1.339623607,0.04094,71.25890736,
0.04096,-0.2433327243,0.04096,70.89347707,
0.04098,-1.339623607,0.04098,70.52804678,
0.041,-1.705053901,0.041,71.25890736,
0.04102,-1.339623607,0.04102,70.89347707,
0.04104,-0.9741933126,0.04104,70.89347707,
0.04106,-1.705053901,0.04106,71.62433766,
0.04108,-2.435914489,0.04108,70.89347707,
0.0411,-0.9741933126,0.0411,70.89347707,
0.04112,-0.6087630185,0.04112,71.62433766,
0.04114,-0.9741933126,0.04114,71.25890736,
0.04116,0.4875278641,0.04116,70.89347707,
0.04118,0.4875278641,0.04118,71.25890736,
0.0412,-0.6087630185,0.0412,70.52804678,
0.04122,-0.6087630185,0.04122,70.52804678,
0.04124,0.4875278641,0.04124,71.62433766,
0.04126,0.1220975699,0.04126,70.89347707,
0.04128,1.218388452,0.04128,70.52804678,
0.0413,0.8529581582,0.0413,71.62433766,
0.04132,-0.6087630185,0.04132,70.89347707,
0.04134,0.1220975699,0.04134,70.52804678,
0.04136,0.8529581582,0.04136,71.25890736,
0.04138,-0.2433327243,0.04138,70.89347707,
0.0414,1.218388452,0.0414,70.89347707,
0.04142,1.218388452,0.04142,71.62433766,
0.04144,0.8529581582,0.04144,70.52804678,
0.04146,-0.2433327243,0.04146,70.89347707,
0.04148,0.4875278641,0.04148,70.89347707,
0.0415,-0.9741933126,0.0415,70.89347707,
0.04152,-0.6087630185,0.04152,70.52804678,
0.04154,-1.339623607,0.04154,71.25890736,
0.04156,-0.9741933126,0.04156,70.52804678,
0.04158,-1.339623607,0.04158,70.89347707,
0.0416,-0.2433327243,0.0416,71.25890736,
0.04162,0.1220975699,0.04162,70.89347707,
0.04164,0.4875278641,0.04164,70.89347707,
0.04166,0.4875278641,0.04166,71.25890736,
0.04168,1.218388452,0.04168,70.89347707,
0.0417,-2.070484195,0.0417,71.62433766,
0.04172,0.1220975699,0.04172,70.89347707,
0.04174,-0.6087630185,0.04174,71.25890736,
0.04176,-2.435914489,0.04176,70.16261648,
0.04178,-1.705053901,0.04178,71.62433766,
0.0418,-3.532205372,0.0418,71.25890736,
0.04182,-3.897635666,0.04182,70.89347707,
0.04184,-2.801344783,0.04184,71.25890736,
0.04186,-2.070484195,0.04186,70.16261648,
0.04188,0.1220975699,0.04188,71.25890736,
0.0419,-0.6087630185,0.0419,71.62433766,
0.04192,0.1220975699,0.04192,71.25890736,
0.04194,-0.9741933126,0.04194,70.89347707,
0.04196,-0.6087630185,0.04196,71.62433766,
0.04198,-2.801344783,0.04198,70.52804678,
0.042,-1.339623607,0.042,70.52804678,
0.04202,-1.705053901,0.04202,71.25890736,
0.04204,-1.705053901,0.04204,70.52804678,
0.04206,-0.9741933126,0.04206,70.89347707,
0.04208,0.4875278641,0.04208,71.25890736,
0.0421,0.1220975699,0.0421,70.89347707,
0.04212,0.1220975699,0.04212,70.89347707,
0.04214,0.8529581582,0.04214,71.62433766,
0.04216,-0.6087630185,0.04216,70.89347707,
0.04218,0.4875278641,0.04218,70.52804678,
0.0422,1.218388452,0.0422,71.25890736,
0.04222,0.1220975699,0.04222,70.52804678,
0.04224,0.4875278641,0.04224,70.52804678,
0.04226,0.8529581582,0.04226,71.25890736,
0.04228,-0.2433327243,0.04228,70.52804678,
0.0423,0.4875278641,0.0423,70.89347707,
0.04232,-0.2433327243,0.04232,71.25890736,
0.04234,-0.6087630185,0.04234,70.89347707,
0.04236,0.1220975699,0.04236,70.16261648,
0.04238,0.8529581582,0.04238,70.89347707,
0.0424,0.8529581582,0.0424,70.89347707,
0.04242,2.314679335,0.04242,70.89347707,
0.04244,1.583818747,0.04244,71.25890736,
0.04246,0.8529581582,0.04246,70.52804678,
0.04248,0.4875278641,0.04248,70.89347707,
0.0425,0.8529581582,0.0425,71.25890736,
0.04252,-0.6087630185,0.04252,70.89347707,
0.04254,-0.6087630185,0.04254,70.89347707,
0.04256,-0.6087630185,0.04256,71.62433766,
0.04258,-0.9741933126,0.04258,70.89347707,
0.0426,0.8529581582,0.0426,70.89347707,
0.04262,0.4875278641,0.04262,71.25890736,
0.04264,0.1220975699,0.04264,70.52804678,
0.04266,1.218388452,0.04266,70.89347707,
0.04268,1.949249041,0.04268,71.62433766,
0.0427,-2.801344783,0.0427,70.89347707,
0.04272,-3.166775078,0.04272,69.79718619,
0.04274,-0.9741933126,0.04274,70.89347707,
0.04276,-4.628496254,0.04276,70.52804678,
0.04278,-4.26306596,0.04278,72.35519825,
0.0428,-2.070484195,0.0428,71.98976795,
0.04282,0.1220975699,0.04282,69.79718619,
0.04284,-1.339623607,0.04284,69.79718619,
0.04286,-1.705053901,0.04286,71.25890736,
0.04288,0.1220975699,0.04288,70.89347707,
0.0429,-0.2433327243,0.0429,70.52804678,
0.04292,-0.2433327243,0.04292,71.98976795,
0.04294,-2.435914489,0.04294,70.89347707,
0.04296,-0.2433327243,0.04296,70.89347707,
0.04298,-2.070484195,0.04298,71.25890736,
0.043,-2.070484195,0.043,70.89347707,
0.04302,-2.435914489,0.04302,70.89347707,
0.04304,-0.9741933126,0.04304,71.25890736,
0.04306,-0.6087630185,0.04306,70.89347707,
0.04308,0.1220975699,0.04308,71.25890736,
0.0431,0.4875278641,0.0431,70.89347707,
0.04312,0.4875278641,0.04312,71.25890736,
0.04314,0.1220975699,0.04314,71.25890736,
0.04316,1.218388452,0.04316,71.98976795,
0.04318,-0.6087630185,0.04318,70.89347707,
0.0432,1.583818747,0.0432,70.89347707,
0.04322,-0.2433327243,0.04322,71.25890736,
0.04324,-1.705053901,0.04324,70.89347707,
0.04326,1.218388452,0.04326,70.89347707,
0.04328,0.4875278641,0.04328,70.89347707,
0.0433,-0.9741933126,0.0433,70.89347707,
0.04332,0.8529581582,0.04332,70.89347707,
0.04334,0.4875278641,0.04334,71.62433766,
0.04336,0.8529581582,0.04336,70.89347707,
0.04338,1.583818747,0.04338,70.52804678,
0.0434,1.218388452,0.0434,71.25890736,
0.04342,-0.6087630185,0.04342,70.89347707,
0.04344,0.8529581582,0.04344,70.89347707,
0.04346,0.8529581582,0.04346,70.89347707,
0.04348,-0.6087630185,0.04348,70.89347707,
0.0435,-1.339623607,0.0435,70.89347707,
0.04352,0.1220975699,0.04352,70.89347707,
0.04354,-1.705053901,0.04354,70.89347707,
0.04356,-0.6087630185,0.04356,70.89347707,
0.04358,0.1220975699,0.04358,71.62433766,
0.0436,0.4875278641,0.0436,71.25890736,
0.04362,1.949249041,0.04362,70.89347707,
0.04364,1.583818747,0.04364,70.89347707,
0.04366,-0.9741933126,0.04366,70.52804678,
0.04368,-0.9741933126,0.04368,70.52804678,
0.0437,-3.532205372,0.0437,71.98976795,
0.04372,-1.705053901,0.04372,70.16261648,
0.04374,-3.897635666,0.04374,70.89347707,
0.04376,-1.339623607,0.04376,70.52804678,
0.04378,-0.2433327243,0.04378,71.98976795,
0.0438,-1.339623607,0.0438,71.25890736,
0.04382,-1.339623607,0.04382,72.35519825,
0.04384,-0.6087630185,0.04384,71.25890736,
0.04386,-0.2433327243,0.04386,71.25890736,
0.04388,-0.2433327243,0.04388,71.25890736,
0.0439,-0.2433327243,0.0439,70.52804678,
0.04392,-0.9741933126,0.04392,70.89347707,
0.04394,-0.9741933126,0.04394,71.25890736,
0.04396,-1.339623607,0.04396,70.89347707,
0.04398,-0.2433327243,0.04398,70.89347707,
0.044,-0.9741933126,0.044,71.25890736,
0.04402,-1.705053901,0.04402,70.89347707,
0.04404,0.4875278641,0.04404,70.89347707,
0.04406,0.4875278641,0.04406,71.25890736,
0.04408,-0.2433327243,0.04408,70.89347707,
0.0441,1.218388452,0.0441,70.89347707,
0.04412,0.4875278641,0.04412,71.25890736,
0.04414,-0.6087630185,0.04414,70.89347707,
0.04416,0.4875278641,0.04416,71.25890736,
0.04418,1.218388452,0.04418,71.25890736,
0.0442,-0.2433327243,0.0442,70.89347707,
0.04422,0.4875278641,0.04422,70.89347707,
0.04424,0.1220975699,0.04424,71.25890736,
0.04426,-0.6087630185,0.04426,71.25890736,
0.04428,0.1220975699,0.04428,70.52804678,
0.0443,1.218388452,0.0443,70.52804678,
0.04432,1.583818747,0.04432,70.52804678,
0.04434,0.4875278641,0.04434,70.89347707,
0.04436,1.583818747,0.04436,70.52804678,
0.04438,1.949249041,0.04438,70.52804678,
0.0444,0.8529581582,0.0444,70.89347707,
0.04442,-0.2433327243,0.04442,70.16261648,
0.04444,0.4875278641,0.04444,70.89347707,
0.04446,-0.9741933126,0.04446,70.89347707,
0.04448,-0.2433327243,0.04448,70.52804678,
0.0445,-0.6087630185,0.0445,70.52804678,
0.04452,-0.6087630185,0.04452,70.52804678,
0.04454,-0.2433327243,0.04454,70.52804678,
0.04456,0.1220975699,0.04456,70.52804678,
0.04458,-0.2433327243,0.04458,70.89347707,
0.0446,0.1220975699,0.0446,69.79718619,
0.04462,0.1220975699,0.04462,70.52804678,
0.04464,0.4875278641,0.04464,70.89347707,
0.04466,-0.6087630185,0.04466,70.16261648,
0.04468,0.8529581582,0.04468,70.52804678,
0.0447,-0.9741933126,0.0447,70.89347707,
0.04472,-1.705053901,0.04472,70.89347707,
0.04474,-0.9741933126,0.04474,71.25890736,
0.04476,-3.532205372,0.04476,71.25890736,
0.04478,-2.070484195,0.04478,70.16261648,
0.0448,-0.6087630185,0.0448,70.89347707,
0.04482,-1.339623607,0.04482,70.16261648,
0.04484,-1.705053901,0.04484,70.52804678,
0.04486,-0.6087630185,0.04486,70.89347707,
0.04488,0.1220975699,0.04488,70.89347707,
0.0449,-2.435914489,0.0449,70.52804678,
0.04492,-1.339623607,0.04492,70.52804678,
0.04494,-1.339623607,0.04494,70.89347707,
0.04496,-1.339623607,0.04496,70.52804678,
0.04498,-0.9741933126,0.04498,71.25890736,
0.045,-0.9741933126,0.045,70.89347707,
0.04502,-1.339623607,0.04502,70.89347707,
0.04504,0.8529581582,0.04504,70.89347707,
0.04506,0.4875278641,0.04506,70.89347707,
0.04508,0.4875278641,0.04508,70.52804678,
0.0451,1.218388452,0.0451,70.89347707,
0.04512,0.8529581582,0.04512,70.89347707,
0.04514,0.1220975699,0.04514,70.16261648,
0.04516,1.218388452,0.04516,70.89347707,
0.04518,-0.2433327243,0.04518,70.52804678,
0.0452,-0.2433327243,0.0452,70.52804678,
0.04522,1.583818747,0.04522,70.52804678,
0.04524,0.4875278641,0.04524,71.25890736,
0.04526,0.4875278641,0.04526,70.52804678,
0.04528,1.949249041,0.04528,70.89347707,
0.0453,0.4875278641,0.0453,71.25890736,
0.04532,1.949249041,0.04532,70.16261648,
0.04534,1.949249041,0.04534,71.25890736,
0.04536,1.949249041,0.04536,70.89347707,
0.04538,0.1220975699,0.04538,70.52804678,
0.0454,1.583818747,0.0454,70.89347707,
0.04542,0.8529581582,0.04542,70.89347707,
0.04544,0.4875278641,0.04544,71.25890736,
0.04546,-1.339623607,0.04546,71.25890736,
0.04548,-0.6087630185,0.04548,70.89347707,
0.0455,-1.339623607,0.0455,70.89347707,
0.04552,-0.6087630185,0.04552,71.25890736,
0.04554,0.1220975699,0.04554,70.89347707,
0.04556,0.4875278641,0.04556,71.25890736,
0.04558,0.8529581582,0.04558,70.89347707,
0.0456,0.8529581582,0.0456,71.25890736,
0.04562,-0.9741933126,0.04562,70.16261648,
0.04564,0.1220975699,0.04564,70.89347707,
0.04566,-2.801344783,0.04566,70.16261648,
0.04568,-1.339623607,0.04568,71.62433766,
0.0457,0.4875278641,0.0457,70.52804678,
0.04572,-3.166775078,0.04572,71.62433766,
0.04574,-0.6087630185,0.04574,70.52804678,
0.04576,-1.705053901,0.04576,69.79718619,
0.04578,-1.705053901,0.04578,71.25890736,
0.0458,-1.339623607,0.0458,70.52804678,
0.04582,-1.339623607,0.04582,70.52804678,
0.04584,0.8529581582,0.04584,71.25890736,
0.04586,-2.435914489,0.04586,70.89347707,
0.04588,-1.339623607,0.04588,70.16261648,
0.0459,-1.705053901,0.0459,71.25890736,
0.04592,-1.705053901,0.04592,71.25890736,
0.04594,-2.070484195,0.04594,70.52804678,
0.04596,-0.9741933126,0.04596,71.25890736,
0.04598,-0.9741933126,0.04598,70.52804678,
0.046,-0.9741933126,0.046,70.52804678,
0.04602,0.1220975699,0.04602,71.25890736,
0.04604,-0.2433327243,0.04604,70.89347707,
0.04606,-0.2433327243,0.04606,70.52804678,
0.04608,1.218388452,0.04608,70.89347707,
0.0461,0.1220975699,0.0461,70.89347707,
0.04612,0.8529581582,0.04612,70.52804678,
0.04614,0.1220975699,0.04614,71.25890736,
0.04616,-0.2433327243,0.04616,70.89347707,
0.04618,0.1220975699,0.04618,71.25890736,
0.0462,0.4875278641,0.0462,70.89347707,
0.04622,-0.9741933126,0.04622,70.89347707,
0.04624,-1.339623607,0.04624,70.52804678,
0.04626,0.4875278641,0.04626,70.89347707,
0.04628,0.1220975699,0.04628,70.52804678,
0.0463,1.583818747,0.0463,70.16261648,
0.04632,1.218388452,0.04632,71.25890736,
0.04634,0.4875278641,0.04634,70.52804678,
0.04636,1.583818747,0.04636,70.16261648,
0.04638,0.1220975699,0.04638,71.25890736,
0.0464,0.4875278641,0.0464,70.52804678,
0.04642,-0.6087630185,0.04642,69.79718619,
0.04644,-0.6087630185,0.04644,71.25890736,
0.04646,-1.705053901,0.04646,70.16261648,
0.04648,-0.6087630185,0.04648,70.52804678,
0.0465,-1.339623607,0.0465,70.89347707,
0.04652,-0.6087630185,0.04652,70.52804678,
0.04654,0.8529581582,0.04654,70.52804678,
0.04656,0.8529581582,0.04656,71.25890736,
0.04658,-0.9741933126,0.04658,70.89347707,
0.0466,-0.9741933126,0.0466,69.43175589,
0.04662,0.4875278641,0.04662,70.52804678,
0.04664,-1.705053901,0.04664,70.89347707,
0.04666,0.8529581582,0.04666,70.52804678,
0.04668,-2.801344783,0.04668,69.79718619,
0.0467,-2.070484195,0.0467,71.62433766,
0.04672,-3.532205372,0.04672,70.52804678,
0.04674,-0.9741933126,0.04674,71.98976795,
0.04676,0.4875278641,0.04676,70.52804678,
0.04678,-0.2433327243,0.04678,70.52804678,
0.0468,-0.2433327243,0.0468,70.52804678,
0.04682,-0.6087630185,0.04682,70.89347707,
0.04684,-0.9741933126,0.04684,70.52804678,
0.04686,-2.070484195,0.04686,71.62433766,
0.04688,-1.705053901,0.04688,70.89347707,
0.0469,-1.705053901,0.0469,70.52804678,
0.04692,-0.6087630185,0.04692,71.25890736,
0.04694,-2.435914489,0.04694,70.89347707,
0.04696,-1.705053901,0.04696,70.52804678,
0.04698,0.1220975699,0.04698,71.25890736,
0.047,-0.2433327243,0.047,70.89347707,
0.04702,0.4875278641,0.04702,70.89347707,
0.04704,0.8529581582,0.04704,71.62433766,
0.04706,-0.6087630185,0.04706,70.89347707,
0.04708,0.1220975699,0.04708,70.52804678,
0.0471,-0.2433327243,0.0471,71.25890736,
0.04712,0.1220975699,0.04712,70.52804678,
0.04714,-0.2433327243,0.04714,70.52804678,
0.04716,-0.6087630185,0.04716,71.25890736,
0.04718,0.4875278641,0.04718,70.52804678,
0.0472,-0.2433327243,0.0472,70.89347707,
0.04722,0.8529581582,0.04722,71.25890736,
0.04724,0.8529581582,0.04724,70.89347707,
0.04726,0.1220975699,0.04726,70.52804678,
0.04728,2.314679335,0.04728,71.25890736,
0.0473,0.4875278641,0.0473,71.25890736,
0.04732,0.8529581582,0.04732,70.16261648,
0.04734,-0.6087630185,0.04734,71.62433766,
0.04736,1.218388452,0.04736,70.89347707,
0.04738,0.1220975699,0.04738,70.89347707,
0.0474,-0.6087630185,0.0474,71.25890736,
0.04742,-2.070484195,0.04742,70.89347707,
0.04744,-2.070484195,0.04744,70.52804678,
0.04746,-0.9741933126,0.04746,70.89347707,
0.04748,-0.9741933126,0.04748,70.89347707,
0.0475,-0.6087630185,0.0475,71.25890736,
0.04752,0.4875278641,0.04752,71.25890736,
0.04754,0.4875278641,0.04754,70.89347707,
0.04756,1.583818747,0.04756,70.52804678,
0.04758,-2.070484195,0.04758,71.62433766,
0.0476,-1.705053901,0.0476,70.16261648,
0.04762,-2.435914489,0.04762,70.89347707,
0.04764,-1.339623607,0.04764,71.62433766,
0.04766,-3.897635666,0.04766,70.89347707,
0.04768,-2.801344783,0.04768,70.89347707,
0.0477,0.1220975699,0.0477,71.25890736,
0.04772,-1.339623607,0.04772,69.79718619,
0.04774,-0.9741933126,0.04774,70.52804678,
0.04776,-0.6087630185,0.04776,70.89347707,
0.04778,-1.705053901,0.04778,70.52804678,
0.0478,-0.9741933126,0.0478,70.52804678,
0.04782,-0.9741933126,0.04782,71.25890736,
0.04784,-2.070484195,0.04784,70.89347707,
0.04786,-1.705053901,0.04786,70.52804678,
0.04788,-1.705053901,0.04788,71.25890736,
0.0479,-1.705053901,0.0479,70.89347707,
0.04792,-2.070484195,0.04792,70.89347707,
0.04794,-0.6087630185,0.04794,71.62433766,
0.04796,0.1220975699,0.04796,70.52804678,
0.04798,1.218388452,0.04798,70.52804678,
0.048,-0.9741933126,0.048,71.25890736,
0.04802,0.1220975699,0.04802,70.52804678,
0.04804,0.1220975699,0.04804,70.52804678,
0.04806,0.1220975699,0.04806,70.89347707,
0.04808,0.1220975699,0.04808,70.89347707,
0.0481,0.4875278641,0.0481,70.89347707,
0.04812,-0.2433327243,0.04812,71.25890736,
0.04814,-0.6087630185,0.04814,71.25890736,
0.04816,0.4875278641,0.04816,70.52804678,
0.04818,1.949249041,0.04818,71.25890736,
0.0482,-0.2433327243,0.0482,70.89347707,
0.04822,0.8529581582,0.04822,70.52804678,
0.04824,1.949249041,0.04824,71.25890736,
0.04826,0.1220975699,0.04826,71.25890736,
0.04828,1.583818747,0.04828,70.89347707,
0.0483,1.218388452,0.0483,71.25890736,
0.04832,0.1220975699,0.04832,70.89347707,
0.04834,0.1220975699,0.04834,71.25890736,
0.04836,0.1220975699,0.04836,71.62433766,
0.04838,-1.339623607,0.04838,71.25890736,
0.0484,-1.339623607,0.0484,70.89347707,
0.04842,-1.339623607,0.04842,71.25890736,
0.04844,-0.9741933126,0.04844,71.25890736,
0.04846,-0.2433327243,0.04846,70.89347707,
0.04848,0.8529581582,0.04848,70.89347707,
0.0485,-0.6087630185,0.0485,71.25890736,
0.04852,0.1220975699,0.04852,70.16261648,
0.04854,1.949249041,0.04854,71.25890736,
0.04856,-1.705053901,0.04856,71.62433766,
0.04858,0.4875278641,0.04858,70.89347707,
0.0486,-1.339623607,0.0486,71.62433766,
0.04862,-4.26306596,0.04862,70.89347707,
0.04864,-2.070484195,0.04864,70.89347707,
0.04866,-2.435914489,0.04866,70.89347707,
0.04868,-3.166775078,0.04868,71.25890736,
0.0487,-1.339623607,0.0487,71.25890736,
0.04872,-1.339623607,0.04872,71.25890736,
0.04874,0.1220975699,0.04874,70.89347707,
0.04876,0.1220975699,0.04876,70.89347707,
0.04878,-0.6087630185,0.04878,71.25890736,
0.0488,-2.070484195,0.0488,70.89347707,
0.04882,-1.339623607,0.04882,70.89347707,
0.04884,-2.070484195,0.04884,71.25890736,
0.04886,-2.435914489,0.04886,70.89347707,
0.04888,-0.2433327243,0.04888,70.52804678,
0.0489,-0.2433327243,0.0489,71.25890736,
0.04892,-1.339623607,0.04892,71.25890736,
0.04894,1.218388452,0.04894,70.52804678,
0.04896,0.8529581582,0.04896,71.62433766,
0.04898,0.4875278641,0.04898,71.25890736,
0.049,1.218388452,0.049,70.52804678,
0.04902,1.218388452,0.04902,70.89347707,
0.04904,0.1220975699,0.04904,70.89347707,
0.04906,0.4875278641,0.04906,70.52804678,
0.04908,-0.2433327243,0.04908,71.25890736,
0.0491,0.1220975699,0.0491,70.89347707,
0.04912,1.583818747,0.04912,70.52804678,
0.04914,0.8529581582,0.04914,71.25890736,
0.04916,0.1220975699,0.04916,71.25890736,
0.04918,1.218388452,0.04918,70.89347707,
0.0492,1.583818747,0.0492,71.25890736,
0.04922,1.583818747,0.04922,70.89347707,
0.04924,1.583818747,0.04924,70.52804678,
0.04926,0.8529581582,0.04926,71.25890736,
0.04928,0.4875278641,0.04928,70.89347707,
0.0493,-0.2433327243,0.0493,70.52804678,
0.04932,1.583818747,0.04932,71.25890736,
0.04934,-0.9741933126,0.04934,71.25890736,
0.04936,-1.339623607,0.04936,70.89347707,
0.04938,-0.6087630185,0.04938,70.89347707,
0.0494,-0.9741933126,0.0494,70.89347707,
0.04942,0.8529581582,0.04942,70.89347707,
0.04944,-0.9741933126,0.04944,70.89347707,
0.04946,1.583818747,0.04946,70.52804678,
0.04948,0.8529581582,0.04948,70.89347707,
0.0495,0.4875278641,0.0495,71.25890736,
0.04952,-1.339623607,0.04952,70.89347707,
0.04954,-1.339623607,0.04954,69.79718619,
0.04956,-0.6087630185,0.04956,70.52804678,
0.04958,-4.628496254,0.04958,70.52804678,
0.0496,-3.532205372,0.0496,69.43175589,
0.04962,-0.6087630185,0.04962,70.89347707,
0.04964,-3.166775078,0.04964,70.52804678,
0.04966,-1.339623607,0.04966,71.25890736,
0.04968,-0.6087630185,0.04968,71.25890736,
0.0497,-1.705053901,0.0497,70.16261648,
0.04972,0.4875278641,0.04972,70.16261648,
0.04974,-0.9741933126,0.04974,71.25890736,
0.04976,-2.070484195,0.04976,71.25890736,
0.04978,-1.339623607,0.04978,71.25890736,
0.0498,-0.9741933126,0.0498,71.25890736,
0.04982,-1.705053901,0.04982,70.89347707,
0.04984,-0.9741933126,0.04984,70.89347707,
0.04986,-1.339623607,0.04986,70.89347707,
0.04988,-1.339623607,0.04988,70.89347707,
0.0499,0.8529581582,0.0499,70.89347707,
0.04992,0.1220975699,0.04992,71.25890736,
0.04994,-0.6087630185,0.04994,70.52804678,
0.04996,1.218388452,0.04996,70.52804678,
0.04998,-0.6087630185,0.04998,70.89347707,
0.05,0.4875278641,0.05,70.89347707,
0.05002,0.1220975699,0.05002,70.89347707,
0.05004,0.1220975699,0.05004,70.52804678,
0.05006,0.8529581582,0.05006,70.52804678,
0.05008,0.8529581582,0.05008,71.25890736,
0.0501,0.4875278641,0.0501,70.52804678,
0.05012,1.949249041,0.05012,70.52804678,
0.05014,0.8529581582,0.05014,70.89347707,
0.05016,-0.6087630185,0.05016,70.52804678,
0.05018,0.4875278641,0.05018,70.89347707,
0.0502,1.218388452,0.0502,70.89347707,
0.05022,1.218388452,0.05022,70.52804678,
0.05024,2.680109629,0.05024,70.52804678,
0.05026,0.8529581582,0.05026,70.52804678,
0.05028,0.8529581582,0.05028,70.16261648,
0.0503,0.4875278641,0.0503,70.89347707,
0.05032,0.1220975699,0.05032,71.25890736,
0.05034,-0.2433327243,0.05034,70.52804678,
0.05036,-0.2433327243,0.05036,71.25890736,
0.05038,-0.2433327243,0.05038,70.89347707,
0.0504,-0.9741933126,0.0504,70.52804678,
0.05042,0.4875278641,0.05042,70.52804678,
0.05044,1.218388452,0.05044,70.52804678,
0.05046,1.218388452,0.05046,70.52804678,
0.05048,-0.2433327243,0.05048,71.25890736,
0.0505,-0.6087630185,0.0505,71.62433766,
0.05052,-1.339623607,0.05052,70.52804678,
0.05054,0.1220975699,0.05054,69.43175589,
0.05056,0.4875278641,0.05056,71.62433766,
0.05058,-1.705053901,0.05058,69.79718619,
0.0506,-3.166775078,0.0506,70.89347707,
0.05062,-3.166775078,0.05062,70.89347707,
0.05064,-2.070484195,0.05064,71.25890736,
0.05066,-0.2433327243,0.05066,70.89347707,
0.05068,-0.6087630185,0.05068,70.89347707,
0.0507,-1.705053901,0.0507,70.52804678,
0.05072,-0.9741933126,0.05072,71.25890736,
0.05074,-1.339623607,0.05074,71.25890736,
0.05076,-1.339623607,0.05076,70.89347707,
0.05078,-1.339623607,0.05078,70.52804678,
0.0508,-0.9741933126,0.0508,71.25890736,
0.05082,-0.9741933126,0.05082,70.89347707,
0.05084,0.4875278641,0.05084,70.89347707,
0.05086,-0.6087630185,0.05086,70.89347707,
0.05088,0.4875278641,0.05088,70.89347707,
0.0509,0.1220975699,0.0509,71.62433766,
0.05092,-0.6087630185,0.05092,70.89347707,
0.05094,-0.2433327243,0.05094,70.89347707,
0.05096,1.218388452,0.05096,71.25890736,
0.05098,0.1220975699,0.05098,70.52804678,
0.051,0.4875278641,0.051,71.25890736,
0.05102,-0.2433327243,0.05102,70.89347707,
0.05104,0.4875278641,0.05104,70.52804678,
0.05106,0.4875278641,0.05106,71.25890736,
0.05108,-0.2433327243,0.05108,70.89347707,
0.0511,0.8529581582,0.0511,70.89347707,
0.05112,0.1220975699,0.05112,71.25890736,
0.05114,-0.6087630185,0.05114,70.52804678,
0.05116,3.410970217,0.05116,70.89347707,
0.05118,0.4875278641,0.05118,71.25890736,
0.0512,1.218388452,0.0512,71.25890736,
0.05122,1.583818747,0.05122,70.89347707,
0.05124,1.583818747,0.05124,71.62433766,
0.05126,1.583818747,0.05126,70.89347707,
0.05128,1.583818747,0.05128,70.52804678,
0.0513,-0.9741933126,0.0513,71.25890736,
0.05132,-0.2433327243,0.05132,70.89347707,
0.05134,0.1220975699,0.05134,70.89347707,
0.05136,-0.6087630185,0.05136,71.25890736,
0.05138,-1.339623607,0.05138,70.89347707,
0.0514,0.4875278641,0.0514,70.52804678,
0.05142,0.1220975699,0.05142,71.25890736,
0.05144,0.4875278641,0.05144,70.89347707,
0.05146,-0.9741933126,0.05146,71.25890736,
0.05148,-0.9741933126,0.05148,70.89347707,
0.0515,-2.801344783,0.0515,70.52804678,
0.05152,-0.9741933126,0.05152,70.16261648,
0.05154,-0.2433327243,0.05154,69.43175589,
0.05156,-4.993926549,0.05156,70.16261648,
0.05158,-2.801344783,0.05158,71.25890736,
0.0516,-1.339623607,0.0516,71.62433766,
0.05162,-3.166775078,0.05162,70.52804678,
0.05164,-0.9741933126,0.05164,70.89347707,
0.05166,0.4875278641,0.05166,71.25890736,
0.05168,-2.435914489,0.05168,70.89347707,
0.0517,1.218388452,0.0517,70.52804678,
0.05172,-0.2433327243,0.05172,70.89347707,
0.05174,-0.9741933126,0.05174,70.89347707,
0.05176,-1.339623607,0.05176,70.89347707,
0.05178,-0.9741933126,0.05178,71.62433766,
0.0518,-1.339623607,0.0518,70.89347707,
0.05182,-1.339623607,0.05182,70.89347707,
0.05184,-0.2433327243,0.05184,70.89347707,
0.05186,-1.339623607,0.05186,70.89347707,
0.05188,-0.9741933126,0.05188,70.89347707,
0.0519,0.8529581582,0.0519,71.25890736,
0.05192,-0.6087630185,0.05192,70.89347707,
0.05194,1.218388452,0.05194,70.89347707,
0.05196,0.4875278641,0.05196,71.62433766,
0.05198,-0.6087630185,0.05198,70.89347707,
0.052,1.218388452,0.052,70.89347707,
0.05202,-0.2433327243,0.05202,70.89347707,
0.05204,0.8529581582,0.05204,70.89347707,
0.05206,0.4875278641,0.05206,70.52804678,
0.05208,0.1220975699,0.05208,71.25890736,
0.0521,-0.2433327243,0.0521,70.89347707,
0.05212,0.1220975699,0.05212,70.52804678,
0.05214,0.4875278641,0.05214,71.25890736,
0.05216,1.218388452,0.05216,70.89347707,
0.05218,1.949249041,0.05218,70.89347707,
0.0522,0.8529581582,0.0522,71.25890736,
0.05222,-0.2433327243,0.05222,70.89347707,
0.05224,1.583818747,0.05224,70.89347707,
0.05226,-0.6087630185,0.05226,71.25890736,
0.05228,-0.2433327243,0.05228,71.25890736,
0.0523,0.4875278641,0.0523,70.89347707,
0.05232,-0.6087630185,0.05232,71.62433766,
0.05234,-2.070484195,0.05234,70.89347707,
0.05236,-0.2433327243,0.05236,70.52804678,
0.05238,0.1220975699,0.05238,70.89347707,
0.0524,-0.2433327243,0.0524,70.89347707,
0.05242,0.1220975699,0.05242,71.25890736,
0.05244,1.218388452,0.05244,71.25890736,
0.05246,-0.6087630185,0.05246,71.25890736,
0.05248,-0.9741933126,0.05248,70.16261648,
0.0525,-2.435914489,0.0525,72.35519825,
0.05252,-3.532205372,0.05252,71.25890736,
0.05254,-0.6087630185,0.05254,71.62433766,
0.05256,-2.801344783,0.05256,70.52804678,
0.05258,-2.801344783,0.05258,71.62433766,
0.0526,-1.705053901,0.0526,69.79718619,
0.05262,-1.339623607,0.05262,71.25890736,
0.05264,-0.6087630185,0.05264,70.89347707,
0.05266,-0.9741933126,0.05266,70.16261648,
0.05268,0.1220975699,0.05268,71.25890736,
0.0527,-1.339623607,0.0527,70.52804678,
0.05272,-0.9741933126,0.05272,70.89347707,
0.05274,-1.339623607,0.05274,70.89347707,
0.05276,-2.801344783,0.05276,70.89347707,
0.05278,-1.705053901,0.05278,71.25890736,
0.0528,-0.6087630185,0.0528,71.25890736,
0.05282,-2.070484195,0.05282,70.89347707,
0.05284,0.1220975699,0.05284,70.89347707,
0.05286,-0.2433327243,0.05286,70.89347707,
0.05288,-0.6087630185,0.05288,70.52804678,
0.0529,0.8529581582,0.0529,70.89347707,
0.05292,0.1220975699,0.05292,70.89347707,
0.05294,0.8529581582,0.05294,70.52804678,
0.05296,0.4875278641,0.05296,70.89347707,
0.05298,-0.2433327243,0.05298,70.52804678,
0.053,0.1220975699,0.053,70.52804678,
0.05302,0.1220975699,0.05302,70.89347707,
0.05304,0.4875278641,0.05304,70.89347707,
0.05306,-0.2433327243,0.05306,70.89347707,
0.05308,1.218388452,0.05308,71.25890736,
0.0531,0.1220975699,0.0531,70.89347707,
0.05312,0.8529581582,0.05312,70.52804678,
0.05314,1.583818747,0.05314,70.89347707,
0.05316,0.1220975699,0.05316,70.89347707,
0.05318,1.583818747,0.05318,70.16261648,
0.0532,1.583818747,0.0532,70.89347707,
0.05322,1.583818747,0.05322,70.89347707,
0.05324,0.4875278641,0.05324,70.52804678,
0.05326,0.8529581582,0.05326,70.89347707,
0.05328,-0.2433327243,0.05328,70.89347707,
0.0533,-0.6087630185,0.0533,70.52804678,
0.05332,-0.2433327243,0.05332,71.25890736,
0.05334,0.4875278641,0.05334,70.89347707,
0.05336,-0.6087630185,0.05336,70.52804678,
0.05338,1.583818747,0.05338,70.16261648,
0.0534,0.4875278641,0.0534,71.25890736,
0.05342,-0.9741933126,0.05342,69.79718619,
0.05344,-0.6087630185,0.05344,71.25890736,
0.05346,-2.070484195,0.05346,71.62433766,
0.05348,-2.801344783,0.05348,69.43175589,
0.0535,0.1220975699,0.0535,70.89347707,
0.05352,0.4875278641,0.05352,70.16261648,
0.05354,-2.070484195,0.05354,70.16261648,
0.05356,-2.435914489,0.05356,71.25890736,
0.05358,-1.339623607,0.05358,71.62433766,
0.0536,0.8529581582,0.0536,70.52804678,
0.05362,-0.9741933126,0.05362,71.25890736,
0.05364,-0.9741933126,0.05364,70.89347707,
0.05366,-0.2433327243,0.05366,70.52804678,
0.05368,-0.6087630185,0.05368,70.89347707,
0.0537,-0.2433327243,0.0537,70.52804678,
0.05372,-0.9741933126,0.05372,70.52804678,
0.05374,-0.9741933126,0.05374,70.89347707,
0.05376,-2.070484195,0.05376,70.89347707,
0.05378,-2.070484195,0.05378,70.52804678,
0.0538,0.1220975699,0.0538,70.52804678,
0.05382,0.8529581582,0.05382,70.52804678,
0.05384,-0.2433327243,0.05384,70.52804678,
0.05386,0.8529581582,0.05386,70.89347707,
0.05388,0.4875278641,0.05388,70.89347707,
0.0539,0.1220975699,0.0539,69.79718619,
0.05392,0.1220975699,0.05392,70.89347707,
0.05394,0.1220975699,0.05394,70.89347707,
0.05396,0.1220975699,0.05396,70.16261648,
0.05398,0.8529581582,0.05398,70.52804678,
0.054,-0.6087630185,0.054,70.89347707,
0.05402,-0.6087630185,0.05402,70.16261648,
0.05404,-0.2433327243,0.05404,70.89347707,
0.05406,0.8529581582,0.05406,70.52804678,
0.05408,0.4875278641,0.05408,70.16261648,
0.0541,1.583818747,0.0541,70.52804678,
0.05412,2.314679335,0.05412,70.52804678,
0.05414,0.8529581582,0.05414,70.52804678,
0.05416,1.583818747,0.05416,70.52804678,
0.05418,1.583818747,0.05418,71.25890736,
0.0542,0.4875278641,0.0542,70.52804678,
0.05422,0.4875278641,0.05422,70.89347707,
0.05424,0.1220975699,0.05424,70.89347707,
0.05426,-0.6087630185,0.05426,70.52804678,
0.05428,-0.9741933126,0.05428,70.89347707,
0.0543,-1.339623607,0.0543,70.52804678,
0.05432,-0.6087630185,0.05432,70.16261648,
0.05434,0.8529581582,0.05434,70.89347707,
0.05436,0.4875278641,0.05436,70.89347707,
0.05438,-0.2433327243,0.05438,70.52804678,
0.0544,-0.2433327243,0.0544,70.89347707,
0.05442,-0.6087630185,0.05442,70.52804678,
0.05444,-1.705053901,0.05444,70.16261648,
0.05446,-2.070484195,0.05446,71.98976795,
0.05448,-3.532205372,0.05448,70.89347707,
0.0545,-3.532205372,0.0545,70.16261648,
0.05452,-2.801344783,0.05452,70.52804678,
0.05454,0.8529581582,0.05454,69.79718619,
0.05456,-1.339623607,0.05456,70.52804678,
0.05458,-0.2433327243,0.05458,70.89347707,
0.0546,0.4875278641,0.0546,70.89347707,
0.05462,-0.6087630185,0.05462,70.52804678,
0.05464,-1.705053901,0.05464,70.52804678,
0.05466,-0.2433327243,0.05466,70.16261648,
0.05468,-1.339623607,0.05468,70.52804678,
0.0547,-0.2433327243,0.0547,70.89347707,
0.05472,-1.705053901,0.05472,70.89347707,
0.05474,-1.705053901,0.05474,70.52804678,
0.05476,-1.339623607,0.05476,70.52804678,
0.05478,-0.9741933126,0.05478,70.52804678,
0.0548,0.1220975699,0.0548,71.62433766,
0.05482,0.8529581582,0.05482,70.52804678,
0.05484,-0.2433327243,0.05484,70.16261648,
0.05486,0.1220975699,0.05486,71.25890736,
0.05488,-0.2433327243,0.05488,70.89347707,
0.0549,0.1220975699,0.0549,70.52804678,
0.05492,-0.6087630185,0.05492,71.25890736,
0.05494,-0.2433327243,0.05494,70.89347707,
0.05496,-0.2433327243,0.05496,70.16261648,
0.05498,0.4875278641,0.05498,71.25890736,
0.055,-0.6087630185,0.055,70.89347707,
0.05502,-0.2433327243,0.05502,70.52804678,
0.05504,0.4875278641,0.05504,71.25890736,
0.05506,-0.9741933126,0.05506,70.52804678,
0.05508,1.218388452,0.05508,70.52804678,
0.0551,0.1220975699,0.0551,71.25890736,
0.05512,1.949249041,0.05512,71.25890736,
0.05514,0.4875278641,0.05514,71.25890736,
0.05516,0.8529581582,0.05516,71.25890736,
0.05518,0.1220975699,0.05518,70.89347707,
0.0552,0.1220975699,0.0552,70.52804678,
0.05522,-0.9741933126,0.05522,71.25890736,
0.05524,-0.2433327243,0.05524,70.89347707,
0.05526,-0.9741933126,0.05526,70.89347707,
0.05528,-0.6087630185,0.05528,70.89347707,
0.0553,-1.705053901,0.0553,70.89347707,
0.05532,0.8529581582,0.05532,70.52804678,
0.05534,0.4875278641,0.05534,71.62433766,
0.05536,-0.6087630185,0.05536,70.89347707,
0.05538,-0.9741933126,0.05538,71.62433766,
0.0554,-1.339623607,0.0554,70.89347707,
0.05542,-3.166775078,0.05542,70.52804678,
0.05544,-2.070484195,0.05544,70.16261648,
0.05546,0.1220975699,0.05546,69.79718619,
0.05548,-3.897635666,0.05548,71.25890736,
0.0555,-2.070484195,0.0555,69.79718619,
0.05552,-1.705053901,0.05552,71.25890736,
0.05554,-1.339623607,0.05554,71.25890736,
0.05556,0.1220975699,0.05556,70.52804678,
0.05558,0.4875278641,0.05558,71.62433766,
0.0556,-0.2433327243,0.0556,70.89347707,
0.05562,-0.6087630185,0.05562,70.16261648,
0.05564,-0.9741933126,0.05564,71.25890736,
0.05566,-2.070484195,0.05566,70.89347707,
0.05568,-2.435914489,0.05568,70.89347707,
0.0557,-0.2433327243,0.0557,70.89347707,
0.05572,-1.705053901,0.05572,70.89347707,
0.05574,-1.705053901,0.05574,71.25890736,
0.05576,0.8529581582,0.05576,70.52804678,
0.05578,-0.6087630185,0.05578,71.25890736,
0.0558,0.8529581582,0.0558,70.89347707,
0.05582,0.4875278641,0.05582,71.25890736,
0.05584,0.8529581582,0.05584,71.25890736,
0.05586,0.4875278641,0.05586,70.89347707,
0.05588,1.218388452,0.05588,71.25890736,
0.0559,0.4875278641,0.0559,70.89347707,
0.05592,1.218388452,0.05592,70.89347707,
0.05594,0.1220975699,0.05594,71.25890736,
0.05596,0.1220975699,0.05596,71.25890736,
0.05598,-0.6087630185,0.05598,70.89347707,
0.056,0.8529581582,0.056,71.25890736,
0.05602,0.4875278641,0.05602,70.89347707,
0.05604,0.1220975699,0.05604,70.89347707,
0.05606,1.949249041,0.05606,70.16261648,
0.05608,2.314679335,0.05608,70.89347707,
0.0561,1.218388452,0.0561,71.25890736,
0.05612,0.8529581582,0.05612,70.16261648,
0.05614,1.218388452,0.05614,70.52804678,
0.05616,0.8529581582,0.05616,70.52804678,
0.05618,-0.2433327243,0.05618,70.16261648,
0.0562,0.1220975699,0.0562,70.89347707,
0.05622,-1.705053901,0.05622,70.52804678,
0.05624,-1.705053901,0.05624,70.52804678,
0.05626,0.1220975699,0.05626,70.52804678,
0.05628,0.1220975699,0.05628,70.89347707,
0.0563,-0.6087630185,0.0563,70.16261648,
0.05632,-0.2433327243,0.05632,71.62433766,
0.05634,-1.705053901,0.05634,70.89347707,
0.05636,0.1220975699,0.05636,69.79718619,
0.05638,-2.070484195,0.05638,70.16261648,
0.0564,1.218388452,0.0564,71.25890736,
0.05642,-0.2433327243,0.05642,68.7008953,
0.05644,-2.435914489,0.05644,71.98976795,
0.05646,-2.801344783,0.05646,70.89347707,
0.05648,-3.532205372,0.05648,70.52804678,
0.0565,-0.6087630185,0.0565,70.52804678,
0.05652,-1.339623607,0.05652,70.89347707,
0.05654,-1.705053901,0.05654,70.52804678,
0.05656,-1.339623607,0.05656,70.89347707,
0.05658,-0.2433327243,0.05658,70.52804678,
0.0566,-0.9741933126,0.0566,70.16261648,
0.05662,-2.070484195,0.05662,70.89347707,
0.05664,-1.339623607,0.05664,70.89347707,
0.05666,-1.705053901,0.05666,70.16261648,
0.05668,-1.339623607,0.05668,70.89347707,
0.0567,-1.705053901,0.0567,70.89347707,
0.05672,0.4875278641,0.05672,70.52804678,
0.05674,-0.2433327243,0.05674,70.52804678,
0.05676,0.1220975699,0.05676,70.89347707,
0.05678,0.8529581582,0.05678,70.52804678,
0.0568,1.949249041,0.0568,70.52804678,
0.05682,1.218388452,0.05682,70.89347707,
0.05684,0.8529581582,0.05684,70.52804678,
0.05686,0.8529581582,0.05686,70.89347707,
0.05688,1.949249041,0.05688,70.52804678,
0.0569,0.4875278641,0.0569,70.52804678,
0.05692,0.1220975699,0.05692,70.52804678,
0.05694,0.8529581582,0.05694,70.89347707,
0.05696,0.1220975699,0.05696,70.52804678,
0.05698,0.1220975699,0.05698,70.89347707,
0.057,0.1220975699,0.057,70.89347707,
0.05702,0.8529581582,0.05702,69.79718619,
0.05704,2.680109629,0.05704,70.89347707,
0.05706,1.583818747,0.05706,70.89347707,
0.05708,0.4875278641,0.05708,70.16261648,
0.0571,1.949249041,0.0571,70.89347707,
0.05712,1.218388452,0.05712,70.89347707,
0.05714,1.949249041,0.05714,70.16261648,
0.05716,0.8529581582,0.05716,70.52804678,
0.05718,-0.9741933126,0.05718,70.52804678,
0.0572,0.4875278641,0.0572,70.16261648,
0.05722,0.4875278641,0.05722,70.52804678,
0.05724,-0.6087630185,0.05724,70.52804678,
0.05726,0.4875278641,0.05726,70.16261648,
0.05728,0.8529581582,0.05728,70.89347707,
0.0573,1.949249041,0.0573,71.25890736,
0.05732,-1.339623607,0.05732,69.79718619,
0.05734,-0.9741933126,0.05734,70.52804678,
0.05736,-0.9741933126,0.05736,70.89347707,
0.05738,-2.801344783,0.05738,69.79718619,
0.0574,-0.6087630185,0.0574,70.16261648,
0.05742,-3.897635666,0.05742,70.52804678,
0.05744,0.1220975699,0.05744,71.62433766,
0.05746,-3.532205372,0.05746,71.25890736,
0.05748,-1.705053901,0.05748,71.62433766,
0.0575,0.4875278641,0.0575,70.52804678,
