"A0_accX_x","A0_accX_y","A1_rmsX_x","A1_rmsX_y"
0,0.1686753152,0,73.45148913,
2e-05,1.995826786,2e-05,73.81691942,
4e-05,0.8995359035,4e-05,73.45148913,
6e-05,0.1686753152,6e-05,73.45148913,
8e-05,0.8995359035,8e-05,74.18234972,
0.0001,-0.9276155673,0.0001,73.81691942,
0.00012,-0.5621852732,0.00012,73.45148913,
0.00014,1.264966198,0.00014,74.18234972,
0.00016,0.8995359035,0.00016,73.81691942,
0.00018,-0.5621852732,0.00018,73.45148913,
0.0002,0.5341056094,0.0002,73.81691942,
0.00022,1.264966198,0.00022,73.45148913,
0.00024,0.5341056094,0.00024,73.08605883,
0.00026,0.1686753152,0.00026,74.18234972,
0.00028,-0.196754979,0.00028,73.81691942,
0.0003,0.1686753152,0.0003,73.45148913,
0.00032,0.5341056094,0.00032,74.18234972,
0.00034,0.1686753152,0.00034,74.18234972,
0.00036,0.5341056094,0.00036,73.45148913,
0.00038,0.8995359035,0.00038,73.81691942,
0.0004,0.5341056094,0.0004,73.81691942,
0.00042,0.5341056094,0.00042,73.45148913,
0.00044,0.5341056094,0.00044,73.81691942,
0.00046,-0.196754979,0.00046,73.81691942,
0.00048,-0.196754979,0.00048,73.45148913,
0.0005,-0.5621852732,0.0005,73.81691942,
0.00052,1.630396492,0.00052,73.45148913,
0.00054,-0.9276155673,0.00054,73.45148913,
0.00056,0.8995359035,0.00056,73.45148913,
0.00058,0.5341056094,0.00058,73.81691942,
0.0006,0.1686753152,0.0006,73.45148913,
0.00062,0.5341056094,0.00062,74.18234972,
0.00064,-0.5621852732,0.00064,73.81691942,
0.00066,0.5341056094,0.00066,73.45148913,
0.00068,0.5341056094,0.00068,73.45148913,
0.0007,0.1686753152,0.0007,73.45148913,
0.00072,0.1686753152,0.00072,73.45148913,
0.00074,0.1686753152,0.00074,73.81691942,
0.00076,-0.196754979,0.00076,73.81691942,
0.00078,0.5341056094,0.00078,73.08605883,
0.0008,0.1686753152,0.0008,73.45148913,
0.00082,0.5341056094,0.00082,73.81691942,
0.00084,-0.196754979,0.00084,73.45148913,
0.00086,1.995826786,0.00086,73.81691942,
0.00088,-0.196754979,0.00088,74.18234972,
0.0009,0.1686753152,0.0009,73.08605883,
0.00092,0.5341056094,0.00092,73.81691942,
0.00094,0.5341056094,0.00094,73.45148913,
0.00096,-0.5621852732,0.00096,73.45148913,
0.00098,-0.196754979,0.00098,73.81691942,
0.001,0.5341056094,0.001,73.45148913,
0.00102,0.1686753152,0.00102,73.08605883,
0.00104,0.8995359035,0.00104,73.81691942,
0.00106,1.264966198,0.00106,73.81691942,
0.00108,0.5341056094,0.00108,73.08605883,
0.0011,0.8995359035,0.0011,73.81691942,
0.00112,-0.196754979,0.00112,73.45148913,
0.00114,0.1686753152,0.00114,73.08605883,
0.00116,0.8995359035,0.00116,73.45148913,
0.00118,0.5341056094,0.00118,73.08605883,
0.0012,0.1686753152,0.0012,73.08605883,
0.00122,0.5341056094,0.00122,73.81691942,
0.00124,-0.5621852732,0.00124,73.45148913,
0.00126,-0.5621852732,0.00126,73.08605883,
0.00128,0.5341056094,0.00128,73.81691942,
0.0013,0.8995359035,0.0013,73.81691942,
0.00132,-0.9276155673,0.00132,73.45148913,
0.00134,0.8995359035,0.00134,73.81691942,
0.00136,-0.9276155673,0.00136,73.45148913,
0.00138,0.5341056094,0.00138,73.45148913,
0.0014,1.264966198,0.0014,73.81691942,
0.00142,0.8995359035,0.00142,73.81691942,
0.00144,-0.196754979,0.00144,73.81691942,
0.00146,-0.5621852732,0.00146,73.81691942,
0.00148,1.264966198,0.00148,74.18234972,
0.0015,0.1686753152,0.0015,73.81691942,
0.00152,0.5341056094,0.00152,73.45148913,
0.00154,0.8995359035,0.00154,73.45148913,
0.00156,-0.5621852732,0.00156,72.72062854,
0.00158,0.1686753152,0.00158,73.81691942,
0.0016,0.5341056094,0.0016,73.81691942,
0.00162,0.5341056094,0.00162,73.45148913,
0.00164,1.630396492,0.00164,73.81691942,
0.00166,0.5341056094,0.00166,73.81691942,
0.00168,-0.196754979,0.00168,73.45148913,
0.0017,0.5341056094,0.0017,73.81691942,
0.00172,0.5341056094,0.00172,73.81691942,
0.00174,0.1686753152,0.00174,73.45148913,
0.00176,0.8995359035,0.00176,73.81691942,
0.00178,-0.5621852732,0.00178,73.45148913,
0.0018,0.5341056094,0.0018,74.18234972,
0.00182,0.1686753152,0.00182,73.45148913,
0.00184,-0.9276155673,0.00184,73.81691942,
0.00186,0.5341056094,0.00186,73.81691942,
0.00188,-0.196754979,0.00188,73.81691942,
0.0019,-0.5621852732,0.0019,73.08605883,
0.00192,-0.5621852732,0.00192,74.18234972,
0.00194,0.5341056094,0.00194,73.81691942,
0.00196,0.1686753152,0.00196,73.45148913,
0.00198,0.1686753152,0.00198,74.18234972,
0.002,0.5341056094,0.002,73.81691942,
0.00202,-0.196754979,0.00202,73.45148913,
0.00204,0.5341056094,0.00204,74.18234972,
0.00206,-0.5621852732,0.00206,73.45148913,
0.00208,0.8995359035,0.00208,73.81691942,
0.0021,0.1686753152,0.0021,74.18234972,
0.00212,0.8995359035,0.00212,74.18234972,
0.00214,0.8995359035,0.00214,74.18234972,
0.00216,-0.196754979,0.00216,73.81691942,
0.00218,0.5341056094,0.00218,73.81691942,
0.0022,-0.196754979,0.0022,74.18234972,
0.00222,0.1686753152,0.00222,73.81691942,
0.00224,0.8995359035,0.00224,73.45148913,
0.00226,0.1686753152,0.00226,73.81691942,
0.00228,1.264966198,0.00228,74.18234972,
0.0023,1.264966198,0.0023,73.45148913,
0.00232,0.5341056094,0.00232,73.81691942,
0.00234,0.1686753152,0.00234,73.81691942,
0.00236,0.8995359035,0.00236,74.18234972,
0.00238,1.264966198,0.00238,73.45148913,
0.0024,0.1686753152,0.0024,73.81691942,
0.00242,-0.196754979,0.00242,73.81691942,
0.00244,0.5341056094,0.00244,73.45148913,
0.00246,0.5341056094,0.00246,73.81691942,
0.00248,-0.196754979,0.00248,73.81691942,
0.0025,-0.196754979,0.0025,73.45148913,
0.00252,0.8995359035,0.00252,74.18234972,
0.00254,-0.196754979,0.00254,73.81691942,
0.00256,-0.196754979,0.00256,73.81691942,
0.00258,0.5341056094,0.00258,74.18234972,
0.0026,-0.5621852732,0.0026,73.81691942,
0.00262,-0.196754979,0.00262,73.08605883,
0.00264,0.8995359035,0.00264,74.54778001,
0.00266,0.8995359035,0.00266,73.81691942,
0.00268,0.1686753152,0.00268,73.45148913,
0.0027,0.5341056094,0.0027,74.18234972,
0.00272,-0.9276155673,0.00272,73.81691942,
0.00274,-0.196754979,0.00274,73.81691942,
0.00276,0.1686753152,0.00276,73.81691942,
0.00278,-0.196754979,0.00278,73.81691942,
0.0028,0.8995359035,0.0028,73.45148913,
0.00282,0.8995359035,0.00282,74.18234972,
0.00284,-0.196754979,0.00284,73.45148913,
0.00286,0.1686753152,0.00286,73.45148913,
0.00288,0.8995359035,0.00288,74.18234972,
0.0029,-0.5621852732,0.0029,73.45148913,
0.00292,-0.196754979,0.00292,73.08605883,
0.00294,0.8995359035,0.00294,74.18234972,
0.00296,0.1686753152,0.00296,73.81691942,
0.00298,-0.196754979,0.00298,73.81691942,
0.003,0.1686753152,0.003,74.18234972,
0.00302,0.5341056094,0.00302,73.45148913,
0.00304,0.5341056094,0.00304,73.45148913,
0.00306,0.5341056094,0.00306,74.18234972,
0.00308,-0.196754979,0.00308,73.45148913,
0.0031,0.5341056094,0.0031,73.08605883,
0.00312,0.5341056094,0.00312,74.54778001,
0.00314,0.8995359035,0.00314,73.81691942,
0.00316,0.5341056094,0.00316,73.45148913,
0.00318,-0.5621852732,0.00318,74.18234972,
0.0032,-0.196754979,0.0032,73.45148913,
0.00322,0.1686753152,0.00322,73.45148913,
0.00324,0.5341056094,0.00324,74.54778001,
0.00326,0.1686753152,0.00326,73.81691942,
0.00328,-0.196754979,0.00328,73.45148913,
0.0033,0.5341056094,0.0033,74.18234972,
0.00332,0.5341056094,0.00332,73.45148913,
0.00334,0.5341056094,0.00334,73.45148913,
0.00336,0.5341056094,0.00336,74.18234972,
0.00338,-0.5621852732,0.00338,73.81691942,
0.0034,0.1686753152,0.0034,73.08605883,
0.00342,-0.5621852732,0.00342,74.54778001,
0.00344,-0.196754979,0.00344,73.81691942,
0.00346,0.5341056094,0.00346,73.45148913,
0.00348,0.5341056094,0.00348,74.18234972,
0.0035,-0.196754979,0.0035,73.81691942,
0.00352,-0.9276155673,0.00352,73.81691942,
0.00354,0.1686753152,0.00354,74.18234972,
0.00356,0.8995359035,0.00356,73.08605883,
0.00358,0.8995359035,0.00358,73.81691942,
0.0036,0.1686753152,0.0036,74.18234972,
0.00362,0.5341056094,0.00362,73.45148913,
0.00364,0.1686753152,0.00364,73.45148913,
0.00366,0.8995359035,0.00366,73.81691942,
0.00368,0.1686753152,0.00368,73.81691942,
0.0037,-0.196754979,0.0037,74.54778001,
0.00372,-0.5621852732,0.00372,73.81691942,
0.00374,-0.5621852732,0.00374,73.81691942,
0.00376,0.8995359035,0.00376,73.81691942,
0.00378,1.264966198,0.00378,73.81691942,
0.0038,0.5341056094,0.0038,73.81691942,
0.00382,0.1686753152,0.00382,74.54778001,
0.00384,0.5341056094,0.00384,73.81691942,
0.00386,0.5341056094,0.00386,73.81691942,
0.00388,0.8995359035,0.00388,74.54778001,
0.0039,0.1686753152,0.0039,73.81691942,
0.00392,1.630396492,0.00392,73.81691942,
0.00394,0.5341056094,0.00394,74.18234972,
0.00396,-0.5621852732,0.00396,73.81691942,
0.00398,0.5341056094,0.00398,73.81691942,
0.004,0.5341056094,0.004,74.18234972,
0.00402,0.1686753152,0.00402,73.81691942,
0.00404,0.5341056094,0.00404,73.81691942,
0.00406,0.8995359035,0.00406,74.54778001,
0.00408,-0.5621852732,0.00408,74.18234972,
0.0041,-0.196754979,0.0041,74.18234972,
0.00412,0.5341056094,0.00412,74.18234972,
0.00414,-0.9276155673,0.00414,73.81691942,
0.00416,0.1686753152,0.00416,73.81691942,
0.00418,0.8995359035,0.00418,74.18234972,
0.0042,0.5341056094,0.0042,73.81691942,
0.00422,0.1686753152,0.00422,73.45148913,
0.00424,0.8995359035,0.00424,73.81691942,
0.00426,-0.196754979,0.00426,73.81691942,
0.00428,0.8995359035,0.00428,73.45148913,
0.0043,1.630396492,0.0043,74.18234972,
0.00432,0.5341056094,0.00432,73.81691942,
0.00434,0.8995359035,0.00434,73.81691942,
0.00436,-0.196754979,0.00436,74.54778001,
0.00438,-0.5621852732,0.00438,73.81691942,
0.0044,0.8995359035,0.0044,73.81691942,
0.00442,0.5341056094,0.00442,73.81691942,
0.00444,-0.196754979,0.00444,73.81691942,
0.00446,0.8995359035,0.00446,73.45148913,
0.00448,0.5341056094,0.00448,73.81691942,
0.0045,-0.196754979,0.0045,73.45148913,
0.00452,1.264966198,0.00452,73.81691942,
0.00454,0.1686753152,0.00454,74.18234972,
0.00456,0.5341056094,0.00456,73.81691942,
0.00458,0.1686753152,0.00458,73.81691942,
0.0046,1.264966198,0.0046,74.18234972,
0.00462,0.5341056094,0.00462,74.18234972,
0.00464,1.630396492,0.00464,73.45148913,
0.00466,0.1686753152,0.00466,73.81691942,
0.00468,0.1686753152,0.00468,73.81691942,
0.0047,0.8995359035,0.0047,73.81691942,
0.00472,-0.196754979,0.00472,74.18234972,
0.00474,-0.5621852732,0.00474,73.81691942,
0.00476,1.264966198,0.00476,73.45148913,
0.00478,0.1686753152,0.00478,74.18234972,
0.0048,-0.196754979,0.0048,73.81691942,
0.00482,-0.196754979,0.00482,73.45148913,
0.00484,-0.5621852732,0.00484,73.81691942,
0.00486,0.5341056094,0.00486,73.81691942,
0.00488,0.5341056094,0.00488,73.81691942,
0.0049,-0.5621852732,0.0049,73.81691942,
0.00492,-0.5621852732,0.00492,74.18234972,
0.00494,0.5341056094,0.00494,73.45148913,
0.00496,-0.196754979,0.00496,74.18234972,
0.00498,0.1686753152,0.00498,73.81691942,
0.005,1.264966198,0.005,73.45148913,
0.00502,-0.5621852732,0.00502,74.18234972,
0.00504,0.8995359035,0.00504,73.81691942,
0.00506,0.1686753152,0.00506,73.81691942,
0.00508,-0.5621852732,0.00508,74.18234972,
0.0051,0.8995359035,0.0051,73.81691942,
0.00512,0.5341056094,0.00512,73.81691942,
0.00514,0.1686753152,0.00514,73.81691942,
0.00516,0.5341056094,0.00516,73.45148913,
0.00518,0.1686753152,0.00518,74.18234972,
0.0052,0.5341056094,0.0052,74.18234972,
0.00522,-0.5621852732,0.00522,73.81691942,
0.00524,1.264966198,0.00524,73.45148913,
0.00526,0.1686753152,0.00526,74.18234972,
0.00528,0.5341056094,0.00528,74.18234972,
0.0053,0.1686753152,0.0053,73.81691942,
0.00532,0.8995359035,0.00532,74.18234972,
0.00534,-0.5621852732,0.00534,73.45148913,
0.00536,0.8995359035,0.00536,73.81691942,
0.00538,1.264966198,0.00538,74.18234972,
0.0054,-0.5621852732,0.0054,73.81691942,
0.00542,0.5341056094,0.00542,73.81691942,
0.00544,-0.196754979,0.00544,73.81691942,
0.00546,-0.5621852732,0.00546,73.81691942,
0.00548,0.5341056094,0.00548,73.81691942,
0.0055,0.5341056094,0.0055,74.54778001,
0.00552,-0.196754979,0.00552,73.45148913,
0.00554,0.1686753152,0.00554,73.45148913,
0.00556,-0.196754979,0.00556,74.18234972,
0.00558,0.8995359035,0.00558,73.45148913,
0.0056,-0.196754979,0.0056,73.81691942,
0.00562,-0.5621852732,0.00562,73.08605883,
0.00564,0.5341056094,0.00564,73.81691942,
0.00566,0.8995359035,0.00566,73.81691942,
0.00568,-0.196754979,0.00568,73.45148913,
0.0057,1.995826786,0.0057,73.45148913,
0.00572,0.1686753152,0.00572,73.81691942,
0.00574,-0.196754979,0.00574,73.08605883,
0.00576,0.5341056094,0.00576,73.45148913,
0.00578,0.1686753152,0.00578,73.81691942,
0.0058,0.5341056094,0.0058,73.08605883,
0.00582,0.8995359035,0.00582,73.45148913,
0.00584,-0.196754979,0.00584,73.45148913,
0.00586,-0.196754979,0.00586,73.45148913,
0.00588,0.5341056094,0.00588,73.81691942,
0.0059,0.1686753152,0.0059,73.45148913,
0.00592,0.1686753152,0.00592,73.45148913,
0.00594,-0.196754979,0.00594,73.81691942,
0.00596,-0.196754979,0.00596,74.18234972,
0.00598,1.264966198,0.00598,73.08605883,
0.006,0.1686753152,0.006,73.45148913,
0.00602,0.5341056094,0.00602,73.81691942,
0.00604,0.8995359035,0.00604,73.08605883,
0.00606,1.264966198,0.00606,73.08605883,
0.00608,0.5341056094,0.00608,73.81691942,
0.0061,0.1686753152,0.0061,73.08605883,
0.00612,0.5341056094,0.00612,73.45148913,
0.00614,0.8995359035,0.00614,73.81691942,
0.00616,0.5341056094,0.00616,73.45148913,
0.00618,0.5341056094,0.00618,73.81691942,
0.0062,0.1686753152,0.0062,73.45148913,
0.00622,0.5341056094,0.00622,73.08605883,
0.00624,1.995826786,0.00624,73.45148913,
0.00626,-0.9276155673,0.00626,73.45148913,
0.00628,0.5341056094,0.00628,73.81691942,
0.0063,0.1686753152,0.0063,73.81691942,
0.00632,0.5341056094,0.00632,73.81691942,
0.00634,0.1686753152,0.00634,73.45148913,
0.00636,0.8995359035,0.00636,73.45148913,
0.00638,0.1686753152,0.00638,73.45148913,
0.0064,1.264966198,0.0064,73.08605883,
0.00642,1.264966198,0.00642,73.45148913,
0.00644,0.5341056094,0.00644,73.81691942,
0.00646,-0.196754979,0.00646,73.45148913,
0.00648,0.8995359035,0.00648,73.45148913,
0.0065,0.5341056094,0.0065,73.81691942,
0.00652,0.1686753152,0.00652,73.08605883,
0.00654,-0.196754979,0.00654,73.81691942,
0.00656,0.1686753152,0.00656,73.81691942,
0.00658,-0.5621852732,0.00658,73.45148913,
0.0066,1.264966198,0.0066,73.45148913,
0.00662,0.8995359035,0.00662,73.45148913,
0.00664,0.5341056094,0.00664,73.45148913,
0.00666,1.630396492,0.00666,73.81691942,
0.00668,0.5341056094,0.00668,73.45148913,
0.0067,0.8995359035,0.0067,73.08605883,
0.00672,0.8995359035,0.00672,73.08605883,
0.00674,1.264966198,0.00674,73.45148913,
0.00676,0.8995359035,0.00676,73.45148913,
0.00678,0.8995359035,0.00678,73.81691942,
0.0068,0.8995359035,0.0068,73.81691942,
0.00682,0.1686753152,0.00682,73.45148913,
0.00684,1.630396492,0.00684,73.45148913,
0.00686,-0.5621852732,0.00686,73.81691942,
0.00688,0.5341056094,0.00688,73.08605883,
0.0069,0.8995359035,0.0069,73.81691942,
0.00692,0.8995359035,0.00692,73.45148913,
0.00694,0.1686753152,0.00694,73.08605883,
0.00696,-0.196754979,0.00696,73.45148913,
0.00698,0.5341056094,0.00698,73.45148913,
0.007,0.8995359035,0.007,73.45148913,
0.00702,1.264966198,0.00702,73.81691942,
0.00704,0.5341056094,0.00704,73.81691942,
0.00706,0.1686753152,0.00706,73.45148913,
0.00708,0.1686753152,0.00708,73.45148913,
0.0071,-0.5621852732,0.0071,73.81691942,
0.00712,-0.5621852732,0.00712,73.08605883,
0.00714,0.1686753152,0.00714,73.45148913,
0.00716,-0.5621852732,0.00716,73.81691942,
0.00718,0.1686753152,0.00718,73.45148913,
0.0072,0.1686753152,0.0072,73.81691942,
0.00722,0.1686753152,0.00722,73.81691942,
0.00724,0.8995359035,0.00724,73.81691942,
0.00726,0.5341056094,0.00726,74.18234972,
0.00728,0.5341056094,0.00728,74.18234972,
0.0073,1.264966198,0.0073,73.81691942,
0.00732,0.5341056094,0.00732,73.81691942,
0.00734,-0.196754979,0.00734,74.18234972,
0.00736,0.1686753152,0.00736,73.81691942,
0.00738,0.5341056094,0.00738,73.81691942,
0.0074,1.264966198,0.0074,73.81691942,
0.00742,0.5341056094,0.00742,73.81691942,
0.00744,0.5341056094,0.00744,74.18234972,
0.00746,0.8995359035,0.00746,74.18234972,
0.00748,0.8995359035,0.00748,74.18234972,
0.0075,0.5341056094,0.0075,74.18234972,
0.00752,0.1686753152,0.00752,74.18234972,
0.00754,0.8995359035,0.00754,73.81691942,
0.00756,0.8995359035,0.00756,73.81691942,
0.00758,0.1686753152,0.00758,73.08605883,
0.0076,1.264966198,0.0076,73.81691942,
0.00762,0.1686753152,0.00762,73.81691942,
0.00764,0.1686753152,0.00764,73.45148913,
0.00766,1.264966198,0.00766,73.45148913,
0.00768,0.5341056094,0.00768,73.81691942,
0.0077,1.630396492,0.0077,73.45148913,
0.00772,0.8995359035,0.00772,73.81691942,
0.00774,-0.9276155673,0.00774,74.18234972,
0.00776,0.5341056094,0.00776,73.81691942,
0.00778,0.8995359035,0.00778,73.45148913,
0.0078,-0.9276155673,0.0078,73.45148913,
0.00782,0.1686753152,0.00782,73.45148913,
0.00784,0.5341056094,0.00784,73.45148913,
0.00786,0.8995359035,0.00786,73.45148913,
0.00788,0.1686753152,0.00788,73.45148913,
0.0079,0.8995359035,0.0079,73.45148913,
0.00792,0.5341056094,0.00792,73.81691942,
0.00794,-0.196754979,0.00794,73.08605883,
0.00796,-0.196754979,0.00796,73.45148913,
0.00798,0.5341056094,0.00798,73.81691942,
0.008,-0.196754979,0.008,73.08605883,
0.00802,1.264966198,0.00802,73.81691942,
0.00804,0.1686753152,0.00804,73.08605883,
0.00806,0.1686753152,0.00806,73.45148913,
0.00808,0.8995359035,0.00808,73.81691942,
0.0081,0.5341056094,0.0081,73.45148913,
0.00812,-0.196754979,0.00812,73.08605883,
0.00814,0.8995359035,0.00814,73.81691942,
0.00816,0.8995359035,0.00816,73.45148913,
0.00818,0.5341056094,0.00818,73.08605883,
0.0082,0.8995359035,0.0082,73.45148913,
0.00822,0.5341056094,0.00822,73.81691942,
0.00824,-0.196754979,0.00824,73.45148913,
0.00826,0.5341056094,0.00826,73.81691942,
0.00828,0.5341056094,0.00828,73.81691942,
0.0083,0.8995359035,0.0083,73.08605883,
0.00832,0.1686753152,0.00832,73.81691942,
0.00834,-0.5621852732,0.00834,73.45148913,
0.00836,0.8995359035,0.00836,73.81691942,
0.00838,1.264966198,0.00838,73.81691942,
0.0084,0.5341056094,0.0084,73.81691942,
0.00842,0.5341056094,0.00842,73.08605883,
0.00844,0.8995359035,0.00844,73.81691942,
0.00846,-0.196754979,0.00846,74.18234972,
0.00848,-0.196754979,0.00848,73.81691942,
0.0085,0.8995359035,0.0085,73.81691942,
0.00852,0.5341056094,0.00852,74.18234972,
0.00854,1.264966198,0.00854,73.81691942,
0.00856,-0.5621852732,0.00856,74.18234972,
0.00858,0.5341056094,0.00858,73.81691942,
0.0086,0.8995359035,0.0086,73.45148913,
0.00862,0.5341056094,0.00862,74.18234972,
0.00864,0.8995359035,0.00864,74.18234972,
0.00866,0.1686753152,0.00866,73.81691942,
0.00868,1.630396492,0.00868,73.81691942,
0.0087,0.8995359035,0.0087,74.18234972,
0.00872,0.8995359035,0.00872,73.81691942,
0.00874,0.5341056094,0.00874,73.81691942,
0.00876,0.5341056094,0.00876,73.81691942,
0.00878,0.8995359035,0.00878,73.81691942,
0.0088,0.1686753152,0.0088,73.81691942,
0.00882,-0.5621852732,0.00882,73.81691942,
0.00884,1.264966198,0.00884,73.81691942,
0.00886,0.8995359035,0.00886,73.81691942,
0.00888,-0.5621852732,0.00888,73.81691942,
0.0089,0.5341056094,0.0089,73.81691942,
0.00892,0.8995359035,0.00892,73.81691942,
0.00894,0.1686753152,0.00894,73.81691942,
0.00896,0.5341056094,0.00896,73.45148913,
0.00898,0.1686753152,0.00898,73.81691942,
0.009,0.1686753152,0.009,73.81691942,
0.00902,1.264966198,0.00902,73.81691942,
0.00904,0.8995359035,0.00904,73.45148913,
0.00906,0.5341056094,0.00906,73.81691942,
0.00908,0.5341056094,0.00908,73.81691942,
0.0091,0.1686753152,0.0091,73.81691942,
0.00912,1.630396492,0.00912,73.81691942,
0.00914,0.5341056094,0.00914,73.81691942,
0.00916,0.8995359035,0.00916,73.81691942,
0.00918,0.1686753152,0.00918,74.18234972,
0.0092,1.264966198,0.0092,73.81691942,
0.00922,0.5341056094,0.00922,73.81691942,
0.00924,0.1686753152,0.00924,73.81691942,
0.00926,0.8995359035,0.00926,73.81691942,
0.00928,1.264966198,0.00928,73.81691942,
0.0093,0.8995359035,0.0093,73.81691942,
0.00932,0.5341056094,0.00932,73.81691942,
0.00934,0.5341056094,0.00934,73.45148913,
0.00936,0.1686753152,0.00936,73.81691942,
0.00938,1.630396492,0.00938,73.81691942,
0.0094,0.1686753152,0.0094,74.54778001,
0.00942,-0.196754979,0.00942,74.18234972,
0.00944,0.5341056094,0.00944,74.18234972,
0.00946,0.1686753152,0.00946,73.81691942,
0.00948,1.264966198,0.00948,73.81691942,
0.0095,-0.196754979,0.0095,73.81691942,
0.00952,1.264966198,0.00952,73.45148913,
0.00954,0.5341056094,0.00954,74.18234972,
0.00956,0.1686753152,0.00956,73.81691942,
0.00958,0.5341056094,0.00958,74.18234972,
0.0096,-0.196754979,0.0096,73.81691942,
0.00962,-0.196754979,0.00962,73.81691942,
0.00964,0.5341056094,0.00964,73.81691942,
0.00966,-0.5621852732,0.00966,74.18234972,
0.00968,-0.196754979,0.00968,73.81691942,
0.0097,0.1686753152,0.0097,73.45148913,
0.00972,-0.196754979,0.00972,74.18234972,
0.00974,-0.196754979,0.00974,73.45148913,
0.00976,0.1686753152,0.00976,73.45148913,
0.00978,0.8995359035,0.00978,74.18234972,
0.0098,-0.9276155673,0.0098,73.81691942,
0.00982,1.264966198,0.00982,73.45148913,
0.00984,1.264966198,0.00984,73.81691942,
0.00986,0.1686753152,0.00986,73.81691942,
0.00988,1.264966198,0.00988,73.81691942,
0.0099,0.8995359035,0.0099,73.81691942,
0.00992,-0.196754979,0.00992,73.81691942,
0.00994,0.1686753152,0.00994,73.45148913,
0.00996,0.5341056094,0.00996,74.18234972,
0.00998,-0.5621852732,0.00998,73.81691942,
0.01,1.995826786,0.01,73.45148913,
0.01002,-0.196754979,0.01002,74.18234972,
0.01004,-0.9276155673,0.01004,73.45148913,
0.01006,1.264966198,0.01006,74.18234972,
0.01008,-0.196754979,0.01008,73.81691942,
0.0101,0.8995359035,0.0101,73.45148913,
0.01012,1.630396492,0.01012,73.81691942,
0.01014,-0.196754979,0.01014,73.81691942,
0.01016,-0.196754979,0.01016,74.18234972,
0.01018,0.5341056094,0.01018,73.81691942,
0.0102,-0.196754979,0.0102,73.81691942,
0.01022,-0.5621852732,0.01022,73.81691942,
0.01024,1.630396492,0.01024,73.45148913,
0.01026,-0.196754979,0.01026,74.18234972,
0.01028,0.1686753152,0.01028,73.81691942,
0.0103,0.1686753152,0.0103,73.81691942,
0.01032,-0.196754979,0.01032,74.18234972,
0.01034,-0.5621852732,0.01034,73.45148913,
0.01036,-0.5621852732,0.01036,73.81691942,
0.01038,-0.5621852732,0.01038,74.18234972,
0.0104,-0.196754979,0.0104,73.81691942,
0.01042,0.8995359035,0.01042,73.45148913,
0.01044,1.264966198,0.01044,74.18234972,
0.01046,-1.658476156,0.01046,73.45148913,
0.01048,0.8995359035,0.01048,73.81691942,
0.0105,0.8995359035,0.0105,74.18234972,
0.01052,0.5341056094,0.01052,73.81691942,
0.01054,0.1686753152,0.01054,73.81691942,
0.01056,-0.196754979,0.01056,74.18234972,
0.01058,-0.5621852732,0.01058,73.81691942,
0.0106,0.5341056094,0.0106,73.45148913,
0.01062,1.264966198,0.01062,74.18234972,
0.01064,-0.5621852732,0.01064,73.81691942,
0.01066,1.264966198,0.01066,73.81691942,
0.01068,0.1686753152,0.01068,74.18234972,
0.0107,0.1686753152,0.0107,73.81691942,
0.01072,0.5341056094,0.01072,73.45148913,
0.01074,0.1686753152,0.01074,74.18234972,
0.01076,-0.196754979,0.01076,73.81691942,
0.01078,0.8995359035,0.01078,73.81691942,
0.0108,0.8995359035,0.0108,73.81691942,
0.01082,-0.196754979,0.01082,73.81691942,
0.01084,0.1686753152,0.01084,73.45148913,
0.01086,0.8995359035,0.01086,74.18234972,
0.01088,-0.5621852732,0.01088,74.18234972,
0.0109,1.264966198,0.0109,73.45148913,
0.01092,0.5341056094,0.01092,74.18234972,
0.01094,0.5341056094,0.01094,73.81691942,
0.01096,0.1686753152,0.01096,73.45148913,
0.01098,1.264966198,0.01098,74.18234972,
0.011,-0.5621852732,0.011,74.18234972,
0.01102,0.5341056094,0.01102,73.45148913,
0.01104,0.8995359035,0.01104,74.18234972,
0.01106,-0.196754979,0.01106,74.18234972,
0.01108,0.5341056094,0.01108,73.81691942,
0.0111,0.5341056094,0.0111,74.18234972,
0.01112,-0.196754979,0.01112,73.81691942,
0.01114,0.5341056094,0.01114,73.08605883,
0.01116,0.1686753152,0.01116,74.18234972,
0.01118,-0.5621852732,0.01118,73.81691942,
0.0112,1.264966198,0.0112,73.45148913,
0.01122,0.5341056094,0.01122,73.81691942,
0.01124,-0.196754979,0.01124,73.81691942,
0.01126,0.5341056094,0.01126,73.81691942,
0.01128,1.264966198,0.01128,73.81691942,
0.0113,-0.196754979,0.0113,73.45148913,
0.01132,0.1686753152,0.01132,73.81691942,
0.01134,0.1686753152,0.01134,73.81691942,
0.01136,0.1686753152,0.01136,73.08605883,
0.01138,0.1686753152,0.01138,73.45148913,
0.0114,-0.196754979,0.0114,73.45148913,
0.01142,0.1686753152,0.01142,73.08605883,
0.01144,0.8995359035,0.01144,73.45148913,
0.01146,0.1686753152,0.01146,73.81691942,
0.01148,0.1686753152,0.01148,73.45148913,
0.0115,1.630396492,0.0115,73.81691942,
0.01152,0.5341056094,0.01152,73.08605883,
0.01154,-0.5621852732,0.01154,73.08605883,
0.01156,0.5341056094,0.01156,73.45148913,
0.01158,0.8995359035,0.01158,73.81691942,
0.0116,0.8995359035,0.0116,73.08605883,
0.01162,0.8995359035,0.01162,73.81691942,
0.01164,0.1686753152,0.01164,73.45148913,
0.01166,0.5341056094,0.01166,73.45148913,
0.01168,1.264966198,0.01168,73.81691942,
0.0117,0.5341056094,0.0117,73.45148913,
0.01172,0.5341056094,0.01172,73.08605883,
0.01174,1.264966198,0.01174,73.45148913,
0.01176,-0.196754979,0.01176,73.81691942,
0.01178,-0.196754979,0.01178,73.08605883,
0.0118,0.8995359035,0.0118,73.81691942,
0.01182,0.5341056094,0.01182,73.45148913,
0.01184,0.1686753152,0.01184,73.08605883,
0.01186,0.5341056094,0.01186,73.81691942,
0.01188,0.1686753152,0.01188,73.45148913,
0.0119,-0.9276155673,0.0119,73.45148913,
0.01192,0.8995359035,0.01192,73.45148913,
0.01194,0.5341056094,0.01194,73.45148913,
0.01196,-0.196754979,0.01196,73.08605883,
0.01198,1.264966198,0.01198,73.45148913,
0.012,1.630396492,0.012,73.81691942,
0.01202,-0.196754979,0.01202,73.45148913,
0.01204,-0.196754979,0.01204,73.81691942,
0.01206,0.5341056094,0.01206,73.45148913,
0.01208,-0.5621852732,0.01208,73.08605883,
0.0121,1.264966198,0.0121,73.45148913,
0.01212,0.8995359035,0.01212,73.81691942,
0.01214,-0.196754979,0.01214,73.45148913,
0.01216,1.995826786,0.01216,73.81691942,
0.01218,0.1686753152,0.01218,73.45148913,
0.0122,-0.196754979,0.0122,73.45148913,
0.01222,1.264966198,0.01222,73.81691942,
0.01224,0.1686753152,0.01224,73.81691942,
0.01226,-0.196754979,0.01226,73.08605883,
0.01228,1.264966198,0.01228,73.81691942,
0.0123,0.8995359035,0.0123,73.81691942,
0.01232,0.1686753152,0.01232,73.81691942,
0.01234,-0.196754979,0.01234,74.18234972,
0.01236,0.8995359035,0.01236,73.81691942,
0.01238,-0.5621852732,0.01238,74.18234972,
0.0124,0.5341056094,0.0124,74.18234972,
0.01242,0.1686753152,0.01242,73.45148913,
0.01244,0.8995359035,0.01244,73.81691942,
0.01246,0.8995359035,0.01246,74.18234972,
0.01248,0.1686753152,0.01248,73.81691942,
0.0125,-0.5621852732,0.0125,73.81691942,
0.01252,0.5341056094,0.01252,73.81691942,
0.01254,0.8995359035,0.01254,73.81691942,
0.01256,-0.196754979,0.01256,73.81691942,
0.01258,-0.5621852732,0.01258,73.81691942,
0.0126,-0.5621852732,0.0126,73.81691942,
0.01262,0.8995359035,0.01262,73.81691942,
0.01264,-0.5621852732,0.01264,73.45148913,
0.01266,0.1686753152,0.01266,73.81691942,
0.01268,0.5341056094,0.01268,73.81691942,
0.0127,0.1686753152,0.0127,73.45148913,
0.01272,1.630396492,0.01272,73.81691942,
0.01274,0.1686753152,0.01274,74.18234972,
0.01276,0.1686753152,0.01276,73.81691942,
0.01278,0.1686753152,0.01278,74.18234972,
0.0128,-0.5621852732,0.0128,74.18234972,
0.01282,0.5341056094,0.01282,73.81691942,
0.01284,0.1686753152,0.01284,74.18234972,
0.01286,0.1686753152,0.01286,73.45148913,
0.01288,1.264966198,0.01288,73.45148913,
0.0129,0.1686753152,0.0129,74.18234972,
0.01292,-0.5621852732,0.01292,73.45148913,
0.01294,-0.5621852732,0.01294,73.45148913,
0.01296,-0.196754979,0.01296,73.81691942,
0.01298,-0.196754979,0.01298,73.45148913,
0.013,0.8995359035,0.013,73.45148913,
0.01302,0.1686753152,0.01302,74.18234972,
0.01304,-1.293045862,0.01304,73.81691942,
0.01306,-0.5621852732,0.01306,73.45148913,
0.01308,0.1686753152,0.01308,74.18234972,
0.0131,-1.293045862,0.0131,73.45148913,
0.01312,-0.5621852732,0.01312,73.08605883,
0.01314,0.8995359035,0.01314,74.18234972,
0.01316,0.8995359035,0.01316,73.08605883,
0.01318,0.1686753152,0.01318,73.45148913,
0.0132,0.5341056094,0.0132,73.45148913,
0.01322,-0.5621852732,0.01322,73.45148913,
0.01324,0.5341056094,0.01324,73.08605883,
0.01326,-0.196754979,0.01326,73.81691942,
0.01328,-0.196754979,0.01328,73.45148913,
0.0133,0.1686753152,0.0133,73.08605883,
0.01332,-0.196754979,0.01332,74.18234972,
0.01334,-0.5621852732,0.01334,73.45148913,
0.01336,1.630396492,0.01336,73.08605883,
0.01338,0.8995359035,0.01338,73.81691942,
0.0134,-0.196754979,0.0134,73.45148913,
0.01342,-0.196754979,0.01342,73.45148913,
0.01344,-0.5621852732,0.01344,74.18234972,
0.01346,0.5341056094,0.01346,73.81691942,
0.01348,-0.196754979,0.01348,73.08605883,
0.0135,0.8995359035,0.0135,73.81691942,
0.01352,-0.5621852732,0.01352,73.45148913,
0.01354,0.8995359035,0.01354,73.45148913,
0.01356,0.1686753152,0.01356,74.54778001,
0.01358,-0.196754979,0.01358,73.81691942,
0.0136,0.1686753152,0.0136,73.45148913,
0.01362,1.630396492,0.01362,73.81691942,
0.01364,-0.196754979,0.01364,73.81691942,
0.01366,0.5341056094,0.01366,73.45148913,
0.01368,0.1686753152,0.01368,74.18234972,
0.0137,-0.9276155673,0.0137,73.81691942,
0.01372,-0.196754979,0.01372,73.45148913,
0.01374,0.1686753152,0.01374,73.81691942,
0.01376,-0.9276155673,0.01376,73.45148913,
0.01378,0.1686753152,0.01378,73.45148913,
0.0138,0.5341056094,0.0138,73.81691942,
0.01382,-0.196754979,0.01382,73.08605883,
0.01384,0.1686753152,0.01384,73.45148913,
0.01386,1.264966198,0.01386,74.18234972,
0.01388,-0.5621852732,0.01388,73.81691942,
0.0139,-0.196754979,0.0139,73.45148913,
0.01392,-0.9276155673,0.01392,74.18234972,
0.01394,-0.5621852732,0.01394,73.81691942,
0.01396,-0.9276155673,0.01396,73.45148913,
0.01398,0.1686753152,0.01398,74.18234972,
0.014,-0.5621852732,0.014,74.18234972,
0.01402,-0.196754979,0.01402,73.45148913,
0.01404,0.1686753152,0.01404,73.81691942,
0.01406,0.1686753152,0.01406,73.81691942,
0.01408,-0.196754979,0.01408,73.45148913,
0.0141,0.1686753152,0.0141,73.81691942,
0.01412,-0.9276155673,0.01412,73.45148913,
0.01414,-1.658476156,0.01414,73.45148913,
0.01416,0.5341056094,0.01416,74.54778001,
0.01418,-0.5621852732,0.01418,73.81691942,
0.0142,-0.9276155673,0.0142,73.45148913,
0.01422,0.8995359035,0.01422,73.81691942,
0.01424,-0.196754979,0.01424,73.45148913,
0.01426,0.1686753152,0.01426,73.45148913,
0.01428,0.5341056094,0.01428,74.18234972,
0.0143,0.1686753152,0.0143,73.45148913,
0.01432,0.1686753152,0.01432,73.45148913,
0.01434,0.5341056094,0.01434,74.18234972,
0.01436,0.5341056094,0.01436,73.81691942,
0.01438,0.8995359035,0.01438,73.81691942,
0.0144,0.1686753152,0.0144,74.54778001,
0.01442,-0.196754979,0.01442,73.81691942,
0.01444,0.8995359035,0.01444,73.45148913,
0.01446,0.8995359035,0.01446,73.81691942,
0.01448,0.1686753152,0.01448,73.45148913,
0.0145,0.1686753152,0.0145,73.45148913,
0.01452,-0.196754979,0.01452,74.18234972,
0.01454,-0.9276155673,0.01454,73.81691942,
0.01456,0.1686753152,0.01456,73.45148913,
0.01458,0.5341056094,0.01458,74.18234972,
0.0146,-1.293045862,0.0146,73.81691942,
0.01462,-0.196754979,0.01462,73.45148913,
0.01464,0.5341056094,0.01464,74.54778001,
0.01466,0.8995359035,0.01466,73.45148913,
0.01468,0.1686753152,0.01468,73.45148913,
0.0147,0.5341056094,0.0147,73.81691942,
0.01472,-0.196754979,0.01472,73.45148913,
0.01474,-0.196754979,0.01474,73.45148913,
0.01476,-0.196754979,0.01476,73.81691942,
0.01478,-0.196754979,0.01478,73.45148913,
0.0148,-0.5621852732,0.0148,73.81691942,
0.01482,-0.5621852732,0.01482,74.18234972,
0.01484,-0.5621852732,0.01484,73.45148913,
0.01486,-0.5621852732,0.01486,73.08605883,
0.01488,0.8995359035,0.01488,74.18234972,
0.0149,-0.196754979,0.0149,73.45148913,
0.01492,-0.196754979,0.01492,73.81691942,
0.01494,0.1686753152,0.01494,74.18234972,
0.01496,0.1686753152,0.01496,73.45148913,
0.01498,-0.196754979,0.01498,73.08605883,
0.015,-0.196754979,0.015,73.81691942,
0.01502,0.1686753152,0.01502,73.45148913,
0.01504,0.5341056094,0.01504,73.45148913,
0.01506,1.264966198,0.01506,73.81691942,
0.01508,0.1686753152,0.01508,73.81691942,
0.0151,0.1686753152,0.0151,73.81691942,
0.01512,0.8995359035,0.01512,73.81691942,
0.01514,-0.196754979,0.01514,73.45148913,
0.01516,0.1686753152,0.01516,73.45148913,
0.01518,0.1686753152,0.01518,74.18234972,
0.0152,-0.5621852732,0.0152,73.81691942,
0.01522,0.5341056094,0.01522,73.45148913,
0.01524,1.264966198,0.01524,73.81691942,
0.01526,-1.293045862,0.01526,73.45148913,
0.01528,0.1686753152,0.01528,73.45148913,
0.0153,0.5341056094,0.0153,73.81691942,
0.01532,-0.196754979,0.01532,73.81691942,
0.01534,0.5341056094,0.01534,73.45148913,
0.01536,0.1686753152,0.01536,74.18234972,
0.01538,-0.5621852732,0.01538,73.81691942,
0.0154,0.1686753152,0.0154,73.81691942,
0.01542,1.264966198,0.01542,74.18234972,
0.01544,-0.9276155673,0.01544,73.81691942,
0.01546,0.8995359035,0.01546,73.45148913,
0.01548,0.5341056094,0.01548,74.18234972,
0.0155,-0.9276155673,0.0155,73.81691942,
0.01552,0.5341056094,0.01552,73.45148913,
0.01554,1.630396492,0.01554,74.18234972,
0.01556,0.5341056094,0.01556,74.18234972,
0.01558,-0.5621852732,0.01558,73.81691942,
0.0156,0.1686753152,0.0156,74.18234972,
0.01562,-0.5621852732,0.01562,73.81691942,
0.01564,-0.5621852732,0.01564,73.45148913,
0.01566,1.995826786,0.01566,73.81691942,
0.01568,0.1686753152,0.01568,73.81691942,
0.0157,0.8995359035,0.0157,73.81691942,
0.01572,1.264966198,0.01572,73.81691942,
0.01574,-0.196754979,0.01574,73.45148913,
0.01576,0.5341056094,0.01576,73.81691942,
0.01578,-0.196754979,0.01578,74.18234972,
0.0158,-0.9276155673,0.0158,73.81691942,
0.01582,0.8995359035,0.01582,73.45148913,
0.01584,0.5341056094,0.01584,74.18234972,
0.01586,-0.196754979,0.01586,74.18234972,
0.01588,0.1686753152,0.01588,73.81691942,
0.0159,0.8995359035,0.0159,74.18234972,
0.01592,0.1686753152,0.01592,73.81691942,
0.01594,0.8995359035,0.01594,73.81691942,
0.01596,0.1686753152,0.01596,74.18234972,
0.01598,0.5341056094,0.01598,73.45148913,
0.016,0.5341056094,0.016,73.81691942,
0.01602,1.264966198,0.01602,74.18234972,
0.01604,-0.5621852732,0.01604,73.81691942,
0.01606,0.8995359035,0.01606,73.45148913,
0.01608,-0.196754979,0.01608,73.81691942,
0.0161,0.5341056094,0.0161,74.18234972,
0.01612,0.1686753152,0.01612,73.81691942,
0.01614,0.1686753152,0.01614,73.81691942,
0.01616,0.1686753152,0.01616,73.45148913,
0.01618,0.1686753152,0.01618,73.81691942,
0.0162,1.264966198,0.0162,74.18234972,
0.01622,-1.293045862,0.01622,73.81691942,
0.01624,0.5341056094,0.01624,73.81691942,
0.01626,0.5341056094,0.01626,73.81691942,
0.01628,-0.5621852732,0.01628,73.81691942,
0.0163,-0.196754979,0.0163,73.45148913,
0.01632,0.5341056094,0.01632,73.81691942,
0.01634,-0.196754979,0.01634,73.45148913,
0.01636,0.5341056094,0.01636,73.45148913,
0.01638,0.1686753152,0.01638,73.81691942,
0.0164,-0.196754979,0.0164,74.18234972,
0.01642,0.8995359035,0.01642,73.45148913,
0.01644,0.5341056094,0.01644,74.18234972,
0.01646,-0.5621852732,0.01646,73.81691942,
0.01648,0.1686753152,0.01648,73.81691942,
0.0165,-0.196754979,0.0165,74.18234972,
0.01652,0.1686753152,0.01652,73.45148913,
0.01654,0.8995359035,0.01654,73.45148913,
0.01656,0.8995359035,0.01656,74.18234972,
0.01658,0.8995359035,0.01658,73.81691942,
0.0166,0.5341056094,0.0166,73.08605883,
0.01662,1.264966198,0.01662,73.81691942,
0.01664,-0.196754979,0.01664,73.45148913,
0.01666,0.8995359035,0.01666,73.81691942,
0.01668,-0.9276155673,0.01668,74.18234972,
0.0167,1.630396492,0.0167,73.81691942,
0.01672,0.5341056094,0.01672,73.45148913,
0.01674,-0.5621852732,0.01674,74.18234972,
0.01676,0.1686753152,0.01676,73.45148913,
0.01678,0.8995359035,0.01678,74.18234972,
0.0168,0.5341056094,0.0168,73.81691942,
0.01682,-0.196754979,0.01682,73.81691942,
0.01684,0.8995359035,0.01684,73.45148913,
0.01686,0.8995359035,0.01686,74.18234972,
0.01688,0.1686753152,0.01688,73.81691942,
0.0169,1.995826786,0.0169,73.45148913,
0.01692,-0.5621852732,0.01692,73.81691942,
0.01694,-0.196754979,0.01694,73.45148913,
0.01696,0.8995359035,0.01696,73.45148913,
0.01698,0.8995359035,0.01698,73.45148913,
0.017,0.5341056094,0.017,73.81691942,
0.01702,1.264966198,0.01702,73.08605883,
0.01704,0.1686753152,0.01704,73.08605883,
0.01706,1.264966198,0.01706,73.45148913,
0.01708,0.1686753152,0.01708,73.45148913,
0.0171,0.1686753152,0.0171,73.08605883,
0.01712,0.1686753152,0.01712,73.45148913,
0.01714,0.8995359035,0.01714,73.45148913,
0.01716,-0.9276155673,0.01716,73.08605883,
0.01718,0.8995359035,0.01718,73.45148913,
0.0172,0.5341056094,0.0172,73.45148913,
0.01722,-0.9276155673,0.01722,73.08605883,
0.01724,0.5341056094,0.01724,73.81691942,
0.01726,0.5341056094,0.01726,73.81691942,
0.01728,-0.196754979,0.01728,73.45148913,
0.0173,0.8995359035,0.0173,73.45148913,
0.01732,0.1686753152,0.01732,73.45148913,
0.01734,-0.196754979,0.01734,73.08605883,
0.01736,-0.196754979,0.01736,73.45148913,
0.01738,0.5341056094,0.01738,73.81691942,
0.0174,-0.196754979,0.0174,72.72062854,
0.01742,-0.196754979,0.01742,73.45148913,
0.01744,0.1686753152,0.01744,73.08605883,
0.01746,0.1686753152,0.01746,73.08605883,
0.01748,1.630396492,0.01748,73.45148913,
0.0175,0.8995359035,0.0175,73.45148913,
0.01752,0.1686753152,0.01752,73.81691942,
0.01754,-0.196754979,0.01754,73.81691942,
0.01756,0.8995359035,0.01756,73.81691942,
0.01758,0.5341056094,0.01758,74.18234972,
0.0176,0.1686753152,0.0176,73.81691942,
0.01762,0.5341056094,0.01762,73.45148913,
0.01764,0.8995359035,0.01764,73.81691942,
0.01766,0.8995359035,0.01766,73.81691942,
0.01768,0.5341056094,0.01768,73.45148913,
0.0177,0.1686753152,0.0177,73.45148913,
0.01772,-0.196754979,0.01772,73.45148913,
0.01774,0.5341056094,0.01774,73.45148913,
0.01776,0.1686753152,0.01776,73.81691942,
0.01778,-0.9276155673,0.01778,74.18234972,
0.0178,0.5341056094,0.0178,73.45148913,
0.01782,1.264966198,0.01782,73.45148913,
0.01784,-0.196754979,0.01784,74.18234972,
0.01786,0.1686753152,0.01786,73.81691942,
0.01788,0.5341056094,0.01788,73.81691942,
0.0179,-0.196754979,0.0179,73.81691942,
0.01792,0.5341056094,0.01792,73.81691942,
0.01794,0.8995359035,0.01794,73.81691942,
0.01796,0.8995359035,0.01796,73.81691942,
0.01798,0.5341056094,0.01798,73.81691942,
0.018,0.5341056094,0.018,73.81691942,
0.01802,0.1686753152,0.01802,73.45148913,
0.01804,1.264966198,0.01804,73.45148913,
0.01806,0.1686753152,0.01806,73.81691942,
0.01808,0.1686753152,0.01808,73.45148913,
0.0181,0.5341056094,0.0181,73.81691942,
0.01812,1.264966198,0.01812,73.81691942,
0.01814,-0.5621852732,0.01814,73.45148913,
0.01816,0.1686753152,0.01816,73.81691942,
0.01818,0.5341056094,0.01818,73.81691942,
0.0182,0.1686753152,0.0182,73.45148913,
0.01822,0.5341056094,0.01822,73.81691942,
0.01824,0.5341056094,0.01824,74.18234972,
0.01826,-0.196754979,0.01826,74.18234972,
0.01828,0.5341056094,0.01828,73.45148913,
0.0183,0.1686753152,0.0183,74.18234972,
0.01832,0.1686753152,0.01832,73.81691942,
0.01834,0.8995359035,0.01834,73.45148913,
0.01836,0.5341056094,0.01836,73.81691942,
0.01838,-0.196754979,0.01838,73.45148913,
0.0184,1.264966198,0.0184,73.45148913,
0.01842,0.1686753152,0.01842,74.18234972,
0.01844,-0.5621852732,0.01844,73.81691942,
0.01846,0.8995359035,0.01846,73.45148913,
0.01848,0.1686753152,0.01848,74.18234972,
0.0185,-0.5621852732,0.0185,73.45148913,
0.01852,0.8995359035,0.01852,73.45148913,
0.01854,0.8995359035,0.01854,74.18234972,
0.01856,0.1686753152,0.01856,73.81691942,
0.01858,1.264966198,0.01858,73.45148913,
0.0186,-0.196754979,0.0186,73.81691942,
0.01862,-0.196754979,0.01862,73.45148913,
0.01864,0.1686753152,0.01864,73.45148913,
0.01866,0.8995359035,0.01866,74.18234972,
0.01868,-0.5621852732,0.01868,73.81691942,
0.0187,0.8995359035,0.0187,73.81691942,
0.01872,0.1686753152,0.01872,73.81691942,
0.01874,0.1686753152,0.01874,73.81691942,
0.01876,0.1686753152,0.01876,73.45148913,
0.01878,-0.196754979,0.01878,73.45148913,
0.0188,1.264966198,0.0188,73.81691942,
0.01882,0.8995359035,0.01882,73.45148913,
0.01884,0.5341056094,0.01884,73.81691942,
0.01886,-0.196754979,0.01886,73.81691942,
0.01888,0.1686753152,0.01888,73.45148913,
0.0189,-0.196754979,0.0189,74.18234972,
0.01892,-0.5621852732,0.01892,74.18234972,
0.01894,-0.196754979,0.01894,73.45148913,
0.01896,0.1686753152,0.01896,73.81691942,
0.01898,0.1686753152,0.01898,73.81691942,
0.019,0.5341056094,0.019,73.81691942,
0.01902,0.5341056094,0.01902,73.81691942,
0.01904,-0.9276155673,0.01904,73.81691942,
0.01906,0.8995359035,0.01906,73.81691942,
0.01908,0.5341056094,0.01908,74.18234972,
0.0191,0.1686753152,0.0191,73.45148913,
0.01912,0.1686753152,0.01912,73.45148913,
0.01914,0.5341056094,0.01914,74.18234972,
0.01916,-0.9276155673,0.01916,73.45148913,
0.01918,0.8995359035,0.01918,73.81691942,
0.0192,-0.5621852732,0.0192,73.81691942,
0.01922,0.1686753152,0.01922,73.45148913,
0.01924,1.264966198,0.01924,73.45148913,
0.01926,0.1686753152,0.01926,73.81691942,
0.01928,-0.196754979,0.01928,73.81691942,
0.0193,1.630396492,0.0193,73.45148913,
0.01932,0.1686753152,0.01932,74.18234972,
0.01934,0.1686753152,0.01934,73.81691942,
0.01936,1.264966198,0.01936,73.45148913,
0.01938,0.5341056094,0.01938,74.18234972,
0.0194,0.1686753152,0.0194,73.81691942,
0.01942,0.1686753152,0.01942,73.45148913,
0.01944,0.1686753152,0.01944,74.18234972,
0.01946,-0.196754979,0.01946,73.45148913,
0.01948,-0.196754979,0.01948,73.81691942,
0.0195,0.8995359035,0.0195,74.18234972,
0.01952,-0.9276155673,0.01952,73.81691942,
0.01954,0.5341056094,0.01954,73.45148913,
0.01956,0.8995359035,0.01956,74.18234972,
0.01958,0.8995359035,0.01958,73.45148913,
0.0196,1.264966198,0.0196,73.45148913,
0.01962,-0.196754979,0.01962,73.81691942,
0.01964,-0.5621852732,0.01964,73.81691942,
0.01966,0.1686753152,0.01966,73.45148913,
0.01968,0.1686753152,0.01968,74.18234972,
0.0197,-0.5621852732,0.0197,73.45148913,
0.01972,0.1686753152,0.01972,73.45148913,
0.01974,0.1686753152,0.01974,74.18234972,
0.01976,-0.5621852732,0.01976,73.81691942,
0.01978,-0.5621852732,0.01978,73.81691942,
0.0198,0.1686753152,0.0198,73.81691942,
0.01982,0.1686753152,0.01982,73.81691942,
0.01984,-0.5621852732,0.01984,73.45148913,
0.01986,-0.5621852732,0.01986,73.81691942,
0.01988,-0.196754979,0.01988,73.08605883,
0.0199,-0.196754979,0.0199,73.45148913,
0.01992,0.1686753152,0.01992,73.81691942,
0.01994,-0.5621852732,0.01994,73.08605883,
0.01996,0.1686753152,0.01996,73.81691942,
0.01998,0.8995359035,0.01998,73.81691942,
0.02,0.8995359035,0.02,72.72062854,
0.02002,0.1686753152,0.02002,73.45148913,
0.02004,-0.196754979,0.02004,73.45148913,
0.02006,0.1686753152,0.02006,73.45148913,
0.02008,0.8995359035,0.02008,73.45148913,
0.0201,0.8995359035,0.0201,73.45148913,
0.02012,-0.196754979,0.02012,72.72062854,
0.02014,0.8995359035,0.02014,73.81691942,
0.02016,-0.196754979,0.02016,73.45148913,
0.02018,0.8995359035,0.02018,73.45148913,
0.0202,0.5341056094,0.0202,73.81691942,
0.02022,0.1686753152,0.02022,73.45148913,
0.02024,-0.196754979,0.02024,73.45148913,
0.02026,0.1686753152,0.02026,73.45148913,
0.02028,-0.196754979,0.02028,73.45148913,
0.0203,0.1686753152,0.0203,73.45148913,
0.02032,0.8995359035,0.02032,73.45148913,
0.02034,0.8995359035,0.02034,73.45148913,
0.02036,0.1686753152,0.02036,73.45148913,
0.02038,0.5341056094,0.02038,73.45148913,
0.0204,0.1686753152,0.0204,73.45148913,
0.02042,-0.196754979,0.02042,73.08605883,
0.02044,-0.196754979,0.02044,73.45148913,
0.02046,0.8995359035,0.02046,73.81691942,
0.02048,0.5341056094,0.02048,73.08605883,
0.0205,0.8995359035,0.0205,73.08605883,
0.02052,1.264966198,0.02052,73.45148913,
0.02054,-0.196754979,0.02054,73.08605883,
0.02056,0.5341056094,0.02056,73.81691942,
0.02058,0.1686753152,0.02058,73.45148913,
0.0206,-0.5621852732,0.0206,73.08605883,
0.02062,0.5341056094,0.02062,73.45148913,
0.02064,0.5341056094,0.02064,73.81691942,
0.02066,0.5341056094,0.02066,73.08605883,
0.02068,0.1686753152,0.02068,73.81691942,
0.0207,0.5341056094,0.0207,73.81691942,
0.02072,-0.9276155673,0.02072,73.08605883,
0.02074,1.264966198,0.02074,73.08605883,
0.02076,1.264966198,0.02076,73.45148913,
0.02078,-0.5621852732,0.02078,73.08605883,
0.0208,1.264966198,0.0208,73.81691942,
0.02082,0.8995359035,0.02082,73.45148913,
0.02084,-0.5621852732,0.02084,73.08605883,
0.02086,0.1686753152,0.02086,73.81691942,
0.02088,0.5341056094,0.02088,73.81691942,
0.0209,-0.5621852732,0.0209,73.45148913,
0.02092,1.264966198,0.02092,73.45148913,
0.02094,-0.196754979,0.02094,73.45148913,
0.02096,-0.9276155673,0.02096,73.08605883,
0.02098,0.5341056094,0.02098,73.45148913,
0.021,0.5341056094,0.021,73.81691942,
0.02102,-0.5621852732,0.02102,73.08605883,
0.02104,0.5341056094,0.02104,73.81691942,
0.02106,-0.196754979,0.02106,73.45148913,
0.02108,1.264966198,0.02108,73.08605883,
0.0211,-0.5621852732,0.0211,73.45148913,
0.02112,0.5341056094,0.02112,73.45148913,
0.02114,0.1686753152,0.02114,73.08605883,
0.02116,0.5341056094,0.02116,73.81691942,
0.02118,-0.5621852732,0.02118,73.81691942,
0.0212,0.1686753152,0.0212,73.45148913,
0.02122,1.264966198,0.02122,73.45148913,
0.02124,0.1686753152,0.02124,73.45148913,
0.02126,0.1686753152,0.02126,73.08605883,
0.02128,0.5341056094,0.02128,73.45148913,
0.0213,0.1686753152,0.0213,73.45148913,
0.02132,-0.196754979,0.02132,73.45148913,
0.02134,0.8995359035,0.02134,73.81691942,
0.02136,0.8995359035,0.02136,73.81691942,
0.02138,0.1686753152,0.02138,73.81691942,
0.0214,0.1686753152,0.0214,73.81691942,
0.02142,0.1686753152,0.02142,73.45148913,
0.02144,0.5341056094,0.02144,73.08605883,
0.02146,0.8995359035,0.02146,73.08605883,
0.02148,-0.196754979,0.02148,73.45148913,
0.0215,0.1686753152,0.0215,73.08605883,
0.02152,0.5341056094,0.02152,73.45148913,
0.02154,0.5341056094,0.02154,74.18234972,
0.02156,0.5341056094,0.02156,73.08605883,
0.02158,3.092117669,0.02158,73.81691942,
0.0216,0.5341056094,0.0216,73.45148913,
0.02162,-0.196754979,0.02162,73.08605883,
0.02164,0.5341056094,0.02164,73.81691942,
0.02166,0.8995359035,0.02166,73.45148913,
0.02168,0.1686753152,0.02168,73.45148913,
0.0217,0.8995359035,0.0217,73.45148913,
0.02172,0.8995359035,0.02172,73.45148913,
0.02174,-0.196754979,0.02174,72.72062854,
0.02176,1.995826786,0.02176,73.45148913,
0.02178,0.8995359035,0.02178,73.81691942,
0.0218,0.8995359035,0.0218,74.54778001,
0.02182,0.5341056094,0.02182,73.81691942,
0.02184,0.1686753152,0.02184,73.08605883,
0.02186,-0.196754979,0.02186,73.45148913,
0.02188,-0.5621852732,0.02188,73.81691942,
0.0219,-0.9276155673,0.0219,73.81691942,
0.02192,0.5341056094,0.02192,74.18234972,
0.02194,0.1686753152,0.02194,73.45148913,
0.02196,0.1686753152,0.02196,73.45148913,
0.02198,0.8995359035,0.02198,74.18234972,
0.022,-0.196754979,0.022,73.45148913,
0.02202,0.5341056094,0.02202,73.45148913,
0.02204,0.5341056094,0.02204,73.81691942,
0.02206,-0.5621852732,0.02206,73.81691942,
0.02208,0.8995359035,0.02208,73.08605883,
0.0221,-0.196754979,0.0221,73.81691942,
0.02212,0.1686753152,0.02212,73.81691942,
0.02214,0.1686753152,0.02214,73.08605883,
0.02216,0.8995359035,0.02216,73.45148913,
0.02218,-0.196754979,0.02218,73.45148913,
0.0222,0.1686753152,0.0222,73.45148913,
0.02222,-0.5621852732,0.02222,73.81691942,
0.02224,0.1686753152,0.02224,73.45148913,
0.02226,-0.196754979,0.02226,73.08605883,
0.02228,-1.293045862,0.02228,73.81691942,
0.0223,-0.5621852732,0.0223,73.45148913,
0.02232,0.5341056094,0.02232,73.45148913,
0.02234,0.8995359035,0.02234,73.81691942,
0.02236,0.5341056094,0.02236,73.45148913,
0.02238,-0.196754979,0.02238,73.45148913,
0.0224,0.1686753152,0.0224,73.81691942,
0.02242,0.1686753152,0.02242,73.45148913,
0.02244,1.630396492,0.02244,73.45148913,
0.02246,-0.5621852732,0.02246,74.18234972,
0.02248,-0.196754979,0.02248,73.45148913,
0.0225,0.8995359035,0.0225,73.08605883,
0.02252,0.1686753152,0.02252,73.81691942,
0.02254,-0.5621852732,0.02254,73.45148913,
0.02256,0.5341056094,0.02256,73.45148913,
0.02258,0.5341056094,0.02258,73.81691942,
0.0226,0.1686753152,0.0226,74.18234972,
0.02262,0.1686753152,0.02262,73.81691942,
0.02264,1.264966198,0.02264,73.81691942,
0.02266,0.1686753152,0.02266,73.45148913,
0.02268,0.8995359035,0.02268,74.18234972,
0.0227,0.5341056094,0.0227,73.81691942,
0.02272,1.264966198,0.02272,73.81691942,
0.02274,0.5341056094,0.02274,73.81691942,
0.02276,0.5341056094,0.02276,73.81691942,
0.02278,-0.5621852732,0.02278,73.81691942,
0.0228,-0.196754979,0.0228,73.81691942,
0.02282,0.1686753152,0.02282,73.81691942,
0.02284,0.5341056094,0.02284,73.45148913,
0.02286,0.8995359035,0.02286,73.81691942,
0.02288,1.264966198,0.02288,73.81691942,
0.0229,-1.658476156,0.0229,73.81691942,
0.02292,1.264966198,0.02292,73.08605883,
0.02294,-0.196754979,0.02294,73.81691942,
0.02296,-0.5621852732,0.02296,73.81691942,
0.02298,1.264966198,0.02298,73.45148913,
0.023,-0.9276155673,0.023,74.18234972,
0.02302,1.264966198,0.02302,73.45148913,
0.02304,0.1686753152,0.02304,73.45148913,
0.02306,0.8995359035,0.02306,73.81691942,
0.02308,-0.9276155673,0.02308,73.45148913,
0.0231,1.264966198,0.0231,73.81691942,
0.02312,-0.196754979,0.02312,73.81691942,
0.02314,-0.196754979,0.02314,73.45148913,
0.02316,-0.196754979,0.02316,73.45148913,
0.02318,0.5341056094,0.02318,74.18234972,
0.0232,-0.5621852732,0.0232,73.81691942,
0.02322,0.5341056094,0.02322,73.45148913,
0.02324,0.1686753152,0.02324,73.81691942,
0.02326,-0.196754979,0.02326,73.81691942,
0.02328,0.5341056094,0.02328,73.81691942,
0.0233,0.1686753152,0.0233,74.18234972,
0.02332,0.1686753152,0.02332,73.81691942,
0.02334,1.630396492,0.02334,73.45148913,
0.02336,0.8995359035,0.02336,73.81691942,
0.02338,-0.9276155673,0.02338,73.81691942,
0.0234,0.5341056094,0.0234,73.81691942,
0.02342,0.5341056094,0.02342,74.18234972,
0.02344,-0.5621852732,0.02344,73.81691942,
0.02346,0.5341056094,0.02346,73.45148913,
0.02348,-0.196754979,0.02348,74.18234972,
0.0235,-0.196754979,0.0235,73.81691942,
0.02352,0.1686753152,0.02352,73.45148913,
0.02354,-0.196754979,0.02354,73.81691942,
0.02356,-0.9276155673,0.02356,73.81691942,
0.02358,0.1686753152,0.02358,73.81691942,
0.0236,0.1686753152,0.0236,74.18234972,
0.02362,0.5341056094,0.02362,73.45148913,
0.02364,0.5341056094,0.02364,73.81691942,
0.02366,0.5341056094,0.02366,74.18234972,
0.02368,0.1686753152,0.02368,73.81691942,
0.0237,0.1686753152,0.0237,73.45148913,
0.02372,0.5341056094,0.02372,73.81691942,
0.02374,0.1686753152,0.02374,73.81691942,
0.02376,0.5341056094,0.02376,73.81691942,
0.02378,0.5341056094,0.02378,73.81691942,
0.0238,0.5341056094,0.0238,73.81691942,
0.02382,1.264966198,0.02382,73.45148913,
0.02384,1.264966198,0.02384,73.81691942,
0.02386,-0.5621852732,0.02386,73.81691942,
0.02388,1.264966198,0.02388,73.81691942,
0.0239,0.5341056094,0.0239,73.45148913,
0.02392,0.8995359035,0.02392,73.45148913,
0.02394,0.1686753152,0.02394,73.45148913,
0.02396,0.5341056094,0.02396,73.45148913,
0.02398,0.8995359035,0.02398,73.81691942,
0.024,-0.5621852732,0.024,73.81691942,
0.02402,0.1686753152,0.02402,73.81691942,
0.02404,-0.196754979,0.02404,73.81691942,
0.02406,0.8995359035,0.02406,73.45148913,
0.02408,-0.196754979,0.02408,73.81691942,
0.0241,0.5341056094,0.0241,74.18234972,
0.02412,0.5341056094,0.02412,73.45148913,
0.02414,0.5341056094,0.02414,73.45148913,
0.02416,0.1686753152,0.02416,73.81691942,
0.02418,1.264966198,0.02418,73.81691942,
0.0242,0.8995359035,0.0242,73.81691942,
0.02422,0.8995359035,0.02422,73.81691942,
0.02424,-0.196754979,0.02424,73.45148913,
0.02426,0.1686753152,0.02426,73.45148913,
0.02428,0.1686753152,0.02428,73.81691942,
0.0243,0.5341056094,0.0243,73.81691942,
0.02432,0.5341056094,0.02432,73.81691942,
0.02434,0.8995359035,0.02434,73.81691942,
0.02436,0.1686753152,0.02436,73.81691942,
0.02438,-0.196754979,0.02438,73.81691942,
0.0244,0.8995359035,0.0244,74.18234972,
0.02442,0.1686753152,0.02442,73.45148913,
0.02444,0.5341056094,0.02444,73.81691942,
0.02446,1.264966198,0.02446,73.81691942,
0.02448,0.1686753152,0.02448,74.18234972,
0.0245,0.5341056094,0.0245,73.81691942,
0.02452,0.1686753152,0.02452,73.81691942,
0.02454,0.1686753152,0.02454,73.81691942,
0.02456,0.8995359035,0.02456,73.81691942,
0.02458,0.5341056094,0.02458,73.45148913,
0.0246,-0.196754979,0.0246,73.81691942,
0.02462,1.630396492,0.02462,73.81691942,
0.02464,-0.196754979,0.02464,73.81691942,
0.02466,0.1686753152,0.02466,73.81691942,
0.02468,-0.5621852732,0.02468,73.81691942,
0.0247,-0.9276155673,0.0247,73.81691942,
0.02472,-1.293045862,0.02472,73.08605883,
0.02474,1.630396492,0.02474,74.18234972,
0.02476,-1.658476156,0.02476,73.45148913,
0.02478,-0.5621852732,0.02478,73.08605883,
0.0248,-0.5621852732,0.0248,73.81691942,
0.02482,-0.9276155673,0.02482,73.08605883,
0.02484,0.1686753152,0.02484,73.45148913,
0.02486,-0.196754979,0.02486,73.81691942,
0.02488,0.8995359035,0.02488,73.81691942,
0.0249,-1.293045862,0.0249,73.45148913,
0.02492,-0.5621852732,0.02492,74.54778001,
0.02494,-0.196754979,0.02494,73.45148913,
0.02496,-0.196754979,0.02496,73.45148913,
0.02498,-0.196754979,0.02498,73.81691942,
0.025,-0.9276155673,0.025,73.45148913,
0.02502,-0.5621852732,0.02502,73.45148913,
0.02504,0.5341056094,0.02504,74.18234972,
0.02506,-1.293045862,0.02506,73.45148913,
0.02508,0.1686753152,0.02508,73.45148913,
0.0251,0.5341056094,0.0251,74.18234972,
0.02512,0.1686753152,0.02512,73.08605883,
0.02514,0.8995359035,0.02514,73.08605883,
0.02516,0.8995359035,0.02516,73.81691942,
0.02518,-0.196754979,0.02518,73.45148913,
0.0252,0.1686753152,0.0252,73.08605883,
0.02522,-0.9276155673,0.02522,74.18234972,
0.02524,-0.196754979,0.02524,73.81691942,
0.02526,0.1686753152,0.02526,73.45148913,
0.02528,0.1686753152,0.02528,74.18234972,
0.0253,-0.196754979,0.0253,73.08605883,
0.02532,0.1686753152,0.02532,73.08605883,
0.02534,-0.196754979,0.02534,74.18234972,
0.02536,0.5341056094,0.02536,73.81691942,
0.02538,0.1686753152,0.02538,73.45148913,
0.0254,-0.5621852732,0.0254,73.81691942,
0.02542,-0.9276155673,0.02542,73.45148913,
0.02544,-0.5621852732,0.02544,73.45148913,
0.02546,-0.196754979,0.02546,73.81691942,
0.02548,0.1686753152,0.02548,73.08605883,
0.0255,-0.5621852732,0.0255,73.45148913,
0.02552,-0.196754979,0.02552,73.81691942,
0.02554,-0.196754979,0.02554,73.45148913,
0.02556,-0.196754979,0.02556,73.81691942,
0.02558,0.1686753152,0.02558,73.81691942,
0.0256,-0.9276155673,0.0256,73.45148913,
0.02562,0.1686753152,0.02562,73.08605883,
0.02564,0.5341056094,0.02564,74.18234972,
0.02566,-0.196754979,0.02566,73.45148913,
0.02568,0.1686753152,0.02568,73.08605883,
0.0257,0.1686753152,0.0257,74.18234972,
0.02572,-0.196754979,0.02572,73.45148913,
0.02574,0.1686753152,0.02574,73.45148913,
0.02576,0.5341056094,0.02576,73.81691942,
0.02578,-0.9276155673,0.02578,73.45148913,
0.0258,0.1686753152,0.0258,73.45148913,
0.02582,-0.196754979,0.02582,74.18234972,
0.02584,0.5341056094,0.02584,73.45148913,
0.02586,-0.9276155673,0.02586,73.45148913,
0.02588,-0.196754979,0.02588,73.81691942,
0.0259,-0.5621852732,0.0259,73.08605883,
0.02592,-0.5621852732,0.02592,73.45148913,
0.02594,0.1686753152,0.02594,73.81691942,
0.02596,-0.5621852732,0.02596,73.81691942,
0.02598,0.1686753152,0.02598,73.45148913,
0.026,-0.196754979,0.026,73.81691942,
0.02602,-0.9276155673,0.02602,73.45148913,
0.02604,-0.196754979,0.02604,73.45148913,
0.02606,0.8995359035,0.02606,74.18234972,
0.02608,-0.9276155673,0.02608,73.45148913,
0.0261,0.1686753152,0.0261,73.45148913,
0.02612,0.5341056094,0.02612,74.18234972,
0.02614,-0.196754979,0.02614,73.45148913,
0.02616,0.5341056094,0.02616,73.45148913,
0.02618,0.1686753152,0.02618,74.18234972,
0.0262,-0.5621852732,0.0262,73.81691942,
0.02622,0.8995359035,0.02622,73.45148913,
0.02624,-0.5621852732,0.02624,74.18234972,
0.02626,-0.5621852732,0.02626,73.45148913,
0.02628,0.8995359035,0.02628,73.08605883,
0.0263,0.5341056094,0.0263,74.18234972,
0.02632,-0.5621852732,0.02632,73.45148913,
0.02634,-0.5621852732,0.02634,73.08605883,
0.02636,0.1686753152,0.02636,74.18234972,
0.02638,0.1686753152,0.02638,73.45148913,
0.0264,-0.196754979,0.0264,73.81691942,
0.02642,-0.196754979,0.02642,73.81691942,
0.02644,0.1686753152,0.02644,73.81691942,
0.02646,-0.9276155673,0.02646,73.45148913,
0.02648,0.1686753152,0.02648,74.18234972,
0.0265,-0.9276155673,0.0265,73.45148913,
0.02652,-0.5621852732,0.02652,73.45148913,
0.02654,0.1686753152,0.02654,73.81691942,
0.02656,-0.5621852732,0.02656,73.45148913,
0.02658,0.1686753152,0.02658,73.81691942,
0.0266,0.5341056094,0.0266,73.81691942,
0.02662,0.1686753152,0.02662,73.45148913,
0.02664,0.8995359035,0.02664,73.45148913,
0.02666,0.5341056094,0.02666,73.81691942,
0.02668,-0.196754979,0.02668,73.81691942,
0.0267,0.1686753152,0.0267,73.08605883,
0.02672,0.1686753152,0.02672,74.18234972,
0.02674,-0.196754979,0.02674,73.81691942,
0.02676,0.5341056094,0.02676,73.45148913,
0.02678,0.5341056094,0.02678,73.81691942,
0.0268,0.5341056094,0.0268,73.45148913,
0.02682,0.5341056094,0.02682,73.45148913,
0.02684,-0.196754979,0.02684,74.18234972,
0.02686,-0.196754979,0.02686,74.18234972,
0.02688,-0.196754979,0.02688,73.81691942,
0.0269,0.5341056094,0.0269,74.18234972,
0.02692,-0.9276155673,0.02692,74.18234972,
0.02694,-0.196754979,0.02694,73.45148913,
0.02696,-0.5621852732,0.02696,73.81691942,
0.02698,-0.5621852732,0.02698,73.45148913,
0.027,-0.196754979,0.027,73.45148913,
0.02702,0.8995359035,0.02702,73.81691942,
0.02704,-0.196754979,0.02704,73.45148913,
0.02706,0.8995359035,0.02706,73.81691942,
0.02708,0.1686753152,0.02708,74.18234972,
0.0271,-0.196754979,0.0271,73.45148913,
0.02712,0.1686753152,0.02712,73.81691942,
0.02714,0.1686753152,0.02714,73.81691942,
0.02716,-0.5621852732,0.02716,73.81691942,
0.02718,0.5341056094,0.02718,73.45148913,
0.0272,0.1686753152,0.0272,73.81691942,
0.02722,-0.9276155673,0.02722,73.45148913,
0.02724,0.1686753152,0.02724,73.08605883,
0.02726,0.1686753152,0.02726,73.45148913,
0.02728,-0.5621852732,0.02728,73.45148913,
0.0273,-0.196754979,0.0273,73.45148913,
0.02732,-0.196754979,0.02732,73.81691942,
0.02734,-0.196754979,0.02734,73.45148913,
0.02736,1.264966198,0.02736,73.45148913,
0.02738,0.5341056094,0.02738,73.81691942,
0.0274,-0.5621852732,0.0274,73.81691942,
0.02742,-0.5621852732,0.02742,73.45148913,
0.02744,-0.196754979,0.02744,74.18234972,
0.02746,-0.9276155673,0.02746,73.45148913,
0.02748,1.264966198,0.02748,73.81691942,
0.0275,-0.196754979,0.0275,73.81691942,
0.02752,-0.196754979,0.02752,73.45148913,
0.02754,1.264966198,0.02754,73.45148913,
0.02756,-0.196754979,0.02756,74.18234972,
0.02758,-0.5621852732,0.02758,73.81691942,
0.0276,0.1686753152,0.0276,73.45148913,
0.02762,0.8995359035,0.02762,73.81691942,
0.02764,-0.5621852732,0.02764,73.45148913,
0.02766,-0.196754979,0.02766,73.81691942,
0.02768,0.1686753152,0.02768,73.45148913,
0.0277,-0.9276155673,0.0277,73.81691942,
0.02772,0.5341056094,0.02772,73.08605883,
0.02774,0.1686753152,0.02774,73.81691942,
0.02776,0.1686753152,0.02776,73.45148913,
0.02778,0.5341056094,0.02778,73.45148913,
0.0278,0.1686753152,0.0278,73.45148913,
0.02782,0.8995359035,0.02782,73.81691942,
0.02784,0.8995359035,0.02784,73.45148913,
0.02786,0.8995359035,0.02786,73.81691942,
0.02788,-0.9276155673,0.02788,74.18234972,
0.0279,-0.196754979,0.0279,73.81691942,
0.02792,1.264966198,0.02792,73.81691942,
0.02794,-0.196754979,0.02794,73.81691942,
0.02796,1.630396492,0.02796,73.81691942,
0.02798,0.8995359035,0.02798,74.18234972,
0.028,-0.196754979,0.028,73.45148913,
0.02802,0.8995359035,0.02802,73.81691942,
0.02804,-0.196754979,0.02804,73.81691942,
0.02806,0.8995359035,0.02806,73.45148913,
0.02808,0.1686753152,0.02808,73.81691942,
0.0281,0.5341056094,0.0281,73.81691942,
0.02812,0.1686753152,0.02812,73.45148913,
0.02814,-0.196754979,0.02814,73.81691942,
0.02816,0.1686753152,0.02816,73.81691942,
0.02818,1.264966198,0.02818,73.45148913,
0.0282,0.5341056094,0.0282,74.18234972,
0.02822,0.1686753152,0.02822,73.81691942,
0.02824,-0.5621852732,0.02824,73.81691942,
0.02826,0.1686753152,0.02826,73.81691942,
0.02828,-0.5621852732,0.02828,73.81691942,
0.0283,0.5341056094,0.0283,73.45148913,
0.02832,-0.196754979,0.02832,73.08605883,
0.02834,-0.196754979,0.02834,73.81691942,
0.02836,0.8995359035,0.02836,73.81691942,
0.02838,0.8995359035,0.02838,73.81691942,
0.0284,1.264966198,0.0284,73.81691942,
0.02842,0.5341056094,0.02842,73.45148913,
0.02844,-0.196754979,0.02844,73.45148913,
0.02846,0.5341056094,0.02846,73.08605883,
0.02848,1.995826786,0.02848,73.81691942,
0.0285,0.5341056094,0.0285,73.45148913,
0.02852,0.5341056094,0.02852,73.08605883,
0.02854,0.1686753152,0.02854,73.45148913,
0.02856,0.1686753152,0.02856,73.81691942,
0.02858,-0.196754979,0.02858,73.08605883,
0.0286,1.264966198,0.0286,73.45148913,
0.02862,0.5341056094,0.02862,73.81691942,
0.02864,-0.196754979,0.02864,73.45148913,
0.02866,0.5341056094,0.02866,73.45148913,
0.02868,0.5341056094,0.02868,73.45148913,
0.0287,-0.196754979,0.0287,73.08605883,
0.02872,0.5341056094,0.02872,73.45148913,
0.02874,-0.5621852732,0.02874,73.45148913,
0.02876,-0.196754979,0.02876,73.08605883,
0.02878,1.264966198,0.02878,73.45148913,
0.0288,-0.5621852732,0.0288,73.08605883,
0.02882,1.630396492,0.02882,72.72062854,
0.02884,0.1686753152,0.02884,73.45148913,
0.02886,-0.196754979,0.02886,73.81691942,
0.02888,-0.5621852732,0.02888,72.72062854,
0.0289,-0.196754979,0.0289,73.45148913,
0.02892,0.1686753152,0.02892,73.08605883,
0.02894,-0.5621852732,0.02894,73.08605883,
0.02896,0.5341056094,0.02896,73.45148913,
0.02898,-0.196754979,0.02898,73.08605883,
0.029,-0.5621852732,0.029,73.08605883,
0.02902,-0.196754979,0.02902,73.08605883,
0.02904,0.1686753152,0.02904,73.81691942,
0.02906,0.1686753152,0.02906,73.08605883,
0.02908,0.5341056094,0.02908,73.45148913,
0.0291,0.8995359035,0.0291,73.81691942,
0.02912,-0.196754979,0.02912,72.72062854,
0.02914,0.1686753152,0.02914,73.81691942,
0.02916,0.1686753152,0.02916,73.45148913,
0.02918,-0.5621852732,0.02918,73.08605883,
0.0292,1.630396492,0.0292,73.81691942,
0.02922,-0.5621852732,0.02922,73.45148913,
0.02924,0.8995359035,0.02924,72.72062854,
0.02926,1.264966198,0.02926,73.81691942,
0.02928,0.5341056094,0.02928,73.45148913,
0.0293,-0.196754979,0.0293,73.45148913,
0.02932,0.5341056094,0.02932,73.45148913,
0.02934,0.8995359035,0.02934,73.45148913,
0.02936,-0.196754979,0.02936,73.08605883,
0.02938,0.8995359035,0.02938,73.81691942,
0.0294,0.1686753152,0.0294,73.45148913,
0.02942,-0.196754979,0.02942,73.08605883,
0.02944,0.8995359035,0.02944,73.45148913,
0.02946,0.1686753152,0.02946,73.81691942,
0.02948,0.1686753152,0.02948,73.45148913,
0.0295,0.1686753152,0.0295,73.81691942,
0.02952,0.1686753152,0.02952,73.81691942,
0.02954,0.5341056094,0.02954,73.08605883,
0.02956,1.264966198,0.02956,73.81691942,
0.02958,1.264966198,0.02958,73.81691942,
0.0296,0.5341056094,0.0296,73.08605883,
0.02962,0.5341056094,0.02962,73.45148913,
0.02964,-0.196754979,0.02964,73.45148913,
0.02966,0.5341056094,0.02966,73.08605883,
0.02968,-0.9276155673,0.02968,73.81691942,
0.0297,0.1686753152,0.0297,73.81691942,
0.02972,0.1686753152,0.02972,73.08605883,
0.02974,0.8995359035,0.02974,73.45148913,
0.02976,-0.9276155673,0.02976,73.81691942,
0.02978,-0.196754979,0.02978,73.08605883,
0.0298,0.8995359035,0.0298,73.45148913,
0.02982,0.8995359035,0.02982,73.81691942,
0.02984,0.8995359035,0.02984,73.45148913,
0.02986,0.5341056094,0.02986,73.45148913,
0.02988,0.1686753152,0.02988,73.81691942,
0.0299,0.1686753152,0.0299,73.08605883,
0.02992,0.8995359035,0.02992,73.81691942,
0.02994,0.8995359035,0.02994,73.45148913,
0.02996,-0.5621852732,0.02996,73.08605883,
0.02998,-0.196754979,0.02998,73.45148913,
0.03,0.5341056094,0.03,73.45148913,
0.03002,-0.9276155673,0.03002,73.08605883,
0.03004,0.8995359035,0.03004,73.81691942,
0.03006,0.8995359035,0.03006,73.81691942,
0.03008,-0.196754979,0.03008,73.08605883,
0.0301,1.264966198,0.0301,73.45148913,
0.03012,0.1686753152,0.03012,73.81691942,
0.03014,-0.9276155673,0.03014,73.08605883,
0.03016,0.1686753152,0.03016,73.45148913,
0.03018,-0.5621852732,0.03018,73.45148913,
0.0302,-0.9276155673,0.0302,73.45148913,
0.03022,-0.5621852732,0.03022,73.81691942,
0.03024,0.8995359035,0.03024,73.45148913,
0.03026,-0.196754979,0.03026,73.08605883,
0.03028,-0.9276155673,0.03028,73.08605883,
0.0303,1.264966198,0.0303,73.45148913,
0.03032,-1.293045862,0.03032,72.72062854,
0.03034,0.1686753152,0.03034,73.45148913,
0.03036,0.1686753152,0.03036,73.45148913,
0.03038,0.8995359035,0.03038,74.18234972,
0.0304,-0.5621852732,0.0304,73.45148913,
0.03042,-0.9276155673,0.03042,73.45148913,
0.03044,-0.196754979,0.03044,74.18234972,
0.03046,0.5341056094,0.03046,73.81691942,
0.03048,0.5341056094,0.03048,72.72062854,
0.0305,-0.5621852732,0.0305,73.45148913,
0.03052,-1.293045862,0.03052,73.45148913,
0.03054,0.5341056094,0.03054,73.45148913,
0.03056,-0.5621852732,0.03056,73.81691942,
0.03058,-0.5621852732,0.03058,73.45148913,
0.0306,0.1686753152,0.0306,73.45148913,
0.03062,-0.196754979,0.03062,74.18234972,
0.03064,-0.9276155673,0.03064,73.08605883,
0.03066,-0.196754979,0.03066,73.08605883,
0.03068,-0.5621852732,0.03068,74.18234972,
0.0307,0.1686753152,0.0307,73.45148913,
0.03072,-0.196754979,0.03072,73.08605883,
0.03074,0.8995359035,0.03074,73.81691942,
0.03076,-0.196754979,0.03076,73.45148913,
0.03078,-0.5621852732,0.03078,73.08605883,
0.0308,-0.5621852732,0.0308,73.81691942,
0.03082,-0.196754979,0.03082,73.45148913,
0.03084,-0.5621852732,0.03084,73.45148913,
0.03086,0.1686753152,0.03086,73.81691942,
0.03088,-0.9276155673,0.03088,73.45148913,
0.0309,-0.5621852732,0.0309,73.08605883,
0.03092,0.5341056094,0.03092,74.18234972,
0.03094,0.8995359035,0.03094,73.45148913,
0.03096,-0.5621852732,0.03096,73.08605883,
0.03098,0.1686753152,0.03098,73.81691942,
0.031,-0.5621852732,0.031,73.45148913,
0.03102,-0.5621852732,0.03102,73.81691942,
0.03104,-0.196754979,0.03104,73.81691942,
0.03106,0.1686753152,0.03106,73.45148913,
0.03108,-0.5621852732,0.03108,73.45148913,
0.0311,0.5341056094,0.0311,74.18234972,
0.03112,-0.5621852732,0.03112,73.45148913,
0.03114,0.5341056094,0.03114,73.45148913,
0.03116,-0.196754979,0.03116,73.81691942,
0.03118,-1.658476156,0.03118,73.45148913,
0.0312,0.1686753152,0.0312,73.45148913,
0.03122,0.1686753152,0.03122,74.18234972,
0.03124,0.5341056094,0.03124,73.45148913,
0.03126,0.1686753152,0.03126,73.45148913,
0.03128,0.1686753152,0.03128,73.81691942,
0.0313,-0.196754979,0.0313,73.45148913,
0.03132,-0.196754979,0.03132,73.08605883,
0.03134,0.1686753152,0.03134,73.81691942,
0.03136,-0.9276155673,0.03136,73.45148913,
0.03138,0.5341056094,0.03138,73.08605883,
0.0314,-0.5621852732,0.0314,74.18234972,
0.03142,-0.9276155673,0.03142,73.81691942,
0.03144,-0.5621852732,0.03144,73.81691942,
0.03146,-0.9276155673,0.03146,73.81691942,
0.03148,-1.293045862,0.03148,73.45148913,
0.0315,-0.5621852732,0.0315,73.81691942,
0.03152,-0.196754979,0.03152,73.81691942,
0.03154,-0.5621852732,0.03154,73.81691942,
0.03156,-0.5621852732,0.03156,73.45148913,
0.03158,0.1686753152,0.03158,73.81691942,
0.0316,-0.196754979,0.0316,73.45148913,
0.03162,-1.293045862,0.03162,72.72062854,
0.03164,0.5341056094,0.03164,73.81691942,
0.03166,-0.9276155673,0.03166,73.45148913,
0.03168,0.1686753152,0.03168,73.08605883,
0.0317,0.1686753152,0.0317,74.18234972,
0.03172,-1.293045862,0.03172,73.81691942,
0.03174,-0.196754979,0.03174,73.45148913,
0.03176,-0.5621852732,0.03176,73.81691942,
0.03178,-0.9276155673,0.03178,73.81691942,
0.0318,0.5341056094,0.0318,73.08605883,
0.03182,-0.5621852732,0.03182,74.18234972,
0.03184,-0.5621852732,0.03184,73.45148913,
0.03186,0.5341056094,0.03186,73.45148913,
0.03188,0.1686753152,0.03188,74.18234972,
0.0319,-0.5621852732,0.0319,73.81691942,
0.03192,-0.5621852732,0.03192,73.45148913,
0.03194,-0.196754979,0.03194,73.81691942,
0.03196,-0.5621852732,0.03196,73.81691942,
0.03198,-0.9276155673,0.03198,73.08605883,
0.032,-0.9276155673,0.032,73.81691942,
0.03202,-0.196754979,0.03202,73.45148913,
0.03204,-0.196754979,0.03204,73.45148913,
0.03206,0.1686753152,0.03206,73.81691942,
0.03208,-1.658476156,0.03208,73.45148913,
0.0321,-0.5621852732,0.0321,73.08605883,
0.03212,-1.293045862,0.03212,73.81691942,
0.03214,-0.9276155673,0.03214,73.45148913,
0.03216,0.1686753152,0.03216,73.08605883,
0.03218,0.1686753152,0.03218,73.81691942,
0.0322,-1.293045862,0.0322,73.45148913,
0.03222,-0.5621852732,0.03222,73.45148913,
0.03224,0.5341056094,0.03224,74.18234972,
0.03226,0.8995359035,0.03226,73.45148913,
0.03228,-0.5621852732,0.03228,74.18234972,
0.0323,-1.293045862,0.0323,73.81691942,
0.03232,0.5341056094,0.03232,73.45148913,
0.03234,0.5341056094,0.03234,73.81691942,
0.03236,-0.196754979,0.03236,73.81691942,
0.03238,-0.5621852732,0.03238,73.81691942,
0.0324,-0.196754979,0.0324,74.18234972,
0.03242,-0.5621852732,0.03242,74.18234972,
0.03244,-0.5621852732,0.03244,73.81691942,
0.03246,0.5341056094,0.03246,74.18234972,
0.03248,-1.293045862,0.03248,73.81691942,
0.0325,0.5341056094,0.0325,73.45148913,
0.03252,0.1686753152,0.03252,73.81691942,
0.03254,-0.5621852732,0.03254,73.08605883,
0.03256,0.1686753152,0.03256,73.08605883,
0.03258,-1.293045862,0.03258,73.81691942,
0.0326,-0.196754979,0.0326,73.45148913,
0.03262,0.8995359035,0.03262,73.45148913,
0.03264,-0.196754979,0.03264,73.81691942,
0.03266,-0.5621852732,0.03266,73.81691942,
0.03268,-0.196754979,0.03268,73.45148913,
0.0327,0.5341056094,0.0327,73.45148913,
0.03272,-0.5621852732,0.03272,73.45148913,
0.03274,-0.5621852732,0.03274,73.45148913,
0.03276,-0.196754979,0.03276,73.81691942,
0.03278,-0.9276155673,0.03278,73.81691942,
0.0328,0.5341056094,0.0328,72.72062854,
0.03282,0.5341056094,0.03282,73.45148913,
0.03284,-0.5621852732,0.03284,73.08605883,
0.03286,-0.5621852732,0.03286,73.45148913,
0.03288,-1.293045862,0.03288,73.81691942,
0.0329,-0.196754979,0.0329,73.45148913,
0.03292,0.1686753152,0.03292,73.81691942,
0.03294,-0.9276155673,0.03294,73.45148913,
0.03296,-0.196754979,0.03296,73.45148913,
0.03298,0.8995359035,0.03298,73.81691942,
0.033,-0.5621852732,0.033,73.81691942,
0.03302,0.1686753152,0.03302,73.81691942,
0.03304,-0.196754979,0.03304,73.81691942,
0.03306,0.1686753152,0.03306,73.45148913,
0.03308,0.1686753152,0.03308,73.45148913,
0.0331,-0.196754979,0.0331,73.81691942,
0.03312,-0.196754979,0.03312,73.81691942,
0.03314,0.1686753152,0.03314,73.81691942,
0.03316,-0.196754979,0.03316,73.45148913,
0.03318,0.5341056094,0.03318,73.45148913,
0.0332,-0.5621852732,0.0332,73.45148913,
0.03322,-0.5621852732,0.03322,73.45148913,
0.03324,-1.293045862,0.03324,73.45148913,
0.03326,-0.9276155673,0.03326,73.81691942,
0.03328,-0.196754979,0.03328,73.45148913,
0.0333,-0.196754979,0.0333,73.08605883,
0.03332,0.5341056094,0.03332,74.18234972,
0.03334,-0.196754979,0.03334,73.45148913,
0.03336,-0.5621852732,0.03336,73.45148913,
0.03338,0.8995359035,0.03338,74.18234972,
0.0334,-0.196754979,0.0334,73.45148913,
0.03342,0.1686753152,0.03342,73.45148913,
0.03344,0.1686753152,0.03344,73.81691942,
0.03346,-0.9276155673,0.03346,73.45148913,
0.03348,-0.196754979,0.03348,73.45148913,
0.0335,-0.9276155673,0.0335,74.18234972,
0.03352,-1.658476156,0.03352,73.45148913,
0.03354,-0.9276155673,0.03354,73.45148913,
0.03356,-0.9276155673,0.03356,74.18234972,
0.03358,-0.5621852732,0.03358,73.45148913,
0.0336,-0.196754979,0.0336,73.45148913,
0.03362,-0.196754979,0.03362,73.81691942,
0.03364,-1.293045862,0.03364,73.45148913,
0.03366,-1.658476156,0.03366,73.45148913,
0.03368,-0.5621852732,0.03368,74.18234972,
0.0337,-0.5621852732,0.0337,73.45148913,
0.03372,-1.293045862,0.03372,73.45148913,
0.03374,-0.196754979,0.03374,74.18234972,
0.03376,-0.5621852732,0.03376,73.45148913,
0.03378,-0.196754979,0.03378,73.45148913,
0.0338,-0.5621852732,0.0338,73.81691942,
0.03382,-0.5621852732,0.03382,73.45148913,
0.03384,-0.9276155673,0.03384,73.08605883,
0.03386,-0.196754979,0.03386,73.81691942,
0.03388,-1.658476156,0.03388,73.45148913,
0.0339,0.5341056094,0.0339,73.45148913,
0.03392,-0.5621852732,0.03392,74.18234972,
0.03394,-0.9276155673,0.03394,73.08605883,
0.03396,-0.9276155673,0.03396,73.45148913,
0.03398,0.1686753152,0.03398,73.45148913,
0.034,-1.658476156,0.034,73.08605883,
0.03402,-0.5621852732,0.03402,73.45148913,
0.03404,0.1686753152,0.03404,73.81691942,
0.03406,0.1686753152,0.03406,73.81691942,
0.03408,-0.196754979,0.03408,73.45148913,
0.0341,-0.5621852732,0.0341,73.81691942,
0.03412,-0.5621852732,0.03412,73.45148913,
0.03414,-0.5621852732,0.03414,73.45148913,
0.03416,-0.5621852732,0.03416,73.81691942,
0.03418,-0.9276155673,0.03418,73.81691942,
0.0342,-0.9276155673,0.0342,73.45148913,
0.03422,0.1686753152,0.03422,73.81691942,
0.03424,-1.293045862,0.03424,73.08605883,
0.03426,0.1686753152,0.03426,73.45148913,
0.03428,0.1686753152,0.03428,73.81691942,
0.0343,-0.5621852732,0.0343,73.45148913,
0.03432,-1.293045862,0.03432,73.45148913,
0.03434,0.5341056094,0.03434,74.18234972,
0.03436,-1.293045862,0.03436,73.45148913,
0.03438,0.5341056094,0.03438,73.45148913,
0.0344,0.5341056094,0.0344,74.18234972,
0.03442,-1.293045862,0.03442,73.81691942,
0.03444,0.1686753152,0.03444,73.08605883,
0.03446,0.5341056094,0.03446,73.81691942,
0.03448,-0.5621852732,0.03448,73.08605883,
0.0345,0.1686753152,0.0345,73.81691942,
0.03452,0.1686753152,0.03452,74.18234972,
0.03454,-0.5621852732,0.03454,73.45148913,
0.03456,-1.293045862,0.03456,73.45148913,
0.03458,0.1686753152,0.03458,73.81691942,
0.0346,-0.5621852732,0.0346,73.08605883,
0.03462,-0.196754979,0.03462,73.08605883,
0.03464,-0.196754979,0.03464,73.81691942,
0.03466,-0.196754979,0.03466,73.81691942,
0.03468,-0.5621852732,0.03468,73.08605883,
0.0347,0.1686753152,0.0347,73.81691942,
0.03472,-0.5621852732,0.03472,73.45148913,
0.03474,-0.196754979,0.03474,73.08605883,
0.03476,-0.9276155673,0.03476,73.81691942,
0.03478,0.5341056094,0.03478,73.45148913,
0.0348,-0.5621852732,0.0348,73.81691942,
0.03482,0.1686753152,0.03482,73.81691942,
0.03484,-0.9276155673,0.03484,73.08605883,
0.03486,0.8995359035,0.03486,73.08605883,
0.03488,0.1686753152,0.03488,73.81691942,
0.0349,-0.5621852732,0.0349,73.45148913,
0.03492,-0.196754979,0.03492,73.45148913,
0.03494,0.1686753152,0.03494,73.81691942,
0.03496,-1.658476156,0.03496,73.81691942,
0.03498,-0.9276155673,0.03498,73.45148913,
0.035,-0.196754979,0.035,73.81691942,
0.03502,-0.5621852732,0.03502,73.08605883,
0.03504,0.1686753152,0.03504,73.45148913,
0.03506,-0.9276155673,0.03506,74.18234972,
0.03508,0.1686753152,0.03508,73.08605883,
0.0351,-0.196754979,0.0351,73.45148913,
0.03512,-0.9276155673,0.03512,73.81691942,
0.03514,-0.196754979,0.03514,73.81691942,
0.03516,0.8995359035,0.03516,73.45148913,
0.03518,0.1686753152,0.03518,73.81691942,
0.0352,-0.9276155673,0.0352,73.81691942,
0.03522,0.1686753152,0.03522,73.45148913,
0.03524,-0.9276155673,0.03524,73.81691942,
0.03526,-0.196754979,0.03526,73.81691942,
0.03528,-0.5621852732,0.03528,73.45148913,
0.0353,-0.5621852732,0.0353,73.81691942,
0.03532,-0.9276155673,0.03532,73.45148913,
0.03534,0.1686753152,0.03534,73.45148913,
0.03536,-0.196754979,0.03536,74.18234972,
0.03538,0.5341056094,0.03538,73.45148913,
0.0354,0.1686753152,0.0354,73.45148913,
0.03542,0.8995359035,0.03542,73.81691942,
0.03544,0.1686753152,0.03544,73.45148913,
0.03546,-0.196754979,0.03546,73.45148913,
0.03548,-0.5621852732,0.03548,73.45148913,
0.0355,-1.658476156,0.0355,73.81691942,
0.03552,0.5341056094,0.03552,73.45148913,
0.03554,-0.5621852732,0.03554,74.18234972,
0.03556,-0.9276155673,0.03556,73.81691942,
0.03558,-1.293045862,0.03558,73.08605883,
0.0356,-0.196754979,0.0356,74.18234972,
0.03562,0.5341056094,0.03562,73.81691942,
0.03564,0.5341056094,0.03564,73.45148913,
0.03566,-0.5621852732,0.03566,73.81691942,
0.03568,-0.5621852732,0.03568,73.45148913,
0.0357,-0.5621852732,0.0357,73.45148913,
0.03572,0.1686753152,0.03572,73.45148913,
0.03574,-0.9276155673,0.03574,73.45148913,
0.03576,-1.658476156,0.03576,73.45148913,
0.03578,-0.9276155673,0.03578,73.81691942,
0.0358,0.5341056094,0.0358,73.45148913,
0.03582,-0.9276155673,0.03582,73.45148913,
0.03584,-0.196754979,0.03584,73.81691942,
0.03586,-0.196754979,0.03586,73.45148913,
0.03588,0.1686753152,0.03588,73.45148913,
0.0359,-0.5621852732,0.0359,73.45148913,
0.03592,-0.5621852732,0.03592,73.81691942,
0.03594,0.1686753152,0.03594,73.45148913,
0.03596,0.8995359035,0.03596,73.81691942,
0.03598,-0.196754979,0.03598,73.45148913,
0.036,1.264966198,0.036,73.08605883,
0.03602,-0.9276155673,0.03602,73.81691942,
0.03604,-0.196754979,0.03604,73.81691942,
0.03606,0.1686753152,0.03606,73.08605883,
0.03608,-0.9276155673,0.03608,73.81691942,
0.0361,-1.293045862,0.0361,73.81691942,
0.03612,0.8995359035,0.03612,73.08605883,
0.03614,-0.196754979,0.03614,73.81691942,
0.03616,0.1686753152,0.03616,73.45148913,
0.03618,0.1686753152,0.03618,73.45148913,
0.0362,-0.5621852732,0.0362,73.81691942,
0.03622,-0.5621852732,0.03622,73.81691942,
0.03624,0.1686753152,0.03624,73.08605883,
0.03626,0.8995359035,0.03626,74.18234972,
0.03628,-1.658476156,0.03628,73.45148913,
0.0363,-0.9276155673,0.0363,73.45148913,
0.03632,-0.5621852732,0.03632,74.18234972,
0.03634,-0.5621852732,0.03634,73.81691942,
0.03636,0.1686753152,0.03636,73.45148913,
0.03638,0.8995359035,0.03638,73.81691942,
0.0364,-0.196754979,0.0364,73.45148913,
0.03642,-0.196754979,0.03642,73.45148913,
0.03644,0.1686753152,0.03644,73.81691942,
0.03646,0.5341056094,0.03646,73.45148913,
0.03648,-0.196754979,0.03648,73.45148913,
0.0365,-0.196754979,0.0365,73.81691942,
0.03652,-0.5621852732,0.03652,73.45148913,
0.03654,-0.196754979,0.03654,73.08605883,
0.03656,0.1686753152,0.03656,73.81691942,
0.03658,0.1686753152,0.03658,73.45148913,
0.0366,-0.196754979,0.0366,73.08605883,
0.03662,0.8995359035,0.03662,73.81691942,
0.03664,0.1686753152,0.03664,73.08605883,
0.03666,0.8995359035,0.03666,73.45148913,
0.03668,-0.9276155673,0.03668,73.81691942,
0.0367,-0.9276155673,0.0367,73.81691942,
0.03672,-0.5621852732,0.03672,73.08605883,
0.03674,-0.5621852732,0.03674,73.81691942,
0.03676,-1.293045862,0.03676,73.45148913,
0.03678,-0.5621852732,0.03678,73.45148913,
0.0368,-0.9276155673,0.0368,73.81691942,
0.03682,0.5341056094,0.03682,73.45148913,
0.03684,0.1686753152,0.03684,73.81691942,
0.03686,-0.196754979,0.03686,73.81691942,
0.03688,0.1686753152,0.03688,73.45148913,
0.0369,-0.196754979,0.0369,73.45148913,
0.03692,0.1686753152,0.03692,74.18234972,
0.03694,-0.196754979,0.03694,73.81691942,
0.03696,0.1686753152,0.03696,73.45148913,
0.03698,-0.196754979,0.03698,73.81691942,
0.037,-0.196754979,0.037,73.81691942,
0.03702,0.1686753152,0.03702,73.45148913,
0.03704,-1.293045862,0.03704,73.08605883,
0.03706,0.1686753152,0.03706,73.45148913,
0.03708,-0.196754979,0.03708,73.81691942,
0.0371,-0.5621852732,0.0371,73.45148913,
0.03712,-0.196754979,0.03712,73.45148913,
0.03714,-0.196754979,0.03714,73.08605883,
0.03716,-0.5621852732,0.03716,73.08605883,
0.03718,0.1686753152,0.03718,73.45148913,
0.0372,-0.9276155673,0.0372,73.08605883,
0.03722,-0.196754979,0.03722,72.72062854,
0.03724,0.1686753152,0.03724,73.08605883,
0.03726,0.5341056094,0.03726,73.81691942,
0.03728,-1.293045862,0.03728,72.72062854,
0.0373,-0.5621852732,0.0373,73.45148913,
0.03732,-0.5621852732,0.03732,73.45148913,
0.03734,0.1686753152,0.03734,73.08605883,
0.03736,0.1686753152,0.03736,73.45148913,
0.03738,-0.196754979,0.03738,73.08605883,
0.0374,-1.293045862,0.0374,73.08605883,
0.03742,0.8995359035,0.03742,73.08605883,
0.03744,0.8995359035,0.03744,73.81691942,
0.03746,-0.196754979,0.03746,73.08605883,
0.03748,-0.196754979,0.03748,73.45148913,
0.0375,-0.196754979,0.0375,73.08605883,
0.03752,-0.9276155673,0.03752,72.72062854,
0.03754,0.1686753152,0.03754,73.45148913,
0.03756,-0.196754979,0.03756,73.45148913,
0.03758,-0.196754979,0.03758,73.08605883,
0.0376,-0.9276155673,0.0376,73.08605883,
0.03762,0.1686753152,0.03762,73.45148913,
0.03764,-1.293045862,0.03764,73.08605883,
0.03766,0.5341056094,0.03766,73.08605883,
0.03768,-0.196754979,0.03768,73.45148913,
0.0377,0.5341056094,0.0377,73.08605883,
0.03772,0.8995359035,0.03772,73.08605883,
0.03774,0.1686753152,0.03774,73.45148913,
0.03776,-0.5621852732,0.03776,73.08605883,
0.03778,-0.196754979,0.03778,73.45148913,
0.0378,0.1686753152,0.0378,73.08605883,
0.03782,-0.196754979,0.03782,73.08605883,
0.03784,-0.5621852732,0.03784,73.08605883,
0.03786,0.1686753152,0.03786,73.45148913,
0.03788,-0.5621852732,0.03788,73.08605883,
0.0379,-0.196754979,0.0379,73.81691942,
0.03792,-0.5621852732,0.03792,73.45148913,
0.03794,-0.196754979,0.03794,73.45148913,
0.03796,-0.9276155673,0.03796,73.45148913,
0.03798,0.8995359035,0.03798,73.45148913,
0.038,-0.196754979,0.038,73.45148913,
0.03802,0.1686753152,0.03802,73.45148913,
0.03804,0.1686753152,0.03804,73.81691942,
0.03806,-0.9276155673,0.03806,73.45148913,
0.03808,-0.196754979,0.03808,73.45148913,
0.0381,0.1686753152,0.0381,74.18234972,
0.03812,0.1686753152,0.03812,73.45148913,
0.03814,0.1686753152,0.03814,73.81691942,
0.03816,-0.5621852732,0.03816,73.81691942,
0.03818,0.8995359035,0.03818,73.81691942,
0.0382,-0.5621852732,0.0382,73.45148913,
0.03822,0.1686753152,0.03822,73.45148913,
0.03824,0.5341056094,0.03824,73.81691942,
0.03826,-1.293045862,0.03826,73.45148913,
0.03828,-0.196754979,0.03828,73.45148913,
0.0383,0.1686753152,0.0383,73.81691942,
0.03832,-1.293045862,0.03832,73.81691942,
0.03834,-0.196754979,0.03834,73.45148913,
0.03836,-0.196754979,0.03836,73.81691942,
0.03838,-0.9276155673,0.03838,73.81691942,
0.0384,0.5341056094,0.0384,73.45148913,
0.03842,-0.9276155673,0.03842,74.18234972,
0.03844,-0.5621852732,0.03844,73.45148913,
0.03846,-0.196754979,0.03846,73.45148913,
0.03848,0.8995359035,0.03848,73.81691942,
0.0385,-0.196754979,0.0385,73.45148913,
0.03852,0.5341056094,0.03852,73.45148913,
0.03854,-0.196754979,0.03854,73.81691942,
0.03856,-0.5621852732,0.03856,73.45148913,
0.03858,-0.9276155673,0.03858,73.45148913,
0.0386,0.1686753152,0.0386,73.81691942,
0.03862,-0.5621852732,0.03862,73.81691942,
0.03864,-0.5621852732,0.03864,73.81691942,
0.03866,0.5341056094,0.03866,74.18234972,
0.03868,-1.293045862,0.03868,73.81691942,
0.0387,0.5341056094,0.0387,73.81691942,
0.03872,0.5341056094,0.03872,73.81691942,
0.03874,-0.196754979,0.03874,73.45148913,
0.03876,-0.196754979,0.03876,73.45148913,
0.03878,-1.293045862,0.03878,73.81691942,
0.0388,-0.5621852732,0.0388,73.45148913,
0.03882,-0.5621852732,0.03882,73.45148913,
0.03884,0.1686753152,0.03884,73.81691942,
0.03886,-0.5621852732,0.03886,73.81691942,
0.03888,-0.196754979,0.03888,73.45148913,
0.0389,0.8995359035,0.0389,74.18234972,
0.03892,-0.5621852732,0.03892,73.45148913,
0.03894,-0.5621852732,0.03894,73.08605883,
0.03896,-0.5621852732,0.03896,73.81691942,
0.03898,-1.293045862,0.03898,73.45148913,
0.039,-0.5621852732,0.039,73.45148913,
0.03902,0.5341056094,0.03902,73.81691942,
0.03904,0.5341056094,0.03904,73.45148913,
0.03906,0.1686753152,0.03906,73.45148913,
0.03908,-0.5621852732,0.03908,73.81691942,
0.0391,-1.293045862,0.0391,73.45148913,
0.03912,-1.293045862,0.03912,73.45148913,
0.03914,-0.196754979,0.03914,74.18234972,
0.03916,0.1686753152,0.03916,73.45148913,
0.03918,-0.196754979,0.03918,73.45148913,
0.0392,-0.196754979,0.0392,73.45148913,
0.03922,-0.5621852732,0.03922,73.81691942,
0.03924,-0.196754979,0.03924,73.81691942,
0.03926,-1.293045862,0.03926,73.81691942,
0.03928,-0.5621852732,0.03928,73.45148913,
0.0393,-0.196754979,0.0393,73.45148913,
0.03932,-0.9276155673,0.03932,74.18234972,
0.03934,-0.9276155673,0.03934,73.45148913,
0.03936,-0.9276155673,0.03936,73.08605883,
0.03938,-0.9276155673,0.03938,73.45148913,
0.0394,-0.196754979,0.0394,73.45148913,
0.03942,-0.196754979,0.03942,73.45148913,
0.03944,-0.5621852732,0.03944,73.81691942,
0.03946,-0.5621852732,0.03946,73.45148913,
0.03948,-0.5621852732,0.03948,73.45148913,
0.0395,-0.5621852732,0.0395,73.81691942,
0.03952,-0.5621852732,0.03952,73.45148913,
0.03954,-0.196754979,0.03954,73.45148913,
0.03956,-0.196754979,0.03956,73.81691942,
0.03958,-1.293045862,0.03958,73.45148913,
0.0396,-0.196754979,0.0396,73.45148913,
0.03962,-0.5621852732,0.03962,74.18234972,
0.03964,-1.293045862,0.03964,73.45148913,
0.03966,-0.9276155673,0.03966,73.08605883,
0.03968,-0.5621852732,0.03968,73.81691942,
0.0397,-0.5621852732,0.0397,73.45148913,
0.03972,0.5341056094,0.03972,73.45148913,
0.03974,-0.196754979,0.03974,73.81691942,
0.03976,-0.9276155673,0.03976,73.45148913,
0.03978,0.5341056094,0.03978,73.45148913,
0.0398,-0.9276155673,0.0398,73.45148913,
0.03982,-0.5621852732,0.03982,73.81691942,
0.03984,0.1686753152,0.03984,73.45148913,
0.03986,0.5341056094,0.03986,73.81691942,
0.03988,0.5341056094,0.03988,73.08605883,
0.0399,-0.196754979,0.0399,73.45148913,
0.03992,0.1686753152,0.03992,73.08605883,
0.03994,-1.293045862,0.03994,72.72062854,
0.03996,0.5341056094,0.03996,73.08605883,
0.03998,0.5341056094,0.03998,73.45148913,
0.04,-0.9276155673,0.04,72.72062854,
0.04002,0.5341056094,0.04002,73.08605883,
0.04004,-0.196754979,0.04004,73.08605883,
0.04006,-0.5621852732,0.04006,72.72062854,
0.04008,-0.5621852732,0.04008,73.08605883,
0.0401,-0.196754979,0.0401,73.45148913,
0.04012,-0.196754979,0.04012,73.08605883,
0.04014,-1.293045862,0.04014,73.45148913,
0.04016,0.1686753152,0.04016,73.45148913,
0.04018,-0.196754979,0.04018,73.08605883,
0.0402,0.5341056094,0.0402,73.45148913,
0.04022,-0.196754979,0.04022,73.08605883,
0.04024,-0.9276155673,0.04024,73.08605883,
0.04026,-0.196754979,0.04026,73.45148913,
0.04028,0.5341056094,0.04028,73.81691942,
0.0403,-0.9276155673,0.0403,73.08605883,
0.04032,0.1686753152,0.04032,73.81691942,
0.04034,0.1686753152,0.04034,73.45148913,
0.04036,-0.196754979,0.04036,73.08605883,
0.04038,0.1686753152,0.04038,73.45148913,
0.0404,-0.5621852732,0.0404,73.45148913,
0.04042,-0.196754979,0.04042,73.08605883,
0.04044,1.264966198,0.04044,73.08605883,
0.04046,0.5341056094,0.04046,73.08605883,
0.04048,-0.5621852732,0.04048,73.08605883,
0.0405,0.1686753152,0.0405,73.45148913,
0.04052,-0.9276155673,0.04052,73.81691942,
0.04054,-1.293045862,0.04054,73.08605883,
0.04056,-0.9276155673,0.04056,73.45148913,
0.04058,0.5341056094,0.04058,73.08605883,
0.0406,0.5341056094,0.0406,73.08605883,
0.04062,0.1686753152,0.04062,73.45148913,
0.04064,0.5341056094,0.04064,73.45148913,
0.04066,-1.293045862,0.04066,73.08605883,
0.04068,-0.196754979,0.04068,73.45148913,
0.0407,0.1686753152,0.0407,73.45148913,
0.04072,-0.196754979,0.04072,73.08605883,
0.04074,0.1686753152,0.04074,73.45148913,
0.04076,-0.196754979,0.04076,73.08605883,
0.04078,-0.9276155673,0.04078,73.08605883,
0.0408,-0.5621852732,0.0408,73.45148913,
0.04082,-0.5621852732,0.04082,73.08605883,
0.04084,-0.5621852732,0.04084,72.72062854,
0.04086,-0.196754979,0.04086,73.08605883,
0.04088,-0.9276155673,0.04088,73.81691942,
0.0409,-0.9276155673,0.0409,73.08605883,
0.04092,0.1686753152,0.04092,73.45148913,
0.04094,-0.196754979,0.04094,73.45148913,
0.04096,-0.196754979,0.04096,73.08605883,
0.04098,0.1686753152,0.04098,73.45148913,
0.041,-0.5621852732,0.041,73.45148913,
0.04102,-0.196754979,0.04102,72.72062854,
0.04104,0.8995359035,0.04104,73.08605883,
0.04106,-0.196754979,0.04106,73.45148913,
0.04108,-0.196754979,0.04108,72.72062854,
0.0411,-0.5621852732,0.0411,73.81691942,
0.04112,0.8995359035,0.04112,73.45148913,
0.04114,0.1686753152,0.04114,73.08605883,
0.04116,-0.9276155673,0.04116,73.45148913,
0.04118,-0.196754979,0.04118,73.45148913,
0.0412,-0.5621852732,0.0412,73.08605883,
0.04122,-0.196754979,0.04122,73.45148913,
0.04124,0.5341056094,0.04124,73.81691942,
0.04126,-0.5621852732,0.04126,73.08605883,
0.04128,0.8995359035,0.04128,73.45148913,
0.0413,-0.5621852732,0.0413,73.45148913,
0.04132,-0.5621852732,0.04132,73.08605883,
0.04134,-0.196754979,0.04134,73.45148913,
0.04136,0.1686753152,0.04136,73.45148913,
0.04138,-0.5621852732,0.04138,73.08605883,
0.0414,0.1686753152,0.0414,73.45148913,
0.04142,0.8995359035,0.04142,73.45148913,
0.04144,-0.5621852732,0.04144,73.08605883,
0.04146,-0.196754979,0.04146,73.45148913,
0.04148,-0.196754979,0.04148,73.45148913,
0.0415,-0.5621852732,0.0415,72.72062854,
0.04152,0.8995359035,0.04152,73.45148913,
0.04154,-0.5621852732,0.04154,73.08605883,
0.04156,-0.5621852732,0.04156,72.72062854,
0.04158,-0.196754979,0.04158,73.45148913,
0.0416,-0.5621852732,0.0416,73.45148913,
0.04162,-0.196754979,0.04162,73.08605883,
0.04164,1.264966198,0.04164,73.45148913,
0.04166,0.1686753152,0.04166,73.45148913,
0.04168,0.1686753152,0.04168,73.08605883,
0.0417,0.1686753152,0.0417,73.45148913,
0.04172,-0.196754979,0.04172,73.45148913,
0.04174,-0.196754979,0.04174,73.08605883,
0.04176,0.1686753152,0.04176,73.45148913,
0.04178,-1.658476156,0.04178,73.45148913,
0.0418,0.1686753152,0.0418,73.81691942,
0.04182,-0.5621852732,0.04182,73.08605883,
0.04184,-0.9276155673,0.04184,73.45148913,
0.04186,0.1686753152,0.04186,73.45148913,
0.04188,-0.196754979,0.04188,73.45148913,
0.0419,-0.5621852732,0.0419,73.45148913,
0.04192,0.1686753152,0.04192,74.18234972,
0.04194,-0.9276155673,0.04194,73.45148913,
0.04196,-0.196754979,0.04196,73.08605883,
0.04198,0.1686753152,0.04198,73.81691942,
0.042,-0.9276155673,0.042,73.45148913,
0.04202,-0.5621852732,0.04202,73.45148913,
0.04204,0.5341056094,0.04204,73.81691942,
0.04206,-1.293045862,0.04206,73.45148913,
0.04208,-0.9276155673,0.04208,73.45148913,
0.0421,-0.5621852732,0.0421,73.45148913,
0.04212,-0.196754979,0.04212,73.81691942,
0.04214,0.5341056094,0.04214,73.08605883,
0.04216,-0.196754979,0.04216,73.45148913,
0.04218,-0.196754979,0.04218,73.45148913,
0.0422,0.8995359035,0.0422,73.45148913,
0.04222,0.8995359035,0.04222,73.81691942,
0.04224,-0.196754979,0.04224,73.45148913,
0.04226,-0.9276155673,0.04226,73.08605883,
0.04228,0.5341056094,0.04228,73.81691942,
0.0423,-0.196754979,0.0423,73.45148913,
0.04232,-1.293045862,0.04232,73.45148913,
0.04234,0.1686753152,0.04234,73.45148913,
0.04236,-0.196754979,0.04236,73.45148913,
0.04238,-0.9276155673,0.04238,73.08605883,
0.0424,-0.9276155673,0.0424,73.81691942,
0.04242,0.1686753152,0.04242,73.08605883,
0.04244,-0.9276155673,0.04244,73.45148913,
0.04246,-0.9276155673,0.04246,73.81691942,
0.04248,-0.196754979,0.04248,73.08605883,
0.0425,-0.5621852732,0.0425,73.08605883,
0.04252,0.5341056094,0.04252,73.81691942,
0.04254,-0.9276155673,0.04254,73.45148913,
0.04256,0.5341056094,0.04256,73.08605883,
0.04258,-0.5621852732,0.04258,73.81691942,
0.0426,-1.293045862,0.0426,73.08605883,
0.04262,-0.9276155673,0.04262,73.45148913,
0.04264,-0.5621852732,0.04264,73.81691942,
0.04266,-0.9276155673,0.04266,73.08605883,
0.04268,-0.9276155673,0.04268,73.45148913,
0.0427,-0.196754979,0.0427,73.81691942,
0.04272,-1.293045862,0.04272,73.81691942,
0.04274,-0.196754979,0.04274,73.45148913,
0.04276,-0.9276155673,0.04276,74.18234972,
0.04278,-2.02390645,0.04278,73.45148913,
0.0428,-0.196754979,0.0428,73.45148913,
0.04282,-0.196754979,0.04282,73.81691942,
0.04284,-0.9276155673,0.04284,73.08605883,
0.04286,-0.196754979,0.04286,73.08605883,
0.04288,-1.293045862,0.04288,73.81691942,
0.0429,-0.5621852732,0.0429,73.45148913,
0.04292,-0.5621852732,0.04292,73.08605883,
0.04294,0.5341056094,0.04294,73.45148913,
0.04296,0.1686753152,0.04296,73.08605883,
0.04298,-1.293045862,0.04298,73.08605883,
0.043,0.1686753152,0.043,73.81691942,
0.04302,-0.5621852732,0.04302,73.45148913,
0.04304,-0.9276155673,0.04304,74.18234972,
0.04306,-0.5621852732,0.04306,73.45148913,
0.04308,-0.196754979,0.04308,73.45148913,
0.0431,0.1686753152,0.0431,73.81691942,
0.04312,-0.5621852732,0.04312,73.81691942,
0.04314,-0.9276155673,0.04314,73.45148913,
0.04316,-0.196754979,0.04316,73.45148913,
0.04318,0.1686753152,0.04318,73.81691942,
0.0432,0.8995359035,0.0432,73.81691942,
0.04322,-0.5621852732,0.04322,73.81691942,
0.04324,0.1686753152,0.04324,73.81691942,
0.04326,0.5341056094,0.04326,73.81691942,
0.04328,0.5341056094,0.04328,73.81691942,
0.0433,-0.196754979,0.0433,73.81691942,
0.04332,-0.196754979,0.04332,73.81691942,
0.04334,-0.196754979,0.04334,73.81691942,
0.04336,0.1686753152,0.04336,73.81691942,
0.04338,0.1686753152,0.04338,73.45148913,
0.0434,0.1686753152,0.0434,73.08605883,
0.04342,-0.5621852732,0.04342,73.81691942,
0.04344,-1.658476156,0.04344,73.81691942,
0.04346,-0.196754979,0.04346,73.08605883,
0.04348,-0.5621852732,0.04348,73.81691942,
0.0435,-0.5621852732,0.0435,73.45148913,
0.04352,-0.196754979,0.04352,73.08605883,
0.04354,0.1686753152,0.04354,73.81691942,
0.04356,-0.5621852732,0.04356,73.45148913,
0.04358,-0.196754979,0.04358,73.08605883,
0.0436,-0.5621852732,0.0436,73.81691942,
0.04362,-0.9276155673,0.04362,73.45148913,
0.04364,-0.5621852732,0.04364,72.72062854,
0.04366,-0.196754979,0.04366,73.45148913,
0.04368,-0.196754979,0.04368,74.18234972,
0.0437,0.5341056094,0.0437,73.81691942,
0.04372,-0.5621852732,0.04372,73.81691942,
0.04374,0.8995359035,0.04374,73.08605883,
0.04376,-0.5621852732,0.04376,73.81691942,
0.04378,-0.5621852732,0.04378,73.45148913,
0.0438,0.1686753152,0.0438,73.45148913,
0.04382,-0.9276155673,0.04382,73.81691942,
0.04384,-0.9276155673,0.04384,73.81691942,
0.04386,0.1686753152,0.04386,73.45148913,
0.04388,0.1686753152,0.04388,73.81691942,
0.0439,-2.02390645,0.0439,73.45148913,
0.04392,1.264966198,0.04392,73.45148913,
0.04394,-1.293045862,0.04394,73.81691942,
0.04396,-0.5621852732,0.04396,73.45148913,
0.04398,-0.196754979,0.04398,73.45148913,
0.044,-0.9276155673,0.044,73.45148913,
0.04402,-0.5621852732,0.04402,73.08605883,
0.04404,-1.658476156,0.04404,73.45148913,
0.04406,-0.196754979,0.04406,73.45148913,
0.04408,-0.196754979,0.04408,73.45148913,
0.0441,-0.9276155673,0.0441,73.45148913,
0.04412,-0.5621852732,0.04412,73.81691942,
0.04414,-0.9276155673,0.04414,73.81691942,
0.04416,-0.5621852732,0.04416,73.45148913,
0.04418,-0.5621852732,0.04418,73.81691942,
0.0442,-0.9276155673,0.0442,73.45148913,
0.04422,-0.5621852732,0.04422,73.45148913,
0.04424,0.1686753152,0.04424,73.81691942,
0.04426,-1.293045862,0.04426,73.45148913,
0.04428,-0.196754979,0.04428,73.08605883,
0.0443,-0.9276155673,0.0443,73.45148913,
0.04432,-0.9276155673,0.04432,73.81691942,
0.04434,-0.196754979,0.04434,73.45148913,
0.04436,-0.5621852732,0.04436,73.81691942,
0.04438,-1.658476156,0.04438,73.45148913,
0.0444,-0.196754979,0.0444,73.45148913,
0.04442,-0.9276155673,0.04442,73.45148913,
0.04444,-2.389336744,0.04444,73.45148913,
0.04446,-0.5621852732,0.04446,73.45148913,
0.04448,-1.293045862,0.04448,74.18234972,
0.0445,-0.5621852732,0.0445,73.81691942,
0.04452,0.1686753152,0.04452,73.45148913,
0.04454,0.1686753152,0.04454,73.81691942,
0.04456,-1.293045862,0.04456,73.45148913,
0.04458,-0.5621852732,0.04458,73.45148913,
0.0446,0.1686753152,0.0446,73.81691942,
0.04462,-0.5621852732,0.04462,73.45148913,
0.04464,0.1686753152,0.04464,73.45148913,
0.04466,-0.9276155673,0.04466,73.81691942,
0.04468,-0.196754979,0.04468,73.45148913,
0.0447,-1.293045862,0.0447,73.81691942,
0.04472,-0.196754979,0.04472,73.45148913,
0.04474,-0.5621852732,0.04474,73.45148913,
0.04476,-1.293045862,0.04476,73.45148913,
0.04478,-0.196754979,0.04478,74.18234972,
0.0448,-0.5621852732,0.0448,73.81691942,
0.04482,0.1686753152,0.04482,73.08605883,
0.04484,-0.5621852732,0.04484,73.81691942,
0.04486,-0.9276155673,0.04486,73.45148913,
0.04488,-1.658476156,0.04488,73.45148913,
0.0449,0.1686753152,0.0449,73.81691942,
0.04492,-0.5621852732,0.04492,73.81691942,
0.04494,0.8995359035,0.04494,73.08605883,
0.04496,-0.5621852732,0.04496,73.81691942,
0.04498,-0.5621852732,0.04498,73.45148913,
0.045,-0.196754979,0.045,73.45148913,
0.04502,0.1686753152,0.04502,73.81691942,
0.04504,-1.293045862,0.04504,73.81691942,
0.04506,-0.5621852732,0.04506,73.45148913,
0.04508,0.5341056094,0.04508,73.45148913,
0.0451,-0.196754979,0.0451,73.45148913,
0.04512,0.5341056094,0.04512,73.45148913,
0.04514,-0.196754979,0.04514,73.81691942,
0.04516,-0.9276155673,0.04516,73.81691942,
0.04518,-0.5621852732,0.04518,73.81691942,
0.0452,-0.5621852732,0.0452,73.81691942,
0.04522,-0.9276155673,0.04522,73.45148913,
0.04524,0.1686753152,0.04524,73.45148913,
0.04526,-0.9276155673,0.04526,73.45148913,
0.04528,-0.196754979,0.04528,73.45148913,
0.0453,-0.196754979,0.0453,73.08605883,
0.04532,-0.196754979,0.04532,73.81691942,
0.04534,-0.196754979,0.04534,73.45148913,
0.04536,0.1686753152,0.04536,73.45148913,
0.04538,-0.9276155673,0.04538,73.81691942,
0.0454,-0.9276155673,0.0454,73.45148913,
0.04542,0.5341056094,0.04542,73.45148913,
0.04544,-0.196754979,0.04544,73.81691942,
0.04546,-1.293045862,0.04546,73.08605883,
0.04548,-0.5621852732,0.04548,73.08605883,
0.0455,-0.196754979,0.0455,73.81691942,
0.04552,-0.5621852732,0.04552,73.45148913,
0.04554,-0.5621852732,0.04554,73.45148913,
0.04556,-0.5621852732,0.04556,73.81691942,
0.04558,-0.196754979,0.04558,73.45148913,
0.0456,-0.9276155673,0.0456,73.45148913,
0.04562,0.1686753152,0.04562,73.08605883,
0.04564,-0.5621852732,0.04564,73.45148913,
0.04566,0.8995359035,0.04566,73.08605883,
0.04568,0.1686753152,0.04568,73.08605883,
0.0457,-0.9276155673,0.0457,73.45148913,
0.04572,-0.196754979,0.04572,73.45148913,
0.04574,-0.196754979,0.04574,73.08605883,
0.04576,0.1686753152,0.04576,73.45148913,
0.04578,-1.293045862,0.04578,73.81691942,
0.0458,-0.5621852732,0.0458,73.08605883,
0.04582,0.1686753152,0.04582,73.45148913,
0.04584,0.1686753152,0.04584,73.08605883,
0.04586,0.1686753152,0.04586,74.18234972,
0.04588,-0.196754979,0.04588,73.45148913,
0.0459,-0.196754979,0.0459,73.45148913,
0.04592,-0.5621852732,0.04592,73.08605883,
0.04594,-0.196754979,0.04594,73.45148913,
0.04596,-0.196754979,0.04596,73.81691942,
0.04598,-0.196754979,0.04598,73.08605883,
0.046,0.5341056094,0.046,73.45148913,
0.04602,-0.5621852732,0.04602,73.45148913,
0.04604,-0.9276155673,0.04604,73.08605883,
0.04606,-0.5621852732,0.04606,73.08605883,
0.04608,0.1686753152,0.04608,73.45148913,
0.0461,-1.293045862,0.0461,73.08605883,
0.04612,-0.5621852732,0.04612,73.08605883,
0.04614,0.1686753152,0.04614,73.45148913,
0.04616,-0.5621852732,0.04616,73.08605883,
0.04618,-0.196754979,0.04618,73.45148913,
0.0462,-0.196754979,0.0462,73.45148913,
0.04622,-0.196754979,0.04622,73.08605883,
0.04624,0.8995359035,0.04624,73.45148913,
0.04626,0.1686753152,0.04626,73.08605883,
0.04628,-0.5621852732,0.04628,72.72062854,
0.0463,0.8995359035,0.0463,73.08605883,
0.04632,0.1686753152,0.04632,73.45148913,
0.04634,-0.196754979,0.04634,73.08605883,
0.04636,-0.9276155673,0.04636,73.45148913,
0.04638,-0.196754979,0.04638,73.45148913,
0.0464,-0.9276155673,0.0464,72.72062854,
0.04642,0.1686753152,0.04642,73.81691942,
0.04644,0.5341056094,0.04644,73.45148913,
0.04646,0.1686753152,0.04646,73.45148913,
0.04648,-0.196754979,0.04648,73.08605883,
0.0465,0.5341056094,0.0465,73.45148913,
0.04652,-0.9276155673,0.04652,72.72062854,
0.04654,0.5341056094,0.04654,73.81691942,
0.04656,-0.196754979,0.04656,73.45148913,
0.04658,-0.196754979,0.04658,73.08605883,
0.0466,0.1686753152,0.0466,73.08605883,
0.04662,-0.5621852732,0.04662,72.72062854,
0.04664,-1.293045862,0.04664,73.08605883,
0.04666,0.8995359035,0.04666,73.45148913,
0.04668,-1.658476156,0.04668,73.81691942,
0.0467,-0.5621852732,0.0467,73.08605883,
0.04672,1.264966198,0.04672,73.45148913,
0.04674,0.8995359035,0.04674,73.45148913,
0.04676,-0.196754979,0.04676,73.08605883,
0.04678,-0.196754979,0.04678,73.45148913,
0.0468,0.1686753152,0.0468,73.81691942,
0.04682,-0.9276155673,0.04682,73.08605883,
0.04684,0.5341056094,0.04684,72.72062854,
0.04686,-0.5621852732,0.04686,73.81691942,
0.04688,-0.9276155673,0.04688,73.08605883,
0.0469,0.1686753152,0.0469,73.08605883,
0.04692,-0.9276155673,0.04692,73.45148913,
0.04694,-0.5621852732,0.04694,73.08605883,
0.04696,0.5341056094,0.04696,73.08605883,
0.04698,0.5341056094,0.04698,73.45148913,
0.047,-1.293045862,0.047,73.08605883,
0.04702,0.1686753152,0.04702,73.45148913,
0.04704,-1.293045862,0.04704,73.45148913,
0.04706,0.5341056094,0.04706,72.72062854,
0.04708,-0.5621852732,0.04708,73.45148913,
0.0471,0.1686753152,0.0471,73.45148913,
0.04712,-0.9276155673,0.04712,72.72062854,
0.04714,-0.5621852732,0.04714,73.45148913,
0.04716,-0.5621852732,0.04716,73.08605883,
0.04718,-0.5621852732,0.04718,72.72062854,
0.0472,0.5341056094,0.0472,73.81691942,
0.04722,0.5341056094,0.04722,73.45148913,
0.04724,-0.5621852732,0.04724,72.72062854,
0.04726,-0.5621852732,0.04726,73.08605883,
0.04728,-0.5621852732,0.04728,73.08605883,
0.0473,-0.196754979,0.0473,73.08605883,
0.04732,0.1686753152,0.04732,73.45148913,
0.04734,-0.196754979,0.04734,73.81691942,
0.04736,-1.293045862,0.04736,73.08605883,
0.04738,0.1686753152,0.04738,73.45148913,
0.0474,-1.658476156,0.0474,73.45148913,
0.04742,-0.196754979,0.04742,73.08605883,
0.04744,-0.196754979,0.04744,73.45148913,
0.04746,0.1686753152,0.04746,73.45148913,
0.04748,-0.9276155673,0.04748,73.81691942,
0.0475,-0.5621852732,0.0475,73.45148913,
0.04752,-0.9276155673,0.04752,73.08605883,
0.04754,-0.196754979,0.04754,74.18234972,
0.04756,-1.293045862,0.04756,73.45148913,
0.04758,-0.9276155673,0.04758,73.08605883,
0.0476,-0.9276155673,0.0476,73.45148913,
0.04762,-0.5621852732,0.04762,73.08605883,
0.04764,-0.196754979,0.04764,73.45148913,
0.04766,-1.658476156,0.04766,73.45148913,
0.04768,-1.658476156,0.04768,73.08605883,
0.0477,0.1686753152,0.0477,73.45148913,
0.04772,0.8995359035,0.04772,74.18234972,
0.04774,-0.196754979,0.04774,73.45148913,
0.04776,-0.5621852732,0.04776,73.08605883,
0.04778,-0.196754979,0.04778,73.81691942,
0.0478,-0.9276155673,0.0478,73.45148913,
0.04782,-0.5621852732,0.04782,73.45148913,
0.04784,0.5341056094,0.04784,73.81691942,
0.04786,-0.9276155673,0.04786,73.81691942,
0.04788,-0.196754979,0.04788,73.08605883,
0.0479,-0.196754979,0.0479,73.81691942,
0.04792,-2.02390645,0.04792,73.45148913,
0.04794,-0.5621852732,0.04794,73.08605883,
0.04796,0.8995359035,0.04796,73.81691942,
0.04798,-1.293045862,0.04798,73.81691942,
0.048,-1.658476156,0.048,73.45148913,
0.04802,-0.9276155673,0.04802,73.81691942,
0.04804,-1.293045862,0.04804,73.45148913,
0.04806,-0.196754979,0.04806,73.45148913,
0.04808,-0.196754979,0.04808,74.18234972,
0.0481,0.1686753152,0.0481,72.72062854,
0.04812,-0.196754979,0.04812,73.45148913,
0.04814,-0.5621852732,0.04814,73.81691942,
0.04816,-0.5621852732,0.04816,73.08605883,
0.04818,0.1686753152,0.04818,73.08605883,
0.0482,-0.196754979,0.0482,72.72062854,
0.04822,0.1686753152,0.04822,73.45148913,
0.04824,-0.9276155673,0.04824,73.81691942,
0.04826,0.1686753152,0.04826,73.08605883,
0.04828,0.8995359035,0.04828,73.81691942,
0.0483,-0.196754979,0.0483,73.45148913,
0.04832,0.5341056094,0.04832,73.45148913,
0.04834,-0.196754979,0.04834,73.45148913,
0.04836,-0.9276155673,0.04836,73.81691942,
0.04838,-0.5621852732,0.04838,73.45148913,
0.0484,0.1686753152,0.0484,73.45148913,
0.04842,-0.196754979,0.04842,73.81691942,
0.04844,-0.5621852732,0.04844,73.81691942,
0.04846,0.5341056094,0.04846,73.08605883,
0.04848,0.1686753152,0.04848,73.81691942,
0.0485,0.1686753152,0.0485,73.45148913,
0.04852,-0.9276155673,0.04852,73.81691942,
0.04854,0.5341056094,0.04854,73.81691942,
0.04856,0.1686753152,0.04856,74.18234972,
0.04858,-0.5621852732,0.04858,74.18234972,
0.0486,-0.9276155673,0.0486,73.45148913,
0.04862,-0.196754979,0.04862,73.45148913,
0.04864,-0.9276155673,0.04864,74.18234972,
0.04866,-0.5621852732,0.04866,73.81691942,
0.04868,0.5341056094,0.04868,73.08605883,
0.0487,0.1686753152,0.0487,73.81691942,
0.04872,-0.9276155673,0.04872,73.45148913,
0.04874,0.5341056094,0.04874,73.08605883,
0.04876,-0.5621852732,0.04876,73.81691942,
0.04878,-2.389336744,0.04878,73.81691942,
0.0488,-0.5621852732,0.0488,73.45148913,
0.04882,0.5341056094,0.04882,74.18234972,
0.04884,-0.5621852732,0.04884,73.45148913,
0.04886,0.5341056094,0.04886,73.08605883,
0.04888,0.5341056094,0.04888,73.81691942,
0.0489,-1.658476156,0.0489,73.45148913,
0.04892,0.5341056094,0.04892,73.45148913,
0.04894,-0.5621852732,0.04894,73.81691942,
0.04896,-0.5621852732,0.04896,73.81691942,
0.04898,-0.5621852732,0.04898,73.08605883,
0.049,0.1686753152,0.049,73.81691942,
0.04902,-0.5621852732,0.04902,73.45148913,
0.04904,-0.5621852732,0.04904,73.45148913,
0.04906,0.1686753152,0.04906,73.81691942,
0.04908,-0.196754979,0.04908,73.81691942,
0.0491,-0.196754979,0.0491,73.08605883,
0.04912,0.1686753152,0.04912,74.18234972,
0.04914,-1.293045862,0.04914,73.81691942,
0.04916,0.1686753152,0.04916,73.08605883,
0.04918,-0.5621852732,0.04918,73.81691942,
0.0492,-0.9276155673,0.0492,73.45148913,
0.04922,-0.196754979,0.04922,73.45148913,
0.04924,-0.9276155673,0.04924,73.81691942,
0.04926,-0.9276155673,0.04926,73.81691942,
0.04928,-0.196754979,0.04928,73.45148913,
0.0493,0.1686753152,0.0493,73.45148913,
0.04932,0.5341056094,0.04932,73.81691942,
0.04934,-0.5621852732,0.04934,73.08605883,
0.04936,-0.9276155673,0.04936,73.81691942,
0.04938,-0.5621852732,0.04938,73.81691942,
0.0494,-1.293045862,0.0494,73.81691942,
0.04942,-0.5621852732,0.04942,73.81691942,
0.04944,-1.293045862,0.04944,73.81691942,
0.04946,-0.5621852732,0.04946,73.08605883,
0.04948,0.1686753152,0.04948,73.81691942,
0.0495,-1.658476156,0.0495,73.45148913,
0.04952,0.5341056094,0.04952,73.45148913,
0.04954,-0.9276155673,0.04954,73.81691942,
0.04956,-0.196754979,0.04956,73.45148913,
0.04958,-0.196754979,0.04958,73.08605883,
0.0496,-0.9276155673,0.0496,74.18234972,
0.04962,-1.293045862,0.04962,73.45148913,
0.04964,-0.9276155673,0.04964,73.45148913,
0.04966,0.1686753152,0.04966,74.18234972,
0.04968,-0.196754979,0.04968,73.45148913,
0.0497,-0.9276155673,0.0497,73.45148913,
0.04972,-0.5621852732,0.04972,74.18234972,
0.04974,-0.9276155673,0.04974,73.45148913,
0.04976,-0.196754979,0.04976,73.45148913,
0.04978,-0.196754979,0.04978,74.18234972,
0.0498,-0.5621852732,0.0498,73.45148913,
0.04982,1.264966198,0.04982,73.45148913,
0.04984,-1.293045862,0.04984,73.81691942,
0.04986,-0.9276155673,0.04986,73.45148913,
0.04988,0.5341056094,0.04988,73.45148913,
0.0499,0.1686753152,0.0499,74.18234972,
0.04992,0.1686753152,0.04992,73.45148913,
0.04994,0.5341056094,0.04994,73.08605883,
0.04996,-0.5621852732,0.04996,74.18234972,
0.04998,-0.196754979,0.04998,73.45148913,
0.05,-0.5621852732,0.05,73.45148913,
0.05002,0.1686753152,0.05002,74.18234972,
0.05004,-0.9276155673,0.05004,73.45148913,
0.05006,0.1686753152,0.05006,73.45148913,
0.05008,-0.5621852732,0.05008,74.18234972,
0.0501,-1.293045862,0.0501,73.45148913,
0.05012,0.1686753152,0.05012,73.08605883,
0.05014,-0.5621852732,0.05014,73.45148913,
0.05016,-0.5621852732,0.05016,73.45148913,
0.05018,-0.9276155673,0.05018,73.45148913,
0.0502,-0.5621852732,0.0502,73.81691942,
0.05022,-0.5621852732,0.05022,73.08605883,
0.05024,-0.5621852732,0.05024,73.81691942,
0.05026,-0.5621852732,0.05026,73.81691942,
0.05028,-0.196754979,0.05028,73.81691942,
0.0503,0.1686753152,0.0503,73.81691942,
0.05032,0.1686753152,0.05032,73.81691942,
0.05034,-1.293045862,0.05034,73.81691942,
0.05036,0.1686753152,0.05036,73.08605883,
0.05038,-0.9276155673,0.05038,73.81691942,
0.0504,-0.196754979,0.0504,73.45148913,
0.05042,-1.293045862,0.05042,73.45148913,
0.05044,-0.196754979,0.05044,73.45148913,
0.05046,-0.5621852732,0.05046,73.45148913,
0.05048,0.1686753152,0.05048,73.08605883,
0.0505,-1.293045862,0.0505,73.45148913,
0.05052,-0.5621852732,0.05052,73.81691942,
0.05054,-0.196754979,0.05054,73.45148913,
0.05056,-1.658476156,0.05056,73.81691942,
0.05058,-0.196754979,0.05058,73.45148913,
0.0506,-0.5621852732,0.0506,73.08605883,
0.05062,-0.196754979,0.05062,73.45148913,
0.05064,-1.658476156,0.05064,73.81691942,
0.05066,-0.9276155673,0.05066,73.08605883,
0.05068,-1.293045862,0.05068,73.81691942,
0.0507,-0.196754979,0.0507,73.45148913,
0.05072,-0.196754979,0.05072,73.08605883,
0.05074,-1.293045862,0.05074,73.81691942,
0.05076,-0.9276155673,0.05076,73.81691942,
0.05078,-0.196754979,0.05078,73.08605883,
0.0508,0.5341056094,0.0508,73.45148913,
0.05082,-1.293045862,0.05082,73.08605883,
0.05084,-0.9276155673,0.05084,73.45148913,
0.05086,0.1686753152,0.05086,73.81691942,
0.05088,-0.9276155673,0.05088,73.45148913,
0.0509,-1.293045862,0.0509,73.08605883,
0.05092,0.1686753152,0.05092,73.81691942,
0.05094,-0.9276155673,0.05094,73.81691942,
0.05096,-0.5621852732,0.05096,73.45148913,
0.05098,-0.9276155673,0.05098,73.81691942,
0.051,0.5341056094,0.051,73.45148913,
0.05102,-0.196754979,0.05102,73.81691942,
0.05104,0.1686753152,0.05104,73.81691942,
0.05106,-0.5621852732,0.05106,73.81691942,
0.05108,0.8995359035,0.05108,73.45148913,
0.0511,0.1686753152,0.0511,74.18234972,
0.05112,-0.196754979,0.05112,73.45148913,
0.05114,-0.5621852732,0.05114,73.45148913,
0.05116,-0.196754979,0.05116,73.81691942,
0.05118,-1.293045862,0.05118,73.45148913,
0.0512,-0.9276155673,0.0512,73.08605883,
0.05122,0.1686753152,0.05122,73.45148913,
0.05124,-1.658476156,0.05124,73.45148913,
0.05126,-0.9276155673,0.05126,73.45148913,
0.05128,-0.5621852732,0.05128,73.81691942,
0.0513,-0.5621852732,0.0513,72.72062854,
0.05132,0.1686753152,0.05132,73.45148913,
0.05134,-0.5621852732,0.05134,73.45148913,
0.05136,-0.196754979,0.05136,72.72062854,
0.05138,0.1686753152,0.05138,73.45148913,
0.0514,-0.196754979,0.0514,73.45148913,
0.05142,-1.658476156,0.05142,72.72062854,
0.05144,-0.196754979,0.05144,73.45148913,
0.05146,0.1686753152,0.05146,73.08605883,
0.05148,-0.9276155673,0.05148,73.08605883,
0.0515,-0.196754979,0.0515,73.45148913,
0.05152,0.1686753152,0.05152,73.81691942,
0.05154,-0.196754979,0.05154,73.08605883,
0.05156,0.5341056094,0.05156,73.45148913,
0.05158,0.1686753152,0.05158,73.45148913,
0.0516,-0.5621852732,0.0516,72.72062854,
0.05162,0.1686753152,0.05162,73.45148913,
0.05164,0.1686753152,0.05164,73.08605883,
0.05166,-0.196754979,0.05166,73.08605883,
0.05168,0.5341056094,0.05168,73.45148913,
0.0517,-0.5621852732,0.0517,73.45148913,
0.05172,-0.5621852732,0.05172,73.45148913,
0.05174,-0.196754979,0.05174,73.08605883,
0.05176,0.1686753152,0.05176,73.45148913,
0.05178,0.1686753152,0.05178,73.08605883,
0.0518,0.1686753152,0.0518,73.45148913,
0.05182,-0.5621852732,0.05182,73.81691942,
0.05184,-0.5621852732,0.05184,73.45148913,
0.05186,-0.196754979,0.05186,73.45148913,
0.05188,-0.196754979,0.05188,73.81691942,
0.0519,-0.5621852732,0.0519,72.72062854,
0.05192,-0.196754979,0.05192,73.45148913,
0.05194,0.1686753152,0.05194,73.45148913,
0.05196,-1.293045862,0.05196,73.08605883,
0.05198,-0.5621852732,0.05198,73.45148913,
0.052,0.1686753152,0.052,73.45148913,
0.05202,0.1686753152,0.05202,73.08605883,
0.05204,-0.9276155673,0.05204,73.45148913,
0.05206,-0.5621852732,0.05206,73.45148913,
0.05208,-0.196754979,0.05208,73.45148913,
0.0521,0.5341056094,0.0521,73.08605883,
0.05212,1.264966198,0.05212,73.08605883,
0.05214,-0.196754979,0.05214,73.08605883,
0.05216,-0.5621852732,0.05216,73.45148913,
0.05218,0.1686753152,0.05218,73.08605883,
0.0522,-0.5621852732,0.0522,72.72062854,
0.05222,0.5341056094,0.05222,73.08605883,
0.05224,0.5341056094,0.05224,73.08605883,
0.05226,-1.658476156,0.05226,73.08605883,
0.05228,-0.5621852732,0.05228,73.81691942,
0.0523,0.5341056094,0.0523,73.45148913,
0.05232,-1.293045862,0.05232,72.72062854,
0.05234,-0.196754979,0.05234,73.08605883,
0.05236,-0.196754979,0.05236,73.08605883,
0.05238,-0.196754979,0.05238,72.72062854,
0.0524,0.8995359035,0.0524,73.08605883,
0.05242,0.1686753152,0.05242,73.45148913,
0.05244,-0.9276155673,0.05244,72.72062854,
0.05246,-0.5621852732,0.05246,73.08605883,
0.05248,-0.196754979,0.05248,73.45148913,
0.0525,-0.5621852732,0.0525,72.72062854,
0.05252,0.5341056094,0.05252,73.08605883,
0.05254,-0.5621852732,0.05254,73.45148913,
0.05256,0.1686753152,0.05256,73.08605883,
0.05258,0.5341056094,0.05258,73.45148913,
0.0526,-0.196754979,0.0526,73.45148913,
0.05262,-2.389336744,0.05262,72.72062854,
0.05264,0.5341056094,0.05264,73.08605883,
0.05266,-0.5621852732,0.05266,73.08605883,
0.05268,-0.196754979,0.05268,73.08605883,
0.0527,-0.196754979,0.0527,73.45148913,
0.05272,-0.196754979,0.05272,73.08605883,
0.05274,-0.5621852732,0.05274,73.08605883,
0.05276,-0.9276155673,0.05276,73.45148913,
0.05278,0.1686753152,0.05278,73.81691942,
0.0528,-0.9276155673,0.0528,72.72062854,
0.05282,0.5341056094,0.05282,73.08605883,
0.05284,-0.5621852732,0.05284,73.45148913,
0.05286,-0.9276155673,0.05286,72.72062854,
0.05288,0.1686753152,0.05288,73.81691942,
0.0529,-0.5621852732,0.0529,73.45148913,
0.05292,-0.5621852732,0.05292,72.72062854,
0.05294,-0.196754979,0.05294,73.81691942,
0.05296,-0.9276155673,0.05296,73.81691942,
0.05298,0.1686753152,0.05298,72.72062854,
0.053,-0.9276155673,0.053,73.45148913,
0.05302,-0.196754979,0.05302,73.45148913,
0.05304,-0.5621852732,0.05304,73.08605883,
0.05306,0.1686753152,0.05306,73.45148913,
0.05308,-0.5621852732,0.05308,73.08605883,
0.0531,-1.293045862,0.0531,72.72062854,
0.05312,-1.293045862,0.05312,73.45148913,
0.05314,-0.196754979,0.05314,73.45148913,
0.05316,-0.196754979,0.05316,72.72062854,
0.05318,-0.196754979,0.05318,73.08605883,
0.0532,-0.196754979,0.0532,73.45148913,
0.05322,-0.196754979,0.05322,73.81691942,
0.05324,-0.5621852732,0.05324,73.45148913,
0.05326,-0.5621852732,0.05326,73.08605883,
0.05328,0.5341056094,0.05328,73.08605883,
0.0533,-0.196754979,0.0533,73.45148913,
0.05332,-0.196754979,0.05332,73.08605883,
0.05334,-0.196754979,0.05334,73.45148913,
0.05336,-0.5621852732,0.05336,73.81691942,
0.05338,-0.9276155673,0.05338,73.81691942,
0.0534,-0.5621852732,0.0534,73.81691942,
0.05342,-1.293045862,0.05342,73.45148913,
0.05344,-0.196754979,0.05344,73.81691942,
0.05346,-0.5621852732,0.05346,73.45148913,
0.05348,-0.196754979,0.05348,73.45148913,
0.0535,-0.196754979,0.0535,73.81691942,
0.05352,-0.196754979,0.05352,73.45148913,
0.05354,-0.196754979,0.05354,73.45148913,
0.05356,-0.196754979,0.05356,73.45148913,
0.05358,0.1686753152,0.05358,73.81691942,
0.0536,-0.5621852732,0.0536,73.08605883,
0.05362,0.1686753152,0.05362,74.54778001,
0.05364,-0.196754979,0.05364,73.08605883,
0.05366,0.5341056094,0.05366,73.45148913,
0.05368,0.1686753152,0.05368,74.18234972,
0.0537,-1.658476156,0.0537,73.81691942,
0.05372,0.1686753152,0.05372,73.08605883,
0.05374,-0.5621852732,0.05374,73.81691942,
0.05376,-0.9276155673,0.05376,73.81691942,
0.05378,0.5341056094,0.05378,73.08605883,
0.0538,0.5341056094,0.0538,73.81691942,
0.05382,-2.02390645,0.05382,73.81691942,
0.05384,-0.5621852732,0.05384,73.45148913,
0.05386,-1.658476156,0.05386,73.81691942,
0.05388,-0.9276155673,0.05388,73.81691942,
0.0539,0.1686753152,0.0539,73.45148913,
0.05392,-0.5621852732,0.05392,73.45148913,
0.05394,-0.9276155673,0.05394,74.18234972,
0.05396,-0.196754979,0.05396,73.08605883,
0.05398,-1.293045862,0.05398,74.18234972,
0.054,-0.5621852732,0.054,73.45148913,
0.05402,-0.196754979,0.05402,73.45148913,
0.05404,-0.5621852732,0.05404,73.81691942,
0.05406,-0.5621852732,0.05406,73.45148913,
0.05408,1.264966198,0.05408,73.45148913,
0.0541,-0.9276155673,0.0541,74.18234972,
0.05412,-1.293045862,0.05412,73.45148913,
0.05414,0.5341056094,0.05414,73.45148913,
0.05416,0.5341056094,0.05416,73.45148913,
0.05418,-0.5621852732,0.05418,72.72062854,
0.0542,0.5341056094,0.0542,73.45148913,
0.05422,-0.9276155673,0.05422,73.45148913,
0.05424,-1.293045862,0.05424,73.08605883,
0.05426,-0.5621852732,0.05426,73.08605883,
0.05428,-1.293045862,0.05428,73.08605883,
0.0543,0.1686753152,0.0543,73.08605883,
0.05432,0.5341056094,0.05432,73.08605883,
0.05434,-0.5621852732,0.05434,73.45148913,
0.05436,-0.196754979,0.05436,72.72062854,
0.05438,0.1686753152,0.05438,73.45148913,
0.0544,0.5341056094,0.0544,73.08605883,
0.05442,-0.9276155673,0.05442,73.08605883,
0.05444,-0.9276155673,0.05444,73.45148913,
0.05446,-0.5621852732,0.05446,73.45148913,
0.05448,-0.9276155673,0.05448,73.08605883,
0.0545,0.5341056094,0.0545,73.45148913,
0.05452,-0.9276155673,0.05452,73.45148913,
0.05454,-0.5621852732,0.05454,73.45148913,
0.05456,-0.196754979,0.05456,73.45148913,
0.05458,0.1686753152,0.05458,73.08605883,
0.0546,-0.196754979,0.0546,73.08605883,
0.05462,-0.5621852732,0.05462,73.08605883,
0.05464,-0.9276155673,0.05464,73.08605883,
0.05466,-1.293045862,0.05466,73.45148913,
0.05468,-0.5621852732,0.05468,73.45148913,
0.0547,-0.5621852732,0.0547,73.08605883,
0.05472,-0.196754979,0.05472,73.08605883,
0.05474,0.5341056094,0.05474,73.45148913,
0.05476,-0.5621852732,0.05476,73.45148913,
0.05478,-0.9276155673,0.05478,73.08605883,
0.0548,0.5341056094,0.0548,73.08605883,
0.05482,0.8995359035,0.05482,73.45148913,
0.05484,-1.293045862,0.05484,72.72062854,
0.05486,0.5341056094,0.05486,73.45148913,
0.05488,-0.9276155673,0.05488,73.45148913,
0.0549,-1.293045862,0.0549,73.08605883,
0.05492,-0.196754979,0.05492,73.45148913,
0.05494,-0.5621852732,0.05494,73.81691942,
0.05496,-0.5621852732,0.05496,72.72062854,
0.05498,0.5341056094,0.05498,73.08605883,
0.055,-0.9276155673,0.055,73.45148913,
0.05502,-0.5621852732,0.05502,73.08605883,
0.05504,0.1686753152,0.05504,73.45148913,
0.05506,0.1686753152,0.05506,73.45148913,
0.05508,1.264966198,0.05508,73.08605883,
0.0551,-0.196754979,0.0551,73.45148913,
0.05512,-0.196754979,0.05512,73.45148913,
0.05514,-0.5621852732,0.05514,73.08605883,
0.05516,0.5341056094,0.05516,73.81691942,
0.05518,-0.9276155673,0.05518,73.45148913,
0.0552,-0.5621852732,0.0552,73.45148913,
0.05522,0.1686753152,0.05522,73.45148913,
0.05524,-0.196754979,0.05524,73.81691942,
0.05526,-0.196754979,0.05526,73.08605883,
0.05528,-0.196754979,0.05528,73.81691942,
0.0553,0.8995359035,0.0553,73.08605883,
0.05532,-0.196754979,0.05532,73.08605883,
0.05534,-1.293045862,0.05534,73.45148913,
0.05536,-0.196754979,0.05536,73.45148913,
0.05538,-0.196754979,0.05538,73.08605883,
0.0554,0.1686753152,0.0554,73.08605883,
0.05542,0.1686753152,0.05542,73.81691942,
0.05544,-0.5621852732,0.05544,72.72062854,
0.05546,-0.196754979,0.05546,73.45148913,
0.05548,-0.5621852732,0.05548,73.45148913,
0.0555,-1.293045862,0.0555,72.72062854,
0.05552,0.8995359035,0.05552,73.81691942,
0.05554,0.1686753152,0.05554,73.45148913,
0.05556,-0.9276155673,0.05556,72.35519825,
0.05558,1.264966198,0.05558,73.45148913,
0.0556,0.1686753152,0.0556,73.45148913,
0.05562,-0.5621852732,0.05562,72.72062854,
0.05564,0.8995359035,0.05564,73.45148913,
0.05566,0.1686753152,0.05566,73.45148913,
0.05568,0.5341056094,0.05568,72.35519825,
0.0557,0.5341056094,0.0557,73.08605883,
0.05572,0.5341056094,0.05572,73.08605883,
0.05574,0.1686753152,0.05574,72.35519825,
0.05576,0.1686753152,0.05576,73.81691942,
0.05578,-0.5621852732,0.05578,73.81691942,
0.0558,-0.5621852732,0.0558,72.72062854,
0.05582,-0.196754979,0.05582,73.45148913,
0.05584,0.5341056094,0.05584,73.81691942,
0.05586,-0.196754979,0.05586,73.08605883,
0.05588,0.1686753152,0.05588,73.81691942,
0.0559,0.1686753152,0.0559,73.81691942,
0.05592,-1.293045862,0.05592,73.08605883,
0.05594,-0.196754979,0.05594,73.08605883,
0.05596,0.1686753152,0.05596,73.08605883,
0.05598,-0.196754979,0.05598,72.35519825,
0.056,-0.196754979,0.056,73.45148913,
0.05602,-0.196754979,0.05602,73.08605883,
0.05604,-0.5621852732,0.05604,73.08605883,
0.05606,0.1686753152,0.05606,73.45148913,
0.05608,-1.293045862,0.05608,73.45148913,
0.0561,-0.5621852732,0.0561,73.08605883,
0.05612,0.1686753152,0.05612,73.45148913,
0.05614,-0.196754979,0.05614,73.45148913,
0.05616,-0.196754979,0.05616,73.08605883,
0.05618,-0.196754979,0.05618,73.81691942,
0.0562,-0.9276155673,0.0562,73.45148913,
0.05622,0.1686753152,0.05622,73.08605883,
0.05624,-0.5621852732,0.05624,73.45148913,
0.05626,-0.9276155673,0.05626,73.08605883,
0.05628,-0.196754979,0.05628,73.08605883,
0.0563,-0.5621852732,0.0563,73.81691942,
0.05632,0.1686753152,0.05632,73.08605883,
0.05634,0.1686753152,0.05634,73.08605883,
0.05636,0.5341056094,0.05636,73.81691942,
0.05638,0.1686753152,0.05638,73.81691942,
0.0564,-0.9276155673,0.0564,73.08605883,
0.05642,-0.196754979,0.05642,73.81691942,
0.05644,-0.5621852732,0.05644,73.45148913,
0.05646,-1.658476156,0.05646,73.08605883,
0.05648,-0.5621852732,0.05648,73.81691942,
0.0565,-0.196754979,0.0565,73.08605883,
0.05652,-1.658476156,0.05652,73.08605883,
0.05654,-0.5621852732,0.05654,73.81691942,
0.05656,0.5341056094,0.05656,73.45148913,
0.05658,0.5341056094,0.05658,73.08605883,
0.0566,-0.5621852732,0.0566,73.81691942,
0.05662,-1.293045862,0.05662,73.45148913,
0.05664,-1.293045862,0.05664,73.08605883,
0.05666,-0.196754979,0.05666,73.81691942,
0.05668,0.1686753152,0.05668,73.08605883,
0.0567,-0.5621852732,0.0567,73.08605883,
0.05672,-0.5621852732,0.05672,73.81691942,
0.05674,-1.658476156,0.05674,73.45148913,
0.05676,-0.9276155673,0.05676,73.45148913,
0.05678,0.5341056094,0.05678,73.81691942,
0.0568,-0.9276155673,0.0568,73.45148913,
0.05682,0.1686753152,0.05682,73.08605883,
0.05684,-0.5621852732,0.05684,73.81691942,
0.05686,-2.02390645,0.05686,73.08605883,
0.05688,-0.9276155673,0.05688,73.08605883,
0.0569,0.1686753152,0.0569,73.45148913,
0.05692,-0.196754979,0.05692,73.45148913,
0.05694,-1.293045862,0.05694,73.45148913,
0.05696,0.5341056094,0.05696,73.81691942,
0.05698,-0.5621852732,0.05698,73.45148913,
0.057,-0.9276155673,0.057,73.08605883,
0.05702,-0.196754979,0.05702,73.81691942,
0.05704,-0.9276155673,0.05704,73.45148913,
0.05706,-0.196754979,0.05706,73.08605883,
0.05708,-0.196754979,0.05708,73.81691942,
0.0571,-0.9276155673,0.0571,73.08605883,
0.05712,-0.5621852732,0.05712,73.08605883,
0.05714,-0.5621852732,0.05714,73.81691942,
0.05716,-0.9276155673,0.05716,73.45148913,
0.05718,-0.9276155673,0.05718,73.08605883,
0.0572,-0.9276155673,0.0572,73.81691942,
0.05722,-1.293045862,0.05722,73.81691942,
0.05724,-0.196754979,0.05724,72.72062854,
0.05726,-0.196754979,0.05726,73.81691942,
0.05728,-0.9276155673,0.05728,73.45148913,
0.0573,-0.9276155673,0.0573,73.45148913,
0.05732,-0.9276155673,0.05732,74.18234972,
0.05734,-0.196754979,0.05734,73.45148913,
0.05736,-1.293045862,0.05736,73.45148913,
0.05738,-0.9276155673,0.05738,73.81691942,
0.0574,-1.293045862,0.0574,73.45148913,
0.05742,-0.196754979,0.05742,72.72062854,
0.05744,-0.5621852732,0.05744,73.81691942,
