"A0_accX_x","A0_accX_y","A1_rmsX_x","A1_rmsX_y"
0,0.4949022474,0,71.62433766,
2e-05,0.4949022474,2e-05,71.62433766,
4e-05,1.225762836,4e-05,71.62433766,
6e-05,0.1294719532,6e-05,71.25890736,
8e-05,0.8603325416,8e-05,71.98976795,
0.0001,1.225762836,0.0001,71.25890736,
0.00012,0.8603325416,0.00012,71.25890736,
0.00014,0.1294719532,0.00014,71.98976795,
0.00016,0.8603325416,0.00016,71.62433766,
0.00018,1.225762836,0.00018,71.25890736,
0.0002,1.225762836,0.0002,71.98976795,
0.00022,1.225762836,0.00022,71.25890736,
0.00024,1.956623424,0.00024,71.25890736,
0.00026,0.8603325416,0.00026,71.62433766,
0.00028,2.322053718,0.00028,71.25890736,
0.0003,1.225762836,0.0003,70.89347707,
0.00032,0.1294719532,0.00032,72.35519825,
0.00034,-1.332249223,0.00034,71.25890736,
0.00036,-0.6013886351,0.00036,71.25890736,
0.00038,-0.2359583409,0.00038,71.62433766,
0.0004,-0.9668189293,0.0004,71.62433766,
0.00042,-0.2359583409,0.00042,71.62433766,
0.00044,0.4949022474,0.00044,71.62433766,
0.00046,1.59119313,0.00046,71.62433766,
0.00048,-0.2359583409,0.00048,71.62433766,
0.0005,0.8603325416,0.0005,70.52804678,
0.00052,0.4949022474,0.00052,71.98976795,
0.00054,-1.332249223,0.00054,71.25890736,
0.00056,-2.7939704,0.00056,70.16261648,
0.00058,-1.697679518,0.00058,72.72062854,
0.0006,-0.6013886351,0.0006,70.89347707,
0.00062,-2.7939704,0.00062,70.89347707,
0.00064,-0.9668189293,0.00064,71.98976795,
0.00066,-0.2359583409,0.00066,71.62433766,
0.00068,0.4949022474,0.00068,71.25890736,
0.0007,0.1294719532,0.0007,71.62433766,
0.00072,0.4949022474,0.00072,71.62433766,
0.00074,0.4949022474,0.00074,71.25890736,
0.00076,0.8603325416,0.00076,71.25890736,
0.00078,-1.697679518,0.00078,71.25890736,
0.0008,-1.697679518,0.0008,70.89347707,
0.00082,0.1294719532,0.00082,71.25890736,
0.00084,0.1294719532,0.00084,71.25890736,
0.00086,0.8603325416,0.00086,70.89347707,
0.00088,-0.6013886351,0.00088,71.25890736,
0.0009,0.8603325416,0.0009,71.25890736,
0.00092,1.59119313,0.00092,70.89347707,
0.00094,1.956623424,0.00094,71.25890736,
0.00096,2.322053718,0.00096,71.25890736,
0.00098,1.59119313,0.00098,70.89347707,
0.001,1.225762836,0.001,71.25890736,
0.00102,0.8603325416,0.00102,71.25890736,
0.00104,0.4949022474,0.00104,71.62433766,
0.00106,1.225762836,0.00106,70.89347707,
0.00108,0.8603325416,0.00108,71.62433766,
0.0011,-0.2359583409,0.0011,71.25890736,
0.00112,0.8603325416,0.00112,71.62433766,
0.00114,0.4949022474,0.00114,71.62433766,
0.00116,1.225762836,0.00116,71.62433766,
0.00118,2.687484012,0.00118,71.62433766,
0.0012,2.322053718,0.0012,71.25890736,
0.00122,1.59119313,0.00122,71.98976795,
0.00124,1.225762836,0.00124,71.25890736,
0.00126,1.225762836,0.00126,71.62433766,
0.00128,1.225762836,0.00128,71.25890736,
0.0013,0.8603325416,0.0013,71.62433766,
0.00132,-0.6013886351,0.00132,71.62433766,
0.00134,0.4949022474,0.00134,72.35519825,
0.00136,0.4949022474,0.00136,71.62433766,
0.00138,0.4949022474,0.00138,71.25890736,
0.0014,1.225762836,0.0014,71.25890736,
0.00142,0.8603325416,0.00142,71.62433766,
0.00144,1.956623424,0.00144,71.25890736,
0.00146,0.8603325416,0.00146,71.98976795,
0.00148,1.956623424,0.00148,70.52804678,
0.0015,-0.6013886351,0.0015,70.52804678,
0.00152,-0.6013886351,0.00152,72.72062854,
0.00154,-2.063109812,0.00154,71.98976795,
0.00156,0.8603325416,0.00156,71.98976795,
0.00158,-3.524830988,0.00158,72.72062854,
0.0016,-3.159400694,0.0016,70.89347707,
0.00162,-0.6013886351,0.00162,71.25890736,
0.00164,-0.6013886351,0.00164,71.98976795,
0.00166,-0.2359583409,0.00166,70.89347707,
0.00168,0.8603325416,0.00168,71.25890736,
0.0017,0.1294719532,0.0017,71.62433766,
0.00172,-0.6013886351,0.00172,71.62433766,
0.00174,-0.2359583409,0.00174,71.25890736,
0.00176,0.1294719532,0.00176,71.62433766,
0.00178,-1.697679518,0.00178,71.25890736,
0.0018,-0.6013886351,0.0018,71.25890736,
0.00182,-0.2359583409,0.00182,71.62433766,
0.00184,0.4949022474,0.00184,71.62433766,
0.00186,0.8603325416,0.00186,71.25890736,
0.00188,0.1294719532,0.00188,71.98976795,
0.0019,0.4949022474,0.0019,71.25890736,
0.00192,1.225762836,0.00192,71.25890736,
0.00194,0.8603325416,0.00194,71.62433766,
0.00196,0.8603325416,0.00196,71.25890736,
0.00198,0.4949022474,0.00198,71.62433766,
0.002,1.225762836,0.002,71.98976795,
0.00202,0.4949022474,0.00202,71.25890736,
0.00204,1.59119313,0.00204,71.62433766,
0.00206,1.225762836,0.00206,71.98976795,
0.00208,0.8603325416,0.00208,71.62433766,
0.0021,1.225762836,0.0021,71.25890736,
0.00212,0.4949022474,0.00212,71.62433766,
0.00214,0.8603325416,0.00214,71.25890736,
0.00216,-0.2359583409,0.00216,70.89347707,
0.00218,1.59119313,0.00218,71.98976795,
0.0022,1.956623424,0.0022,71.25890736,
0.00222,0.8603325416,0.00222,71.25890736,
0.00224,1.225762836,0.00224,71.62433766,
0.00226,-0.6013886351,0.00226,71.25890736,
0.00228,0.8603325416,0.00228,71.62433766,
0.0023,-0.9668189293,0.0023,71.98976795,
0.00232,-2.063109812,0.00232,71.62433766,
0.00234,0.1294719532,0.00234,71.25890736,
0.00236,0.4949022474,0.00236,71.62433766,
0.00238,-0.2359583409,0.00238,70.89347707,
0.0024,-0.2359583409,0.0024,71.25890736,
0.00242,0.8603325416,0.00242,71.62433766,
0.00244,-2.063109812,0.00244,71.25890736,
0.00246,0.4949022474,0.00246,71.25890736,
0.00248,-2.7939704,0.00248,71.25890736,
0.0025,-1.697679518,0.0025,71.62433766,
0.00252,-1.332249223,0.00252,70.16261648,
0.00254,-2.428540106,0.00254,72.35519825,
0.00256,-3.524830988,0.00256,71.62433766,
0.00258,-1.332249223,0.00258,70.52804678,
0.0026,-2.428540106,0.0026,70.89347707,
0.00262,-0.2359583409,0.00262,71.25890736,
0.00264,0.8603325416,0.00264,71.25890736,
0.00266,-0.6013886351,0.00266,71.62433766,
0.00268,0.1294719532,0.00268,71.98976795,
0.0027,-0.2359583409,0.0027,70.89347707,
0.00272,-0.9668189293,0.00272,71.62433766,
0.00274,-0.9668189293,0.00274,71.98976795,
0.00276,-0.2359583409,0.00276,71.25890736,
0.00278,-1.697679518,0.00278,71.62433766,
0.0028,-0.2359583409,0.0028,71.25890736,
0.00282,-0.9668189293,0.00282,71.25890736,
0.00284,0.1294719532,0.00284,71.98976795,
0.00286,-0.9668189293,0.00286,71.62433766,
0.00288,1.225762836,0.00288,71.25890736,
0.0029,0.8603325416,0.0029,71.62433766,
0.00292,0.4949022474,0.00292,71.25890736,
0.00294,0.4949022474,0.00294,70.89347707,
0.00296,1.225762836,0.00296,71.62433766,
0.00298,0.1294719532,0.00298,71.62433766,
0.003,0.4949022474,0.003,71.62433766,
0.00302,1.225762836,0.00302,71.62433766,
0.00304,-0.2359583409,0.00304,71.25890736,
0.00306,0.1294719532,0.00306,71.62433766,
0.00308,0.1294719532,0.00308,71.62433766,
0.0031,0.4949022474,0.0031,71.62433766,
0.00312,1.956623424,0.00312,71.25890736,
0.00314,1.225762836,0.00314,71.62433766,
0.00316,1.956623424,0.00316,71.62433766,
0.00318,2.687484012,0.00318,71.62433766,
0.0032,1.225762836,0.0032,71.62433766,
0.00322,1.59119313,0.00322,71.25890736,
0.00324,0.8603325416,0.00324,71.25890736,
0.00326,0.8603325416,0.00326,71.62433766,
0.00328,-1.332249223,0.00328,71.98976795,
0.0033,-0.2359583409,0.0033,70.89347707,
0.00332,-0.9668189293,0.00332,71.25890736,
0.00334,-0.2359583409,0.00334,70.89347707,
0.00336,0.1294719532,0.00336,71.25890736,
0.00338,0.1294719532,0.00338,71.62433766,
0.0034,1.956623424,0.0034,70.89347707,
0.00342,0.4949022474,0.00342,70.52804678,
0.00344,0.4949022474,0.00344,71.25890736,
0.00346,0.8603325416,0.00346,70.89347707,
0.00348,-0.6013886351,0.00348,70.16261648,
0.0035,-2.7939704,0.0035,70.89347707,
0.00352,-0.6013886351,0.00352,69.79718619,
0.00354,-0.6013886351,0.00354,71.25890736,
0.00356,-0.2359583409,0.00356,70.52804678,
0.00358,-2.428540106,0.00358,70.89347707,
0.0036,0.1294719532,0.0036,71.62433766,
0.00362,-0.9668189293,0.00362,71.62433766,
0.00364,-0.2359583409,0.00364,70.52804678,
0.00366,-0.2359583409,0.00366,71.62433766,
0.00368,-0.6013886351,0.00368,71.62433766,
0.0037,-1.332249223,0.0037,70.89347707,
0.00372,-0.6013886351,0.00372,71.62433766,
0.00374,-1.332249223,0.00374,71.25890736,
0.00376,-0.6013886351,0.00376,71.25890736,
0.00378,-0.2359583409,0.00378,71.25890736,
0.0038,0.1294719532,0.0038,71.62433766,
0.00382,-0.9668189293,0.00382,70.89347707,
0.00384,1.225762836,0.00384,71.62433766,
0.00386,1.59119313,0.00386,71.25890736,
0.00388,0.8603325416,0.00388,70.52804678,
0.0039,1.59119313,0.0039,71.25890736,
0.00392,0.4949022474,0.00392,71.62433766,
0.00394,0.4949022474,0.00394,70.89347707,
0.00396,-0.2359583409,0.00396,71.25890736,
0.00398,-0.2359583409,0.00398,70.89347707,
0.004,-0.2359583409,0.004,70.52804678,
0.00402,1.59119313,0.00402,71.62433766,
0.00404,2.322053718,0.00404,71.62433766,
0.00406,0.4949022474,0.00406,71.62433766,
0.00408,2.322053718,0.00408,70.89347707,
0.0041,1.59119313,0.0041,71.25890736,
0.00412,1.225762836,0.00412,71.25890736,
0.00414,2.322053718,0.00414,71.62433766,
0.00416,2.687484012,0.00416,71.25890736,
0.00418,1.225762836,0.00418,70.89347707,
0.0042,0.8603325416,0.0042,71.25890736,
0.00422,2.322053718,0.00422,71.25890736,
0.00424,0.8603325416,0.00424,70.89347707,
0.00426,-0.6013886351,0.00426,71.25890736,
0.00428,-0.6013886351,0.00428,70.89347707,
0.0043,-0.2359583409,0.0043,70.52804678,
0.00432,-0.2359583409,0.00432,71.25890736,
0.00434,0.1294719532,0.00434,71.62433766,
0.00436,-0.2359583409,0.00436,70.52804678,
0.00438,-0.2359583409,0.00438,71.25890736,
0.0044,1.225762836,0.0044,71.62433766,
0.00442,-2.7939704,0.00442,71.25890736,
0.00444,-0.6013886351,0.00444,71.25890736,
0.00446,0.4949022474,0.00446,71.62433766,
0.00448,-0.2359583409,0.00448,70.89347707,
0.0045,-1.332249223,0.0045,71.98976795,
0.00452,-3.159400694,0.00452,71.25890736,
0.00454,-2.7939704,0.00454,71.98976795,
0.00456,-1.332249223,0.00456,70.52804678,
0.00458,-0.6013886351,0.00458,71.62433766,
0.0046,-0.6013886351,0.0046,70.16261648,
0.00462,-1.332249223,0.00462,71.62433766,
0.00464,-0.6013886351,0.00464,70.89347707,
0.00466,-1.332249223,0.00466,70.52804678,
0.00468,0.4949022474,0.00468,71.25890736,
0.0047,-0.2359583409,0.0047,71.25890736,
0.00472,-1.332249223,0.00472,70.89347707,
0.00474,-0.2359583409,0.00474,71.25890736,
0.00476,-0.6013886351,0.00476,71.25890736,
0.00478,-0.6013886351,0.00478,71.25890736,
0.0048,0.1294719532,0.0048,71.62433766,
0.00482,0.1294719532,0.00482,71.62433766,
0.00484,1.956623424,0.00484,70.89347707,
0.00486,1.59119313,0.00486,71.25890736,
0.00488,1.956623424,0.00488,71.25890736,
0.0049,1.59119313,0.0049,70.89347707,
0.00492,1.225762836,0.00492,71.25890736,
0.00494,0.1294719532,0.00494,71.25890736,
0.00496,-0.2359583409,0.00496,70.89347707,
0.00498,0.4949022474,0.00498,70.89347707,
0.005,0.8603325416,0.005,71.62433766,
0.00502,-1.332249223,0.00502,70.52804678,
0.00504,0.8603325416,0.00504,71.25890736,
0.00506,1.59119313,0.00506,71.25890736,
0.00508,1.59119313,0.00508,70.89347707,
0.0051,1.59119313,0.0051,71.25890736,
0.00512,1.225762836,0.00512,71.25890736,
0.00514,1.225762836,0.00514,70.89347707,
0.00516,2.322053718,0.00516,71.62433766,
0.00518,-0.2359583409,0.00518,71.62433766,
0.0052,1.59119313,0.0052,70.89347707,
0.00522,0.8603325416,0.00522,71.25890736,
0.00524,-1.697679518,0.00524,71.25890736,
0.00526,0.8603325416,0.00526,71.62433766,
0.00528,-0.2359583409,0.00528,71.25890736,
0.0053,1.59119313,0.0053,71.25890736,
0.00532,2.322053718,0.00532,71.62433766,
0.00534,-1.697679518,0.00534,70.52804678,
0.00536,1.225762836,0.00536,71.62433766,
0.00538,0.4949022474,0.00538,71.62433766,
0.0054,0.4949022474,0.0054,71.25890736,
0.00542,-0.6013886351,0.00542,70.89347707,
0.00544,0.8603325416,0.00544,72.72062854,
0.00546,-4.621121871,0.00546,70.52804678,
0.00548,-1.332249223,0.00548,70.89347707,
0.0055,1.225762836,0.0055,71.98976795,
0.00552,-3.159400694,0.00552,71.98976795,
0.00554,-1.697679518,0.00554,71.25890736,
0.00556,-0.2359583409,0.00556,71.25890736,
0.00558,-0.2359583409,0.00558,71.62433766,
0.0056,-0.6013886351,0.0056,71.62433766,
0.00562,-0.2359583409,0.00562,71.62433766,
0.00564,-0.9668189293,0.00564,71.62433766,
0.00566,-0.2359583409,0.00566,70.89347707,
0.00568,-0.9668189293,0.00568,71.62433766,
0.0057,-1.697679518,0.0057,71.25890736,
0.00572,-0.9668189293,0.00572,71.25890736,
0.00574,-0.9668189293,0.00574,71.98976795,
0.00576,-1.332249223,0.00576,71.25890736,
0.00578,0.1294719532,0.00578,70.89347707,
0.0058,1.59119313,0.0058,71.62433766,
0.00582,0.4949022474,0.00582,70.89347707,
0.00584,0.4949022474,0.00584,71.25890736,
0.00586,0.8603325416,0.00586,71.62433766,
0.00588,1.225762836,0.00588,71.25890736,
0.0059,-0.6013886351,0.0059,71.25890736,
0.00592,0.8603325416,0.00592,71.62433766,
0.00594,0.1294719532,0.00594,71.62433766,
0.00596,0.8603325416,0.00596,70.89347707,
0.00598,1.225762836,0.00598,71.62433766,
0.006,0.8603325416,0.006,71.25890736,
0.00602,0.1294719532,0.00602,70.89347707,
0.00604,1.225762836,0.00604,71.62433766,
0.00606,0.4949022474,0.00606,71.25890736,
0.00608,1.225762836,0.00608,71.62433766,
0.0061,1.956623424,0.0061,71.62433766,
0.00612,2.322053718,0.00612,71.62433766,
0.00614,2.322053718,0.00614,71.62433766,
0.00616,0.4949022474,0.00616,71.62433766,
0.00618,1.59119313,0.00618,71.62433766,
0.0062,-0.2359583409,0.0062,71.98976795,
0.00622,0.4949022474,0.00622,71.25890736,
0.00624,0.1294719532,0.00624,71.98976795,
0.00626,-0.2359583409,0.00626,71.25890736,
0.00628,0.8603325416,0.00628,71.62433766,
0.0063,0.1294719532,0.0063,71.62433766,
0.00632,1.956623424,0.00632,71.62433766,
0.00634,-0.2359583409,0.00634,71.25890736,
0.00636,0.8603325416,0.00636,71.25890736,
0.00638,-1.332249223,0.00638,71.25890736,
0.0064,-0.9668189293,0.0064,70.16261648,
0.00642,-4.621121871,0.00642,72.72062854,
0.00644,-0.9668189293,0.00644,72.35519825,
0.00646,-1.697679518,0.00646,70.52804678,
0.00648,-3.890261283,0.00648,72.72062854,
0.0065,-1.697679518,0.0065,71.62433766,
0.00652,-2.063109812,0.00652,71.98976795,
0.00654,-1.697679518,0.00654,71.62433766,
0.00656,0.4949022474,0.00656,71.62433766,
0.00658,0.8603325416,0.00658,70.89347707,
0.0066,-0.6013886351,0.0066,71.25890736,
0.00662,-0.2359583409,0.00662,71.25890736,
0.00664,-0.9668189293,0.00664,71.25890736,
0.00666,-2.428540106,0.00666,71.25890736,
0.00668,-0.6013886351,0.00668,71.62433766,
0.0067,-0.2359583409,0.0067,71.62433766,
0.00672,-0.6013886351,0.00672,71.25890736,
0.00674,0.4949022474,0.00674,71.25890736,
0.00676,0.1294719532,0.00676,71.62433766,
0.00678,0.4949022474,0.00678,71.25890736,
0.0068,0.4949022474,0.0068,70.89347707,
0.00682,0.4949022474,0.00682,71.98976795,
0.00684,-0.6013886351,0.00684,71.25890736,
0.00686,0.4949022474,0.00686,71.25890736,
0.00688,1.225762836,0.00688,71.62433766,
0.0069,0.1294719532,0.0069,71.62433766,
0.00692,1.59119313,0.00692,71.62433766,
0.00694,0.4949022474,0.00694,71.62433766,
0.00696,0.8603325416,0.00696,71.25890736,
0.00698,0.8603325416,0.00698,71.25890736,
0.007,0.4949022474,0.007,71.98976795,
0.00702,1.225762836,0.00702,71.25890736,
0.00704,1.59119313,0.00704,71.62433766,
0.00706,0.8603325416,0.00706,71.98976795,
0.00708,1.59119313,0.00708,71.25890736,
0.0071,1.956623424,0.0071,71.25890736,
0.00712,1.59119313,0.00712,71.62433766,
0.00714,0.4949022474,0.00714,71.25890736,
0.00716,-0.2359583409,0.00716,71.62433766,
0.00718,0.1294719532,0.00718,71.62433766,
0.0072,0.1294719532,0.0072,71.98976795,
0.00722,-0.6013886351,0.00722,71.25890736,
0.00724,1.59119313,0.00724,71.25890736,
0.00726,0.1294719532,0.00726,71.25890736,
0.00728,1.225762836,0.00728,70.89347707,
0.0073,0.4949022474,0.0073,70.89347707,
0.00732,0.1294719532,0.00732,71.62433766,
0.00734,-0.2359583409,0.00734,71.25890736,
0.00736,2.687484012,0.00736,71.25890736,
0.00738,-2.063109812,0.00738,70.89347707,
0.0074,-1.332249223,0.0074,71.62433766,
0.00742,0.4949022474,0.00742,71.98976795,
0.00744,0.8603325416,0.00744,72.35519825,
0.00746,1.225762836,0.00746,71.62433766,
0.00748,-2.063109812,0.00748,71.25890736,
0.0075,-0.6013886351,0.0075,71.25890736,
0.00752,0.1294719532,0.00752,71.25890736,
0.00754,-0.6013886351,0.00754,71.62433766,
0.00756,0.1294719532,0.00756,71.25890736,
0.00758,-1.332249223,0.00758,71.62433766,
0.0076,0.1294719532,0.0076,71.62433766,
0.00762,-0.9668189293,0.00762,71.62433766,
0.00764,-0.6013886351,0.00764,71.62433766,
0.00766,-0.9668189293,0.00766,71.62433766,
0.00768,-0.6013886351,0.00768,71.62433766,
0.0077,0.1294719532,0.0077,71.25890736,
0.00772,0.1294719532,0.00772,71.25890736,
0.00774,0.1294719532,0.00774,71.62433766,
0.00776,0.8603325416,0.00776,71.62433766,
0.00778,0.4949022474,0.00778,71.62433766,
0.0078,1.956623424,0.0078,71.25890736,
0.00782,1.59119313,0.00782,71.62433766,
0.00784,1.225762836,0.00784,71.25890736,
0.00786,2.687484012,0.00786,71.25890736,
0.00788,1.956623424,0.00788,71.62433766,
0.0079,0.4949022474,0.0079,71.25890736,
0.00792,0.8603325416,0.00792,71.98976795,
0.00794,0.8603325416,0.00794,71.25890736,
0.00796,0.4949022474,0.00796,71.62433766,
0.00798,0.8603325416,0.00798,71.62433766,
0.008,0.1294719532,0.008,71.25890736,
0.00802,1.956623424,0.00802,71.62433766,
0.00804,1.956623424,0.00804,71.25890736,
0.00806,2.687484012,0.00806,71.62433766,
0.00808,1.956623424,0.00808,71.25890736,
0.0081,2.322053718,0.0081,71.25890736,
0.00812,0.1294719532,0.00812,71.25890736,
0.00814,1.956623424,0.00814,71.98976795,
0.00816,-1.332249223,0.00816,71.25890736,
0.00818,-1.332249223,0.00818,70.89347707,
0.0082,-0.2359583409,0.0082,71.62433766,
0.00822,-0.9668189293,0.00822,71.62433766,
0.00824,-0.9668189293,0.00824,71.25890736,
0.00826,-0.2359583409,0.00826,71.98976795,
0.00828,0.1294719532,0.00828,70.52804678,
0.0083,0.1294719532,0.0083,70.89347707,
0.00832,-0.6013886351,0.00832,72.35519825,
0.00834,-0.6013886351,0.00834,70.16261648,
0.00836,-2.063109812,0.00836,69.79718619,
0.00838,-0.2359583409,0.00838,71.98976795,
0.0084,1.225762836,0.0084,70.89347707,
0.00842,-1.697679518,0.00842,70.52804678,
0.00844,-1.697679518,0.00844,71.25890736,
0.00846,-1.697679518,0.00846,71.25890736,
0.00848,-0.2359583409,0.00848,71.25890736,
0.0085,-1.332249223,0.0085,71.98976795,
0.00852,-2.428540106,0.00852,71.25890736,
0.00854,-0.6013886351,0.00854,71.62433766,
0.00856,-0.9668189293,0.00856,71.62433766,
0.00858,-1.697679518,0.00858,70.89347707,
0.0086,-0.9668189293,0.0086,70.89347707,
0.00862,-0.9668189293,0.00862,71.62433766,
0.00864,-1.697679518,0.00864,71.25890736,
0.00866,-1.332249223,0.00866,71.25890736,
0.00868,-0.6013886351,0.00868,71.62433766,
0.0087,-0.6013886351,0.0087,71.25890736,
0.00872,0.1294719532,0.00872,71.25890736,
0.00874,0.4949022474,0.00874,71.25890736,
0.00876,0.8603325416,0.00876,71.25890736,
0.00878,-0.9668189293,0.00878,71.25890736,
0.0088,0.4949022474,0.0088,72.35519825,
0.00882,0.4949022474,0.00882,71.25890736,
0.00884,0.8603325416,0.00884,71.25890736,
0.00886,0.1294719532,0.00886,71.62433766,
0.00888,-0.2359583409,0.00888,71.25890736,
0.0089,0.1294719532,0.0089,71.25890736,
0.00892,1.225762836,0.00892,71.62433766,
0.00894,-0.6013886351,0.00894,71.25890736,
0.00896,0.1294719532,0.00896,71.25890736,
0.00898,1.59119313,0.00898,71.62433766,
0.009,1.225762836,0.009,71.62433766,
0.00902,0.8603325416,0.00902,71.25890736,
0.00904,1.225762836,0.00904,71.62433766,
0.00906,0.1294719532,0.00906,71.62433766,
0.00908,0.1294719532,0.00908,71.25890736,
0.0091,1.59119313,0.0091,71.62433766,
0.00912,-0.9668189293,0.00912,71.25890736,
0.00914,-0.6013886351,0.00914,70.89347707,
0.00916,-0.6013886351,0.00916,71.62433766,
0.00918,-0.9668189293,0.00918,71.25890736,
0.0092,0.8603325416,0.0092,71.25890736,
0.00922,0.1294719532,0.00922,71.62433766,
0.00924,0.4949022474,0.00924,71.62433766,
0.00926,0.1294719532,0.00926,70.52804678,
0.00928,-0.2359583409,0.00928,71.62433766,
0.0093,-0.2359583409,0.0093,70.89347707,
0.00932,-2.063109812,0.00932,71.25890736,
0.00934,-1.332249223,0.00934,71.62433766,
0.00936,0.1294719532,0.00936,71.62433766,
0.00938,-0.2359583409,0.00938,71.62433766,
0.0094,-2.063109812,0.0094,71.62433766,
0.00942,-0.2359583409,0.00942,71.98976795,
0.00944,-0.9668189293,0.00944,70.52804678,
0.00946,0.4949022474,0.00946,70.52804678,
0.00948,-0.6013886351,0.00948,71.25890736,
0.0095,-0.2359583409,0.0095,70.89347707,
0.00952,1.225762836,0.00952,71.98976795,
0.00954,0.1294719532,0.00954,71.62433766,
0.00956,0.1294719532,0.00956,71.25890736,
0.00958,0.4949022474,0.00958,71.98976795,
0.0096,-2.428540106,0.0096,71.25890736,
0.00962,-1.697679518,0.00962,70.89347707,
0.00964,-1.332249223,0.00964,71.98976795,
0.00966,-0.9668189293,0.00966,71.25890736,
0.00968,0.1294719532,0.00968,71.25890736,
0.0097,1.225762836,0.0097,71.98976795,
0.00972,0.4949022474,0.00972,71.25890736,
0.00974,1.225762836,0.00974,70.89347707,
0.00976,1.225762836,0.00976,71.98976795,
0.00978,-0.6013886351,0.00978,71.62433766,
0.0098,1.59119313,0.0098,70.89347707,
0.00982,0.4949022474,0.00982,71.62433766,
0.00984,-0.2359583409,0.00984,71.25890736,
0.00986,-0.2359583409,0.00986,70.89347707,
0.00988,0.4949022474,0.00988,72.35519825,
0.0099,0.4949022474,0.0099,71.25890736,
0.00992,1.225762836,0.00992,71.62433766,
0.00994,0.4949022474,0.00994,71.62433766,
0.00996,1.956623424,0.00996,71.25890736,
0.00998,1.956623424,0.00998,71.62433766,
0.01,1.225762836,0.01,71.62433766,
0.01002,1.59119313,0.01002,71.25890736,
0.01004,2.322053718,0.01004,71.25890736,
0.01006,0.4949022474,0.01006,71.62433766,
0.01008,0.4949022474,0.01008,71.25890736,
0.0101,-0.9668189293,0.0101,71.25890736,
0.01012,-0.6013886351,0.01012,71.62433766,
0.01014,-0.9668189293,0.01014,71.62433766,
0.01016,0.4949022474,0.01016,71.25890736,
0.01018,-0.2359583409,0.01018,71.62433766,
0.0102,-0.9668189293,0.0102,71.25890736,
0.01022,3.052914307,0.01022,71.25890736,
0.01024,0.1294719532,0.01024,71.98976795,
0.01026,1.59119313,0.01026,71.98976795,
0.01028,-0.2359583409,0.01028,71.25890736,
0.0103,0.1294719532,0.0103,71.62433766,
0.01032,-2.063109812,0.01032,70.89347707,
0.01034,-1.332249223,0.01034,72.35519825,
0.01036,-2.428540106,0.01036,72.35519825,
0.01038,-3.890261283,0.01038,70.89347707,
0.0104,-3.159400694,0.0104,71.98976795,
0.01042,-1.332249223,0.01042,71.25890736,
0.01044,-1.332249223,0.01044,71.98976795,
0.01046,0.1294719532,0.01046,71.62433766,
0.01048,0.1294719532,0.01048,71.98976795,
0.0105,-1.697679518,0.0105,71.62433766,
0.01052,0.4949022474,0.01052,71.25890736,
0.01054,-1.332249223,0.01054,71.62433766,
0.01056,-2.063109812,0.01056,71.25890736,
0.01058,0.1294719532,0.01058,71.25890736,
0.0106,-0.6013886351,0.0106,71.62433766,
0.01062,-2.428540106,0.01062,71.62433766,
0.01064,0.1294719532,0.01064,71.25890736,
0.01066,0.8603325416,0.01066,71.62433766,
0.01068,0.4949022474,0.01068,71.62433766,
0.0107,1.956623424,0.0107,71.25890736,
0.01072,0.8603325416,0.01072,71.98976795,
0.01074,0.4949022474,0.01074,71.25890736,
0.01076,0.8603325416,0.01076,71.25890736,
0.01078,0.4949022474,0.01078,71.98976795,
0.0108,1.225762836,0.0108,71.25890736,
0.01082,0.8603325416,0.01082,71.25890736,
0.01084,-0.2359583409,0.01084,71.62433766,
0.01086,0.4949022474,0.01086,71.62433766,
0.01088,0.8603325416,0.01088,71.25890736,
0.0109,0.1294719532,0.0109,71.62433766,
0.01092,0.1294719532,0.01092,71.25890736,
0.01094,0.4949022474,0.01094,71.25890736,
0.01096,1.956623424,0.01096,71.62433766,
0.01098,0.8603325416,0.01098,71.62433766,
0.011,1.59119313,0.011,71.25890736,
0.01102,1.956623424,0.01102,71.98976795,
0.01104,-0.2359583409,0.01104,71.25890736,
0.01106,1.225762836,0.01106,71.62433766,
0.01108,0.4949022474,0.01108,71.62433766,
0.0111,-0.9668189293,0.0111,71.62433766,
0.01112,-1.332249223,0.01112,70.89347707,
0.01114,-0.6013886351,0.01114,71.62433766,
0.01116,-0.6013886351,0.01116,71.25890736,
0.01118,0.8603325416,0.01118,71.25890736,
0.0112,1.225762836,0.0112,71.25890736,
0.01122,0.4949022474,0.01122,71.25890736,
0.01124,0.4949022474,0.01124,70.52804678,
0.01126,-0.2359583409,0.01126,70.89347707,
0.01128,0.1294719532,0.01128,71.98976795,
0.0113,-0.9668189293,0.0113,72.35519825,
0.01132,-3.159400694,0.01132,70.16261648,
0.01134,0.4949022474,0.01134,71.25890736,
0.01136,-0.2359583409,0.01136,71.25890736,
0.01138,-2.063109812,0.01138,71.62433766,
0.0114,-1.697679518,0.0114,71.62433766,
0.01142,0.1294719532,0.01142,71.98976795,
0.01144,-0.6013886351,0.01144,71.62433766,
0.01146,-0.2359583409,0.01146,71.62433766,
0.01148,0.8603325416,0.01148,71.62433766,
0.0115,1.225762836,0.0115,71.25890736,
0.01152,-0.9668189293,0.01152,71.62433766,
0.01154,-1.332249223,0.01154,71.98976795,
0.01156,-1.332249223,0.01156,71.25890736,
0.01158,-0.9668189293,0.01158,71.62433766,
0.0116,-2.063109812,0.0116,71.25890736,
0.01162,-0.6013886351,0.01162,71.62433766,
0.01164,-0.2359583409,0.01164,71.25890736,
0.01166,0.1294719532,0.01166,71.62433766,
0.01168,1.225762836,0.01168,71.98976795,
0.0117,1.59119313,0.0117,71.25890736,
0.01172,1.59119313,0.01172,71.62433766,
0.01174,-0.2359583409,0.01174,71.25890736,
0.01176,1.225762836,0.01176,71.25890736,
0.01178,1.59119313,0.01178,71.25890736,
0.0118,-0.2359583409,0.0118,71.25890736,
0.01182,1.225762836,0.01182,71.25890736,
0.01184,1.59119313,0.01184,72.35519825,
0.01186,0.1294719532,0.01186,71.98976795,
0.01188,0.8603325416,0.01188,71.25890736,
0.0119,0.8603325416,0.0119,71.25890736,
0.01192,1.59119313,0.01192,70.89347707,
0.01194,1.956623424,0.01194,71.25890736,
0.01196,2.687484012,0.01196,71.25890736,
0.01198,1.59119313,0.01198,71.25890736,
0.012,1.956623424,0.012,71.25890736,
0.01202,0.4949022474,0.01202,71.62433766,
0.01204,0.8603325416,0.01204,70.89347707,
0.01206,1.59119313,0.01206,71.25890736,
0.01208,-0.6013886351,0.01208,71.25890736,
0.0121,-1.332249223,0.0121,70.89347707,
0.01212,-0.6013886351,0.01212,71.62433766,
0.01214,0.1294719532,0.01214,71.25890736,
0.01216,1.225762836,0.01216,71.25890736,
0.01218,1.956623424,0.01218,71.25890736,
0.0122,0.1294719532,0.0122,71.62433766,
0.01222,0.1294719532,0.01222,70.89347707,
0.01224,0.4949022474,0.01224,71.25890736,
0.01226,1.956623424,0.01226,70.16261648,
0.01228,-2.063109812,0.01228,70.89347707,
0.0123,-2.7939704,0.0123,70.89347707,
0.01232,-2.7939704,0.01232,70.89347707,
0.01234,-0.9668189293,0.01234,71.25890736,
0.01236,-2.063109812,0.01236,71.62433766,
0.01238,0.1294719532,0.01238,71.62433766,
0.0124,0.8603325416,0.0124,70.52804678,
0.01242,1.59119313,0.01242,70.89347707,
0.01244,-0.6013886351,0.01244,71.62433766,
0.01246,-0.6013886351,0.01246,70.89347707,
0.01248,0.4949022474,0.01248,71.25890736,
0.0125,-0.2359583409,0.0125,71.25890736,
0.01252,-0.6013886351,0.01252,70.89347707,
0.01254,0.1294719532,0.01254,71.62433766,
0.01256,-0.9668189293,0.01256,71.62433766,
0.01258,-1.332249223,0.01258,71.25890736,
0.0126,1.225762836,0.0126,71.25890736,
0.01262,1.59119313,0.01262,71.25890736,
0.01264,-0.2359583409,0.01264,70.89347707,
0.01266,1.956623424,0.01266,71.25890736,
0.01268,1.956623424,0.01268,70.89347707,
0.0127,1.59119313,0.0127,70.52804678,
0.01272,0.8603325416,0.01272,71.62433766,
0.01274,0.4949022474,0.01274,71.62433766,
0.01276,0.1294719532,0.01276,70.89347707,
0.01278,1.225762836,0.01278,71.25890736,
0.0128,0.4949022474,0.0128,71.25890736,
0.01282,0.1294719532,0.01282,70.89347707,
0.01284,0.1294719532,0.01284,71.25890736,
0.01286,0.8603325416,0.01286,71.98976795,
0.01288,0.4949022474,0.01288,70.89347707,
0.0129,1.225762836,0.0129,71.62433766,
0.01292,0.8603325416,0.01292,71.25890736,
0.01294,1.59119313,0.01294,70.89347707,
0.01296,1.59119313,0.01296,71.62433766,
0.01298,1.225762836,0.01298,71.25890736,
0.013,0.8603325416,0.013,70.89347707,
0.01302,0.8603325416,0.01302,71.25890736,
0.01304,-0.2359583409,0.01304,71.25890736,
0.01306,0.1294719532,0.01306,71.25890736,
0.01308,0.1294719532,0.01308,71.62433766,
0.0131,-0.2359583409,0.0131,71.25890736,
0.01312,0.4949022474,0.01312,70.52804678,
0.01314,0.1294719532,0.01314,71.62433766,
0.01316,0.8603325416,0.01316,71.62433766,
0.01318,0.8603325416,0.01318,70.52804678,
0.0132,0.4949022474,0.0132,71.62433766,
0.01322,1.956623424,0.01322,70.16261648,
0.01324,-2.428540106,0.01324,70.16261648,
0.01326,0.8603325416,0.01326,71.62433766,
0.01328,-2.7939704,0.01328,71.98976795,
0.0133,-2.428540106,0.0133,70.52804678,
0.01332,-1.697679518,0.01332,71.25890736,
0.01334,-1.332249223,0.01334,70.89347707,
0.01336,-2.428540106,0.01336,70.89347707,
0.01338,-0.2359583409,0.01338,71.62433766,
0.0134,0.4949022474,0.0134,71.62433766,
0.01342,1.225762836,0.01342,70.89347707,
0.01344,-0.2359583409,0.01344,71.62433766,
0.01346,-1.332249223,0.01346,71.25890736,
0.01348,-1.332249223,0.01348,70.89347707,
0.0135,-0.6013886351,0.0135,71.62433766,
0.01352,0.4949022474,0.01352,71.25890736,
0.01354,-2.063109812,0.01354,70.89347707,
0.01356,-0.6013886351,0.01356,71.25890736,
0.01358,0.1294719532,0.01358,71.62433766,
0.0136,1.225762836,0.0136,70.89347707,
0.01362,1.956623424,0.01362,71.25890736,
0.01364,0.4949022474,0.01364,71.62433766,
0.01366,1.225762836,0.01366,70.89347707,
0.01368,1.59119313,0.01368,71.62433766,
0.0137,0.8603325416,0.0137,71.62433766,
0.01372,1.225762836,0.01372,70.89347707,
0.01374,1.225762836,0.01374,71.25890736,
0.01376,0.8603325416,0.01376,71.62433766,
0.01378,0.8603325416,0.01378,70.89347707,
0.0138,0.8603325416,0.0138,71.62433766,
0.01382,0.1294719532,0.01382,71.25890736,
0.01384,1.225762836,0.01384,71.62433766,
0.01386,0.4949022474,0.01386,71.25890736,
0.01388,0.8603325416,0.01388,70.89347707,
0.0139,1.956623424,0.0139,71.25890736,
0.01392,1.59119313,0.01392,71.25890736,
0.01394,1.225762836,0.01394,70.89347707,
0.01396,1.225762836,0.01396,71.25890736,
0.01398,0.1294719532,0.01398,70.89347707,
0.014,0.4949022474,0.014,71.25890736,
0.01402,0.4949022474,0.01402,71.98976795,
0.01404,-0.6013886351,0.01404,70.89347707,
0.01406,0.1294719532,0.01406,71.25890736,
0.01408,0.1294719532,0.01408,71.62433766,
0.0141,0.4949022474,0.0141,71.25890736,
0.01412,1.225762836,0.01412,70.89347707,
0.01414,2.322053718,0.01414,71.62433766,
0.01416,0.4949022474,0.01416,71.98976795,
0.01418,-1.332249223,0.01418,70.89347707,
0.0142,1.225762836,0.0142,71.98976795,
0.01422,-1.697679518,0.01422,70.89347707,
0.01424,-1.697679518,0.01424,71.25890736,
0.01426,0.1294719532,0.01426,72.72062854,
0.01428,-3.524830988,0.01428,71.62433766,
0.0143,0.1294719532,0.0143,70.52804678,
0.01432,-0.6013886351,0.01432,71.62433766,
0.01434,-1.697679518,0.01434,71.25890736,
0.01436,-0.9668189293,0.01436,71.25890736,
0.01438,-0.6013886351,0.01438,71.62433766,
0.0144,0.1294719532,0.0144,71.62433766,
0.01442,-0.2359583409,0.01442,71.25890736,
0.01444,-0.2359583409,0.01444,71.62433766,
0.01446,-2.428540106,0.01446,71.62433766,
0.01448,-1.332249223,0.01448,71.25890736,
0.0145,-0.2359583409,0.0145,71.98976795,
0.01452,-1.332249223,0.01452,71.62433766,
0.01454,-0.9668189293,0.01454,71.62433766,
0.01456,-0.2359583409,0.01456,71.62433766,
0.01458,-0.6013886351,0.01458,70.89347707,
0.0146,0.4949022474,0.0146,70.89347707,
0.01462,0.4949022474,0.01462,71.25890736,
0.01464,0.8603325416,0.01464,71.25890736,
0.01466,0.4949022474,0.01466,70.89347707,
0.01468,0.4949022474,0.01468,71.62433766,
0.0147,-0.6013886351,0.0147,71.25890736,
0.01472,-0.2359583409,0.01472,71.25890736,
0.01474,1.225762836,0.01474,71.62433766,
0.01476,0.1294719532,0.01476,71.25890736,
0.01478,0.1294719532,0.01478,71.25890736,
0.0148,1.59119313,0.0148,71.62433766,
0.01482,0.1294719532,0.01482,71.25890736,
0.01484,0.8603325416,0.01484,71.25890736,
0.01486,0.8603325416,0.01486,71.98976795,
0.01488,0.8603325416,0.01488,71.62433766,
0.0149,1.956623424,0.0149,70.89347707,
0.01492,1.956623424,0.01492,72.35519825,
0.01494,1.225762836,0.01494,71.25890736,
0.01496,1.225762836,0.01496,71.25890736,
0.01498,0.4949022474,0.01498,71.98976795,
0.015,0.8603325416,0.015,71.25890736,
0.01502,-0.6013886351,0.01502,70.89347707,
0.01504,1.225762836,0.01504,71.62433766,
0.01506,-0.9668189293,0.01506,70.89347707,
0.01508,1.225762836,0.01508,71.25890736,
0.0151,1.225762836,0.0151,71.98976795,
0.01512,-0.6013886351,0.01512,71.25890736,
0.01514,1.225762836,0.01514,71.62433766,
0.01516,0.4949022474,0.01516,71.98976795,
0.01518,-2.428540106,0.01518,72.35519825,
0.0152,-1.697679518,0.0152,70.52804678,
0.01522,-0.6013886351,0.01522,72.72062854,
0.01524,-3.890261283,0.01524,70.52804678,
0.01526,-2.428540106,0.01526,70.52804678,
0.01528,-2.7939704,0.01528,70.89347707,
0.0153,-2.428540106,0.0153,71.62433766,
0.01532,-2.063109812,0.01532,70.89347707,
0.01534,-2.428540106,0.01534,71.62433766,
0.01536,-1.697679518,0.01536,70.89347707,
0.01538,-0.2359583409,0.01538,71.25890736,
0.0154,-0.6013886351,0.0154,71.98976795,
0.01542,-0.9668189293,0.01542,70.89347707,
0.01544,-0.9668189293,0.01544,71.62433766,
0.01546,-0.9668189293,0.01546,71.98976795,
0.01548,-1.697679518,0.01548,71.25890736,
0.0155,-0.6013886351,0.0155,70.89347707,
0.01552,0.1294719532,0.01552,71.62433766,
0.01554,-0.9668189293,0.01554,71.62433766,
0.01556,1.225762836,0.01556,71.25890736,
0.01558,0.4949022474,0.01558,71.98976795,
0.0156,0.4949022474,0.0156,71.25890736,
0.01562,1.225762836,0.01562,71.25890736,
0.01564,1.59119313,0.01564,71.62433766,
0.01566,0.4949022474,0.01566,71.62433766,
0.01568,0.1294719532,0.01568,70.89347707,
0.0157,0.1294719532,0.0157,71.62433766,
0.01572,0.4949022474,0.01572,71.62433766,
0.01574,-0.2359583409,0.01574,71.62433766,
0.01576,0.1294719532,0.01576,71.98976795,
0.01578,0.4949022474,0.01578,71.25890736,
0.0158,0.8603325416,0.0158,71.98976795,
0.01582,0.4949022474,0.01582,71.62433766,
0.01584,0.4949022474,0.01584,71.25890736,
0.01586,1.956623424,0.01586,71.98976795,
0.01588,1.225762836,0.01588,71.98976795,
0.0159,2.322053718,0.0159,71.62433766,
0.01592,0.8603325416,0.01592,71.98976795,
0.01594,0.8603325416,0.01594,71.25890736,
0.01596,0.8603325416,0.01596,71.25890736,
0.01598,0.8603325416,0.01598,71.98976795,
0.016,-0.9668189293,0.016,71.98976795,
0.01602,0.8603325416,0.01602,71.25890736,
0.01604,-0.9668189293,0.01604,71.62433766,
0.01606,0.4949022474,0.01606,71.25890736,
0.01608,0.1294719532,0.01608,71.25890736,
0.0161,0.4949022474,0.0161,71.98976795,
0.01612,-0.2359583409,0.01612,71.25890736,
0.01614,-0.2359583409,0.01614,71.98976795,
0.01616,0.8603325416,0.01616,71.62433766,
0.01618,1.225762836,0.01618,72.35519825,
0.0162,-1.332249223,0.0162,70.89347707,
0.01622,0.1294719532,0.01622,70.89347707,
0.01624,-2.063109812,0.01624,71.62433766,
0.01626,-2.063109812,0.01626,71.98976795,
0.01628,-2.428540106,0.01628,71.25890736,
0.0163,-2.063109812,0.0163,70.89347707,
0.01632,-0.9668189293,0.01632,71.25890736,
0.01634,0.1294719532,0.01634,70.89347707,
0.01636,0.1294719532,0.01636,70.89347707,
0.01638,-0.2359583409,0.01638,71.25890736,
0.0164,-1.332249223,0.0164,71.25890736,
0.01642,-1.332249223,0.01642,71.62433766,
0.01644,0.4949022474,0.01644,71.25890736,
0.01646,-0.2359583409,0.01646,71.62433766,
0.01648,-0.9668189293,0.01648,71.25890736,
0.0165,-0.9668189293,0.0165,71.62433766,
0.01652,-0.9668189293,0.01652,71.62433766,
0.01654,0.4949022474,0.01654,71.62433766,
0.01656,0.4949022474,0.01656,71.62433766,
0.01658,1.225762836,0.01658,71.62433766,
0.0166,1.956623424,0.0166,71.25890736,
0.01662,1.59119313,0.01662,71.62433766,
0.01664,0.8603325416,0.01664,71.25890736,
0.01666,1.225762836,0.01666,71.62433766,
0.01668,-0.6013886351,0.01668,71.62433766,
0.0167,0.4949022474,0.0167,71.25890736,
0.01672,1.225762836,0.01672,71.98976795,
0.01674,0.1294719532,0.01674,71.25890736,
0.01676,1.59119313,0.01676,70.89347707,
0.01678,1.225762836,0.01678,71.98976795,
0.0168,1.59119313,0.0168,70.89347707,
0.01682,1.225762836,0.01682,71.25890736,
0.01684,1.225762836,0.01684,71.98976795,
0.01686,0.8603325416,0.01686,70.89347707,
0.01688,0.8603325416,0.01688,70.89347707,
0.0169,1.225762836,0.0169,71.62433766,
0.01692,0.4949022474,0.01692,71.25890736,
0.01694,0.4949022474,0.01694,71.25890736,
0.01696,0.1294719532,0.01696,71.62433766,
0.01698,-0.6013886351,0.01698,71.62433766,
0.017,0.1294719532,0.017,71.62433766,
0.01702,-0.2359583409,0.01702,72.35519825,
0.01704,0.1294719532,0.01704,70.89347707,
0.01706,1.59119313,0.01706,71.25890736,
0.01708,0.8603325416,0.01708,71.98976795,
0.0171,-0.6013886351,0.0171,71.25890736,
0.01712,-0.9668189293,0.01712,70.89347707,
0.01714,-0.9668189293,0.01714,72.72062854,
0.01716,-1.697679518,0.01716,70.52804678,
0.01718,-2.7939704,0.01718,70.52804678,
0.0172,-2.428540106,0.0172,72.72062854,
0.01722,-2.063109812,0.01722,71.98976795,
0.01724,-2.063109812,0.01724,71.62433766,
0.01726,-1.332249223,0.01726,71.98976795,
0.01728,-0.9668189293,0.01728,71.25890736,
0.0173,0.1294719532,0.0173,70.52804678,
0.01732,-0.2359583409,0.01732,71.25890736,
0.01734,-0.6013886351,0.01734,71.25890736,
0.01736,-0.2359583409,0.01736,71.25890736,
0.01738,-0.9668189293,0.01738,71.62433766,
0.0174,-1.697679518,0.0174,71.25890736,
0.01742,-2.063109812,0.01742,71.25890736,
0.01744,-0.6013886351,0.01744,71.62433766,
0.01746,-1.697679518,0.01746,71.25890736,
0.01748,-0.2359583409,0.01748,71.25890736,
0.0175,0.4949022474,0.0175,71.62433766,
0.01752,0.8603325416,0.01752,71.62433766,
0.01754,1.225762836,0.01754,71.25890736,
0.01756,1.59119313,0.01756,71.98976795,
0.01758,0.1294719532,0.01758,71.62433766,
0.0176,0.4949022474,0.0176,71.62433766,
0.01762,1.225762836,0.01762,71.98976795,
0.01764,-0.9668189293,0.01764,71.62433766,
0.01766,0.8603325416,0.01766,71.25890736,
0.01768,1.956623424,0.01768,71.98976795,
0.0177,-0.2359583409,0.0177,71.25890736,
0.01772,1.59119313,0.01772,70.52804678,
0.01774,0.1294719532,0.01774,71.98976795,
0.01776,0.1294719532,0.01776,71.25890736,
0.01778,1.956623424,0.01778,71.25890736,
0.0178,2.322053718,0.0178,71.98976795,
0.01782,2.322053718,0.01782,71.25890736,
0.01784,1.956623424,0.01784,71.62433766,
0.01786,1.59119313,0.01786,71.98976795,
0.01788,0.4949022474,0.01788,71.25890736,
0.0179,0.4949022474,0.0179,71.25890736,
0.01792,0.4949022474,0.01792,71.62433766,
0.01794,-0.2359583409,0.01794,71.25890736,
0.01796,-0.2359583409,0.01796,70.89347707,
0.01798,-0.2359583409,0.01798,71.98976795,
0.018,-0.2359583409,0.018,70.89347707,
0.01802,0.1294719532,0.01802,71.25890736,
0.01804,-0.2359583409,0.01804,71.98976795,
0.01806,-0.6013886351,0.01806,71.25890736,
0.01808,0.4949022474,0.01808,71.25890736,
0.0181,2.687484012,0.0181,71.62433766,
0.01812,0.4949022474,0.01812,71.98976795,
0.01814,-0.6013886351,0.01814,70.16261648,
0.01816,-2.063109812,0.01816,71.62433766,
0.01818,-1.697679518,0.01818,71.98976795,
0.0182,-2.063109812,0.0182,71.25890736,
0.01822,0.4949022474,0.01822,71.25890736,
0.01824,-2.063109812,0.01824,71.98976795,
0.01826,-1.332249223,0.01826,70.52804678,
0.01828,0.1294719532,0.01828,71.62433766,
0.0183,-1.697679518,0.0183,71.25890736,
0.01832,0.8603325416,0.01832,70.52804678,
0.01834,-0.2359583409,0.01834,71.62433766,
0.01836,-0.6013886351,0.01836,71.25890736,
0.01838,-1.332249223,0.01838,70.89347707,
0.0184,-1.332249223,0.0184,71.62433766,
0.01842,-1.697679518,0.01842,70.89347707,
0.01844,-1.332249223,0.01844,70.89347707,
0.01846,-0.2359583409,0.01846,71.62433766,
0.01848,-0.9668189293,0.01848,71.25890736,
0.0185,0.1294719532,0.0185,70.89347707,
0.01852,0.8603325416,0.01852,71.62433766,
0.01854,0.4949022474,0.01854,71.25890736,
0.01856,1.225762836,0.01856,71.25890736,
0.01858,0.4949022474,0.01858,71.98976795,
0.0186,0.8603325416,0.0186,71.62433766,
0.01862,1.59119313,0.01862,71.62433766,
0.01864,1.225762836,0.01864,71.98976795,
0.01866,-0.9668189293,0.01866,71.62433766,
0.01868,0.4949022474,0.01868,71.25890736,
0.0187,1.225762836,0.0187,71.62433766,
0.01872,0.4949022474,0.01872,71.25890736,
0.01874,1.59119313,0.01874,70.89347707,
0.01876,1.956623424,0.01876,71.62433766,
0.01878,1.225762836,0.01878,71.25890736,
0.0188,1.956623424,0.0188,71.25890736,
0.01882,2.322053718,0.01882,71.62433766,
0.01884,0.4949022474,0.01884,72.72062854,
0.01886,1.59119313,0.01886,71.25890736,
0.01888,1.225762836,0.01888,71.98976795,
0.0189,0.8603325416,0.0189,71.62433766,
0.01892,-0.2359583409,0.01892,71.25890736,
0.01894,-0.2359583409,0.01894,71.62433766,
0.01896,-0.9668189293,0.01896,71.62433766,
0.01898,-0.6013886351,0.01898,71.62433766,
0.019,0.1294719532,0.019,71.62433766,
0.01902,1.59119313,0.01902,71.98976795,
0.01904,0.4949022474,0.01904,71.25890736,
0.01906,-0.2359583409,0.01906,72.35519825,
0.01908,-0.6013886351,0.01908,71.62433766,
0.0191,-1.697679518,0.0191,71.62433766,
0.01912,-0.6013886351,0.01912,72.35519825,
0.01914,-2.063109812,0.01914,71.25890736,
0.01916,-0.6013886351,0.01916,71.62433766,
0.01918,0.8603325416,0.01918,71.62433766,
0.0192,-2.7939704,0.0192,71.25890736,
0.01922,-1.332249223,0.01922,71.25890736,
0.01924,-1.697679518,0.01924,71.25890736,
0.01926,0.4949022474,0.01926,71.25890736,
0.01928,1.225762836,0.01928,71.25890736,
0.0193,-0.2359583409,0.0193,71.62433766,
0.01932,-0.6013886351,0.01932,71.25890736,
0.01934,-0.9668189293,0.01934,70.89347707,
0.01936,-0.6013886351,0.01936,71.62433766,
0.01938,-2.428540106,0.01938,71.25890736,
0.0194,-0.9668189293,0.0194,70.89347707,
0.01942,-0.6013886351,0.01942,71.62433766,
0.01944,-0.2359583409,0.01944,71.62433766,
0.01946,0.8603325416,0.01946,70.89347707,
0.01948,0.8603325416,0.01948,71.62433766,
0.0195,0.1294719532,0.0195,71.62433766,
0.01952,1.956623424,0.01952,71.62433766,
0.01954,1.225762836,0.01954,71.98976795,
0.01956,1.59119313,0.01956,71.62433766,
0.01958,1.225762836,0.01958,70.89347707,
0.0196,0.1294719532,0.0196,71.62433766,
0.01962,-0.2359583409,0.01962,71.25890736,
0.01964,1.225762836,0.01964,71.62433766,
0.01966,0.4949022474,0.01966,71.25890736,
0.01968,0.4949022474,0.01968,71.62433766,
0.0197,0.8603325416,0.0197,71.25890736,
0.01972,1.225762836,0.01972,71.62433766,
0.01974,1.225762836,0.01974,71.62433766,
0.01976,1.956623424,0.01976,71.25890736,
0.01978,1.59119313,0.01978,71.98976795,
0.0198,1.225762836,0.0198,71.62433766,
0.01982,0.8603325416,0.01982,70.89347707,
0.01984,1.956623424,0.01984,71.62433766,
0.01986,0.4949022474,0.01986,71.25890736,
0.01988,-0.9668189293,0.01988,71.25890736,
0.0199,0.1294719532,0.0199,71.62433766,
0.01992,0.1294719532,0.01992,70.89347707,
0.01994,-0.6013886351,0.01994,70.89347707,
0.01996,0.1294719532,0.01996,71.98976795,
0.01998,-0.2359583409,0.01998,71.25890736,
0.02,1.225762836,0.02,71.98976795,
0.02002,1.225762836,0.02002,71.98976795,
0.02004,0.4949022474,0.02004,71.98976795,
0.02006,-1.332249223,0.02006,71.62433766,
0.02008,-1.332249223,0.02008,70.89347707,
0.0201,0.8603325416,0.0201,72.35519825,
0.02012,1.225762836,0.02012,71.98976795,
0.02014,-0.6013886351,0.02014,71.98976795,
0.02016,-0.6013886351,0.02016,72.35519825,
0.02018,-2.7939704,0.02018,71.62433766,
0.0202,-1.332249223,0.0202,71.98976795,
0.02022,-1.332249223,0.02022,70.89347707,
0.02024,0.4949022474,0.02024,71.25890736,
0.02026,1.225762836,0.02026,71.62433766,
0.02028,-0.6013886351,0.02028,71.25890736,
0.0203,-0.6013886351,0.0203,71.25890736,
0.02032,-0.9668189293,0.02032,71.98976795,
0.02034,-1.332249223,0.02034,71.25890736,
0.02036,-0.6013886351,0.02036,71.25890736,
0.02038,-0.2359583409,0.02038,71.62433766,
0.0204,-1.697679518,0.0204,71.25890736,
0.02042,0.1294719532,0.02042,71.25890736,
0.02044,0.8603325416,0.02044,71.62433766,
0.02046,0.8603325416,0.02046,70.89347707,
0.02048,1.225762836,0.02048,71.62433766,
0.0205,0.8603325416,0.0205,71.25890736,
0.02052,1.956623424,0.02052,71.25890736,
0.02054,1.956623424,0.02054,71.62433766,
0.02056,0.8603325416,0.02056,70.89347707,
0.02058,1.59119313,0.02058,71.25890736,
0.0206,1.225762836,0.0206,71.25890736,
0.02062,0.4949022474,0.02062,71.25890736,
0.02064,1.225762836,0.02064,71.62433766,
0.02066,0.8603325416,0.02066,71.25890736,
0.02068,0.4949022474,0.02068,70.89347707,
0.0207,1.225762836,0.0207,71.25890736,
0.02072,0.8603325416,0.02072,71.25890736,
0.02074,1.59119313,0.02074,70.89347707,
0.02076,2.322053718,0.02076,71.25890736,
0.02078,1.956623424,0.02078,70.89347707,
0.0208,1.225762836,0.0208,70.52804678,
0.02082,0.4949022474,0.02082,71.62433766,
0.02084,1.225762836,0.02084,71.25890736,
0.02086,0.4949022474,0.02086,70.89347707,
0.02088,0.1294719532,0.02088,71.25890736,
0.0209,-0.9668189293,0.0209,71.25890736,
0.02092,0.1294719532,0.02092,70.89347707,
0.02094,-0.6013886351,0.02094,71.25890736,
0.02096,-0.2359583409,0.02096,71.25890736,
0.02098,0.8603325416,0.02098,71.25890736,
0.021,0.4949022474,0.021,70.89347707,
0.02102,-0.6013886351,0.02102,70.89347707,
0.02104,-0.2359583409,0.02104,70.52804678,
0.02106,2.322053718,0.02106,71.62433766,
0.02108,-3.159400694,0.02108,71.98976795,
0.0211,-3.159400694,0.0211,72.35519825,
0.02112,-1.697679518,0.02112,70.16261648,
0.02114,-1.697679518,0.02114,70.52804678,
0.02116,-2.428540106,0.02116,70.52804678,
0.02118,-1.332249223,0.02118,70.52804678,
0.0212,-0.6013886351,0.0212,71.25890736,
0.02122,0.1294719532,0.02122,70.89347707,
0.02124,0.1294719532,0.02124,71.62433766,
0.02126,-0.9668189293,0.02126,71.62433766,
0.02128,-0.6013886351,0.02128,70.89347707,
0.0213,-1.697679518,0.0213,70.89347707,
0.02132,-0.6013886351,0.02132,70.89347707,
0.02134,-2.063109812,0.02134,70.89347707,
0.02136,-0.2359583409,0.02136,71.25890736,
0.02138,-0.6013886351,0.02138,70.89347707,
0.0214,-0.2359583409,0.0214,70.89347707,
0.02142,0.8603325416,0.02142,71.25890736,
0.02144,1.225762836,0.02144,70.89347707,
0.02146,1.225762836,0.02146,70.89347707,
0.02148,2.322053718,0.02148,71.25890736,
0.0215,1.59119313,0.0215,71.25890736,
0.02152,0.8603325416,0.02152,71.25890736,
0.02154,1.59119313,0.02154,71.62433766,
0.02156,1.59119313,0.02156,71.25890736,
0.02158,1.225762836,0.02158,71.25890736,
0.0216,3.052914307,0.0216,71.25890736,
0.02162,1.225762836,0.02162,71.62433766,
0.02164,1.225762836,0.02164,71.62433766,
0.02166,0.4949022474,0.02166,71.62433766,
0.02168,1.59119313,0.02168,70.89347707,
0.0217,1.59119313,0.0217,71.25890736,
0.02172,0.8603325416,0.02172,71.25890736,
0.02174,3.052914307,0.02174,71.62433766,
0.02176,1.225762836,0.02176,71.98976795,
0.02178,1.59119313,0.02178,71.98976795,
0.0218,0.8603325416,0.0218,71.25890736,
0.02182,0.8603325416,0.02182,71.25890736,
0.02184,0.4949022474,0.02184,71.98976795,
0.02186,-0.6013886351,0.02186,71.25890736,
0.02188,0.1294719532,0.02188,71.25890736,
0.0219,0.4949022474,0.0219,71.62433766,
0.02192,-0.6013886351,0.02192,71.25890736,
0.02194,1.59119313,0.02194,70.89347707,
0.02196,1.59119313,0.02196,71.62433766,
0.02198,1.956623424,0.02198,71.62433766,
0.022,0.8603325416,0.022,71.25890736,
0.02202,-0.9668189293,0.02202,71.62433766,
0.02204,-1.697679518,0.02204,70.89347707,
0.02206,-2.428540106,0.02206,71.25890736,
0.02208,-0.2359583409,0.02208,71.62433766,
0.0221,-2.428540106,0.0221,72.35519825,
0.02212,0.1294719532,0.02212,70.89347707,
0.02214,-1.697679518,0.02214,71.62433766,
0.02216,-1.332249223,0.02216,71.98976795,
0.02218,1.59119313,0.02218,71.62433766,
0.0222,1.59119313,0.0222,71.62433766,
0.02222,-1.697679518,0.02222,71.62433766,
0.02224,0.4949022474,0.02224,71.62433766,
0.02226,-0.6013886351,0.02226,71.62433766,
0.02228,-0.6013886351,0.02228,71.25890736,
0.0223,-0.6013886351,0.0223,71.25890736,
0.02232,-1.332249223,0.02232,71.62433766,
0.02234,-0.6013886351,0.02234,71.25890736,
0.02236,-0.2359583409,0.02236,71.25890736,
0.02238,1.225762836,0.02238,71.25890736,
0.0224,1.225762836,0.0224,71.25890736,
0.02242,1.59119313,0.02242,70.89347707,
0.02244,1.225762836,0.02244,71.98976795,
0.02246,0.8603325416,0.02246,71.62433766,
0.02248,0.8603325416,0.02248,71.25890736,
0.0225,0.8603325416,0.0225,71.62433766,
0.02252,0.4949022474,0.02252,71.25890736,
0.02254,1.225762836,0.02254,71.25890736,
0.02256,0.8603325416,0.02256,71.98976795,
0.02258,0.4949022474,0.02258,71.25890736,
0.0226,0.4949022474,0.0226,71.25890736,
0.02262,1.225762836,0.02262,71.62433766,
0.02264,0.1294719532,0.02264,70.89347707,
0.02266,1.956623424,0.02266,71.25890736,
0.02268,1.59119313,0.02268,71.62433766,
0.0227,0.8603325416,0.0227,71.25890736,
0.02272,2.322053718,0.02272,70.89347707,
0.02274,1.59119313,0.02274,71.62433766,
0.02276,1.59119313,0.02276,71.62433766,
0.02278,1.956623424,0.02278,71.25890736,
0.0228,0.4949022474,0.0228,71.62433766,
0.02282,0.1294719532,0.02282,71.25890736,
0.02284,-0.6013886351,0.02284,71.62433766,
0.02286,0.1294719532,0.02286,71.62433766,
0.02288,-1.332249223,0.02288,71.62433766,
0.0229,0.4949022474,0.0229,71.25890736,
0.02292,0.1294719532,0.02292,71.98976795,
0.02294,-0.6013886351,0.02294,71.62433766,
0.02296,1.225762836,0.02296,71.25890736,
0.02298,-0.2359583409,0.02298,70.89347707,
0.023,0.1294719532,0.023,71.25890736,
0.02302,-2.063109812,0.02302,70.52804678,
0.02304,-1.697679518,0.02304,70.89347707,
0.02306,-2.063109812,0.02306,71.25890736,
0.02308,-2.428540106,0.02308,70.89347707,
0.0231,-3.159400694,0.0231,71.98976795,
0.02312,-1.332249223,0.02312,71.98976795,
0.02314,1.225762836,0.02314,71.98976795,
0.02316,-0.2359583409,0.02316,71.98976795,
0.02318,-0.9668189293,0.02318,70.89347707,
0.0232,0.1294719532,0.0232,71.25890736,
0.02322,-0.9668189293,0.02322,71.98976795,
0.02324,1.225762836,0.02324,70.89347707,
0.02326,0.4949022474,0.02326,71.25890736,
0.02328,-0.6013886351,0.02328,71.62433766,
0.0233,-0.6013886351,0.0233,71.25890736,
0.02332,0.4949022474,0.02332,71.25890736,
0.02334,0.8603325416,0.02334,70.52804678,
0.02336,0.8603325416,0.02336,71.25890736,
0.02338,0.8603325416,0.02338,70.89347707,
0.0234,0.1294719532,0.0234,70.89347707,
0.02342,1.59119313,0.02342,71.62433766,
0.02344,2.322053718,0.02344,71.25890736,
0.02346,0.4949022474,0.02346,70.89347707,
0.02348,1.225762836,0.02348,71.25890736,
0.0235,1.225762836,0.0235,71.25890736,
0.02352,0.8603325416,0.02352,71.25890736,
0.02354,0.4949022474,0.02354,71.25890736,
0.02356,0.8603325416,0.02356,71.62433766,
0.02358,0.4949022474,0.02358,70.52804678,
0.0236,0.8603325416,0.0236,71.62433766,
0.02362,1.225762836,0.02362,71.25890736,
0.02364,1.225762836,0.02364,70.89347707,
0.02366,2.687484012,0.02366,70.89347707,
0.02368,1.956623424,0.02368,71.25890736,
0.0237,1.956623424,0.0237,70.52804678,
0.02372,1.956623424,0.02372,71.25890736,
0.02374,1.956623424,0.02374,71.25890736,
0.02376,1.956623424,0.02376,70.52804678,
0.02378,1.225762836,0.02378,71.25890736,
0.0238,-0.2359583409,0.0238,71.25890736,
0.02382,-0.9668189293,0.02382,71.25890736,
0.02384,0.8603325416,0.02384,71.25890736,
0.02386,0.1294719532,0.02386,71.25890736,
0.02388,0.4949022474,0.02388,70.89347707,
0.0239,0.8603325416,0.0239,71.62433766,
0.02392,0.4949022474,0.02392,71.62433766,
0.02394,-0.2359583409,0.02394,70.89347707,
0.02396,0.8603325416,0.02396,71.25890736,
0.02398,-1.332249223,0.02398,70.16261648,
0.024,-1.697679518,0.024,69.43175589,
0.02402,-0.6013886351,0.02402,71.25890736,
0.02404,-1.332249223,0.02404,71.98976795,
0.02406,-3.159400694,0.02406,70.52804678,
0.02408,-0.6013886351,0.02408,71.25890736,
0.0241,-0.9668189293,0.0241,71.98976795,
0.02412,-0.9668189293,0.02412,70.89347707,
0.02414,-0.2359583409,0.02414,71.62433766,
0.02416,-0.6013886351,0.02416,70.89347707,
0.02418,-0.9668189293,0.02418,70.89347707,
0.0242,1.59119313,0.0242,71.25890736,
0.02422,-0.9668189293,0.02422,71.25890736,
0.02424,-0.2359583409,0.02424,70.89347707,
0.02426,-1.332249223,0.02426,71.25890736,
0.02428,0.1294719532,0.02428,71.25890736,
0.0243,-0.6013886351,0.0243,70.52804678,
0.02432,-0.6013886351,0.02432,71.25890736,
0.02434,-0.2359583409,0.02434,70.89347707,
0.02436,1.225762836,0.02436,70.89347707,
0.02438,1.59119313,0.02438,70.89347707,
0.0244,1.225762836,0.0244,71.62433766,
0.02442,0.1294719532,0.02442,70.89347707,
0.02444,1.225762836,0.02444,71.25890736,
0.02446,0.4949022474,0.02446,71.25890736,
0.02448,0.4949022474,0.02448,70.89347707,
0.0245,1.225762836,0.0245,70.89347707,
0.02452,0.1294719532,0.02452,70.89347707,
0.02454,0.8603325416,0.02454,70.52804678,
0.02456,0.8603325416,0.02456,71.62433766,
0.02458,0.8603325416,0.02458,71.25890736,
0.0246,0.4949022474,0.0246,71.62433766,
0.02462,0.8603325416,0.02462,71.25890736,
0.02464,1.956623424,0.02464,71.25890736,
0.02466,1.59119313,0.02466,70.89347707,
0.02468,1.956623424,0.02468,71.25890736,
0.0247,2.687484012,0.0247,70.52804678,
0.02472,1.956623424,0.02472,70.89347707,
0.02474,1.225762836,0.02474,71.25890736,
0.02476,1.956623424,0.02476,71.25890736,
0.02478,-0.2359583409,0.02478,71.25890736,
0.0248,0.1294719532,0.0248,71.62433766,
0.02482,0.1294719532,0.02482,71.62433766,
0.02484,-0.2359583409,0.02484,71.25890736,
0.02486,0.8603325416,0.02486,71.62433766,
0.02488,1.225762836,0.02488,71.25890736,
0.0249,0.1294719532,0.0249,71.25890736,
0.02492,2.322053718,0.02492,70.89347707,
0.02494,-1.332249223,0.02494,70.52804678,
0.02496,-2.063109812,0.02496,70.16261648,
0.02498,-0.2359583409,0.02498,71.25890736,
0.025,-2.428540106,0.025,71.98976795,
0.02502,-2.063109812,0.02502,70.89347707,
0.02504,-0.9668189293,0.02504,70.89347707,
0.02506,0.8603325416,0.02506,71.62433766,
0.02508,-1.697679518,0.02508,70.89347707,
0.0251,-0.6013886351,0.0251,71.25890736,
0.02512,-0.6013886351,0.02512,71.25890736,
0.02514,1.59119313,0.02514,71.25890736,
0.02516,0.8603325416,0.02516,71.62433766,
0.02518,0.4949022474,0.02518,71.25890736,
0.0252,-0.9668189293,0.0252,70.52804678,
0.02522,-0.6013886351,0.02522,71.25890736,
0.02524,-0.2359583409,0.02524,71.25890736,
0.02526,-1.332249223,0.02526,72.35519825,
0.02528,-1.332249223,0.02528,71.25890736,
0.0253,-0.6013886351,0.0253,71.25890736,
0.02532,1.225762836,0.02532,71.62433766,
0.02534,0.1294719532,0.02534,71.62433766,
0.02536,0.8603325416,0.02536,71.25890736,
0.02538,1.225762836,0.02538,71.62433766,
0.0254,0.8603325416,0.0254,71.25890736,
0.02542,1.225762836,0.02542,70.52804678,
0.02544,1.225762836,0.02544,71.98976795,
0.02546,1.59119313,0.02546,71.25890736,
0.02548,0.1294719532,0.02548,70.89347707,
0.0255,0.4949022474,0.0255,71.62433766,
0.02552,0.1294719532,0.02552,71.25890736,
0.02554,0.4949022474,0.02554,70.89347707,
0.02556,0.8603325416,0.02556,71.62433766,
0.02558,1.225762836,0.02558,71.62433766,
0.0256,1.225762836,0.0256,71.25890736,
0.02562,1.59119313,0.02562,71.62433766,
0.02564,1.956623424,0.02564,71.25890736,
0.02566,1.59119313,0.02566,70.89347707,
0.02568,1.225762836,0.02568,71.62433766,
0.0257,-0.2359583409,0.0257,70.89347707,
0.02572,1.225762836,0.02572,70.89347707,
0.02574,0.1294719532,0.02574,71.62433766,
0.02576,-1.332249223,0.02576,71.25890736,
0.02578,-0.2359583409,0.02578,70.52804678,
0.0258,1.225762836,0.0258,71.62433766,
0.02582,-0.2359583409,0.02582,71.25890736,
0.02584,0.8603325416,0.02584,71.62433766,
0.02586,0.1294719532,0.02586,71.62433766,
0.02588,0.4949022474,0.02588,71.62433766,
0.0259,0.8603325416,0.0259,70.89347707,
0.02592,-0.2359583409,0.02592,71.62433766,
0.02594,-1.332249223,0.02594,70.52804678,
0.02596,-2.428540106,0.02596,71.62433766,
0.02598,-1.697679518,0.02598,72.72062854,
0.026,-3.159400694,0.026,71.25890736,
0.02602,-1.697679518,0.02602,71.62433766,
0.02604,-1.332249223,0.02604,70.89347707,
0.02606,-3.159400694,0.02606,71.62433766,
0.02608,-0.2359583409,0.02608,70.16261648,
0.0261,-0.2359583409,0.0261,71.62433766,
0.02612,-0.6013886351,0.02612,70.89347707,
0.02614,0.4949022474,0.02614,71.62433766,
0.02616,0.4949022474,0.02616,71.62433766,
0.02618,-0.6013886351,0.02618,71.25890736,
0.0262,-0.6013886351,0.0262,70.52804678,
0.02622,-0.6013886351,0.02622,71.62433766,
0.02624,-1.697679518,0.02624,71.25890736,
0.02626,0.1294719532,0.02626,71.25890736,
0.02628,-0.6013886351,0.02628,71.62433766,
0.0263,0.1294719532,0.0263,71.25890736,
0.02632,-0.2359583409,0.02632,70.89347707,
0.02634,0.4949022474,0.02634,71.98976795,
0.02636,0.8603325416,0.02636,71.62433766,
0.02638,1.59119313,0.02638,71.62433766,
0.0264,1.956623424,0.0264,71.62433766,
0.02642,1.225762836,0.02642,71.25890736,
0.02644,0.8603325416,0.02644,71.62433766,
0.02646,0.1294719532,0.02646,71.62433766,
0.02648,0.4949022474,0.02648,71.25890736,
0.0265,0.4949022474,0.0265,70.89347707,
0.02652,0.8603325416,0.02652,71.62433766,
0.02654,0.8603325416,0.02654,71.25890736,
0.02656,1.956623424,0.02656,71.62433766,
0.02658,1.59119313,0.02658,71.62433766,
0.0266,2.687484012,0.0266,71.25890736,
0.02662,1.956623424,0.02662,71.25890736,
0.02664,2.322053718,0.02664,71.62433766,
0.02666,1.59119313,0.02666,71.25890736,
0.02668,2.322053718,0.02668,70.89347707,
0.0267,1.225762836,0.0267,71.62433766,
0.02672,1.225762836,0.02672,71.25890736,
0.02674,0.1294719532,0.02674,71.25890736,
0.02676,0.4949022474,0.02676,71.62433766,
0.02678,0.4949022474,0.02678,71.25890736,
0.0268,0.4949022474,0.0268,71.25890736,
0.02682,0.8603325416,0.02682,71.98976795,
0.02684,2.687484012,0.02684,70.89347707,
0.02686,1.225762836,0.02686,70.89347707,
0.02688,-0.2359583409,0.02688,70.52804678,
0.0269,-1.332249223,0.0269,70.52804678,
0.02692,-1.697679518,0.02692,71.62433766,
0.02694,-0.9668189293,0.02694,71.62433766,
0.02696,-3.159400694,0.02696,70.89347707,
0.02698,-3.524830988,0.02698,70.16261648,
0.027,-3.159400694,0.027,71.98976795,
0.02702,-1.697679518,0.02702,70.52804678,
0.02704,-1.697679518,0.02704,71.25890736,
0.02706,-0.2359583409,0.02706,71.62433766,
0.02708,-0.6013886351,0.02708,70.89347707,
0.0271,0.1294719532,0.0271,70.89347707,
0.02712,0.8603325416,0.02712,71.98976795,
0.02714,-0.9668189293,0.02714,70.89347707,
0.02716,-0.9668189293,0.02716,71.62433766,
0.02718,-0.6013886351,0.02718,71.25890736,
0.0272,0.1294719532,0.0272,71.25890736,
0.02722,-0.2359583409,0.02722,71.62433766,
0.02724,-0.9668189293,0.02724,71.25890736,
0.02726,-0.2359583409,0.02726,71.62433766,
0.02728,-0.2359583409,0.02728,71.62433766,
0.0273,0.8603325416,0.0273,71.62433766,
0.02732,0.8603325416,0.02732,71.25890736,
0.02734,1.225762836,0.02734,71.62433766,
0.02736,0.1294719532,0.02736,71.25890736,
0.02738,0.4949022474,0.02738,71.25890736,
0.0274,0.4949022474,0.0274,71.25890736,
0.02742,-0.2359583409,0.02742,71.62433766,
0.02744,0.8603325416,0.02744,70.89347707,
0.02746,0.1294719532,0.02746,71.25890736,
0.02748,-0.2359583409,0.02748,71.25890736,
0.0275,-1.332249223,0.0275,70.89347707,
0.02752,0.8603325416,0.02752,71.98976795,
0.02754,0.8603325416,0.02754,71.25890736,
0.02756,1.956623424,0.02756,70.89347707,
0.02758,1.956623424,0.02758,71.62433766,
0.0276,2.322053718,0.0276,70.89347707,
0.02762,2.322053718,0.02762,71.25890736,
0.02764,0.4949022474,0.02764,71.62433766,
0.02766,1.225762836,0.02766,71.25890736,
0.02768,0.8603325416,0.02768,71.62433766,
0.0277,0.4949022474,0.0277,71.62433766,
0.02772,-1.332249223,0.02772,71.62433766,
0.02774,-0.6013886351,0.02774,71.25890736,
0.02776,-1.332249223,0.02776,71.62433766,
0.02778,-0.2359583409,0.02778,71.25890736,
0.0278,1.225762836,0.0278,70.89347707,
0.02782,0.8603325416,0.02782,71.62433766,
0.02784,1.59119313,0.02784,71.62433766,
0.02786,0.8603325416,0.02786,71.62433766,
0.02788,0.4949022474,0.02788,71.25890736,
0.0279,0.1294719532,0.0279,70.89347707,
0.02792,-0.9668189293,0.02792,70.89347707,
0.02794,-1.697679518,0.02794,70.89347707,
0.02796,-3.159400694,0.02796,71.98976795,
0.02798,1.225762836,0.02798,71.98976795,
0.028,-1.697679518,0.028,71.25890736,
0.02802,-1.332249223,0.02802,71.62433766,
0.02804,1.59119313,0.02804,70.89347707,
0.02806,1.225762836,0.02806,70.89347707,
0.02808,-0.6013886351,0.02808,71.25890736,
0.0281,0.4949022474,0.0281,71.62433766,
0.02812,-0.9668189293,0.02812,71.62433766,
0.02814,-0.2359583409,0.02814,71.25890736,
0.02816,-0.2359583409,0.02816,71.62433766,
0.02818,-1.332249223,0.02818,71.62433766,
0.0282,-1.332249223,0.0282,71.25890736,
0.02822,-0.2359583409,0.02822,71.25890736,
0.02824,-0.6013886351,0.02824,71.62433766,
0.02826,0.4949022474,0.02826,71.25890736,
0.02828,1.59119313,0.02828,71.25890736,
0.0283,0.4949022474,0.0283,71.62433766,
0.02832,-0.2359583409,0.02832,71.25890736,
0.02834,0.8603325416,0.02834,70.89347707,
0.02836,0.8603325416,0.02836,71.25890736,
0.02838,-0.9668189293,0.02838,71.62433766,
0.0284,0.8603325416,0.0284,71.98976795,
0.02842,0.4949022474,0.02842,71.62433766,
0.02844,-0.2359583409,0.02844,71.62433766,
0.02846,0.8603325416,0.02846,71.25890736,
0.02848,0.1294719532,0.02848,71.62433766,
0.0285,0.4949022474,0.0285,71.25890736,
0.02852,1.225762836,0.02852,71.25890736,
0.02854,1.59119313,0.02854,71.62433766,
0.02856,1.225762836,0.02856,70.89347707,
0.02858,2.322053718,0.02858,71.62433766,
0.0286,2.687484012,0.0286,71.62433766,
0.02862,1.225762836,0.02862,71.25890736,
0.02864,0.4949022474,0.02864,71.25890736,
0.02866,0.8603325416,0.02866,71.62433766,
0.02868,-0.6013886351,0.02868,71.62433766,
0.0287,0.1294719532,0.0287,71.25890736,
0.02872,-0.2359583409,0.02872,71.62433766,
0.02874,0.1294719532,0.02874,71.25890736,
0.02876,1.225762836,0.02876,71.25890736,
0.02878,1.956623424,0.02878,71.98976795,
0.0288,1.225762836,0.0288,71.62433766,
0.02882,2.687484012,0.02882,71.25890736,
0.02884,1.225762836,0.02884,71.25890736,
0.02886,0.4949022474,0.02886,71.98976795,
0.02888,-0.2359583409,0.02888,71.98976795,
0.0289,-1.332249223,0.0289,72.72062854,
0.02892,-2.428540106,0.02892,71.25890736,
0.02894,-2.428540106,0.02894,71.25890736,
0.02896,-2.7939704,0.02896,71.25890736,
0.02898,-0.9668189293,0.02898,71.62433766,
0.029,-0.2359583409,0.029,71.62433766,
0.02902,1.59119313,0.02902,71.98976795,
0.02904,-0.2359583409,0.02904,71.25890736,
0.02906,0.8603325416,0.02906,71.25890736,
0.02908,-0.2359583409,0.02908,70.89347707,
0.0291,0.4949022474,0.0291,70.89347707,
0.02912,-0.9668189293,0.02912,71.25890736,
0.02914,-0.2359583409,0.02914,70.52804678,
0.02916,0.4949022474,0.02916,71.25890736,
0.02918,0.1294719532,0.02918,71.25890736,
0.0292,0.1294719532,0.0292,70.89347707,
0.02922,0.4949022474,0.02922,71.25890736,
0.02924,0.4949022474,0.02924,71.25890736,
0.02926,0.4949022474,0.02926,70.89347707,
0.02928,1.956623424,0.02928,70.89347707,
0.0293,1.225762836,0.0293,71.25890736,
0.02932,1.59119313,0.02932,70.52804678,
0.02934,1.59119313,0.02934,70.89347707,
0.02936,1.225762836,0.02936,71.25890736,
0.02938,1.59119313,0.02938,70.52804678,
0.0294,1.225762836,0.0294,70.89347707,
0.02942,0.4949022474,0.02942,71.25890736,
0.02944,0.8603325416,0.02944,70.89347707,
0.02946,1.59119313,0.02946,71.25890736,
0.02948,1.225762836,0.02948,70.89347707,
0.0295,1.225762836,0.0295,70.89347707,
0.02952,1.956623424,0.02952,71.25890736,
0.02954,1.956623424,0.02954,71.25890736,
0.02956,2.322053718,0.02956,70.89347707,
0.02958,1.59119313,0.02958,70.89347707,
0.0296,1.956623424,0.0296,71.25890736,
0.02962,0.8603325416,0.02962,70.52804678,
0.02964,2.322053718,0.02964,71.25890736,
0.02966,0.1294719532,0.02966,71.25890736,
0.02968,0.1294719532,0.02968,70.52804678,
0.0297,0.8603325416,0.0297,70.89347707,
0.02972,0.1294719532,0.02972,70.89347707,
0.02974,0.4949022474,0.02974,70.89347707,
0.02976,1.956623424,0.02976,71.25890736,
0.02978,1.225762836,0.02978,71.25890736,
0.0298,1.59119313,0.0298,70.89347707,
0.02982,0.4949022474,0.02982,70.89347707,
0.02984,-0.2359583409,0.02984,70.89347707,
0.02986,-1.697679518,0.02986,70.52804678,
0.02988,-0.9668189293,0.02988,71.62433766,
0.0299,-2.063109812,0.0299,70.52804678,
0.02992,0.8603325416,0.02992,70.16261648,
0.02994,-2.063109812,0.02994,71.62433766,
0.02996,1.59119313,0.02996,71.62433766,
0.02998,-1.697679518,0.02998,71.25890736,
0.03,-0.6013886351,0.03,70.89347707,
0.03002,1.225762836,0.03002,70.89347707,
0.03004,-0.6013886351,0.03004,70.52804678,
0.03006,-0.9668189293,0.03006,70.89347707,
0.03008,0.1294719532,0.03008,70.89347707,
0.0301,-0.9668189293,0.0301,70.89347707,
0.03012,-0.6013886351,0.03012,71.25890736,
0.03014,-0.9668189293,0.03014,71.25890736,
0.03016,-1.697679518,0.03016,70.52804678,
0.03018,-0.2359583409,0.03018,70.89347707,
0.0302,-0.2359583409,0.0302,71.25890736,
0.03022,1.225762836,0.03022,70.89347707,
0.03024,0.8603325416,0.03024,71.62433766,
0.03026,1.225762836,0.03026,71.25890736,
0.03028,0.8603325416,0.03028,70.89347707,
0.0303,1.59119313,0.0303,71.25890736,
0.03032,1.59119313,0.03032,71.25890736,
0.03034,1.225762836,0.03034,70.89347707,
0.03036,2.322053718,0.03036,71.25890736,
0.03038,1.956623424,0.03038,71.62433766,
0.0304,0.1294719532,0.0304,70.89347707,
0.03042,1.225762836,0.03042,71.62433766,
0.03044,1.225762836,0.03044,71.25890736,
0.03046,0.4949022474,0.03046,70.89347707,
0.03048,2.687484012,0.03048,71.25890736,
0.0305,0.8603325416,0.0305,71.25890736,
0.03052,1.956623424,0.03052,70.52804678,
0.03054,3.418344601,0.03054,70.89347707,
0.03056,2.322053718,0.03056,71.25890736,
0.03058,0.4949022474,0.03058,71.25890736,
0.0306,2.322053718,0.0306,71.62433766,
0.03062,0.4949022474,0.03062,71.62433766,
0.03064,0.4949022474,0.03064,70.52804678,
0.03066,0.1294719532,0.03066,71.25890736,
0.03068,0.4949022474,0.03068,71.25890736,
0.0307,-0.2359583409,0.0307,70.52804678,
0.03072,1.225762836,0.03072,71.62433766,
0.03074,0.4949022474,0.03074,71.25890736,
0.03076,-0.6013886351,0.03076,70.52804678,
0.03078,0.1294719532,0.03078,71.25890736,
0.0308,0.1294719532,0.0308,71.25890736,
0.03082,1.225762836,0.03082,70.52804678,
0.03084,0.8603325416,0.03084,71.98976795,
0.03086,-0.6013886351,0.03086,70.52804678,
0.03088,-0.9668189293,0.03088,70.89347707,
0.0309,-2.428540106,0.0309,70.52804678,
0.03092,-2.7939704,0.03092,70.89347707,
0.03094,-2.063109812,0.03094,71.25890736,
0.03096,-0.2359583409,0.03096,71.98976795,
0.03098,0.1294719532,0.03098,71.25890736,
0.031,0.4949022474,0.031,71.62433766,
0.03102,0.1294719532,0.03102,71.25890736,
0.03104,-0.6013886351,0.03104,71.25890736,
0.03106,0.1294719532,0.03106,71.25890736,
0.03108,0.1294719532,0.03108,70.89347707,
0.0311,-0.9668189293,0.0311,70.89347707,
0.03112,-1.332249223,0.03112,71.62433766,
0.03114,0.4949022474,0.03114,70.89347707,
0.03116,0.1294719532,0.03116,71.25890736,
0.03118,0.8603325416,0.03118,71.62433766,
0.0312,0.4949022474,0.0312,70.89347707,
0.03122,1.225762836,0.03122,70.89347707,
0.03124,1.225762836,0.03124,71.62433766,
0.03126,0.1294719532,0.03126,70.89347707,
0.03128,0.8603325416,0.03128,70.89347707,
0.0313,1.956623424,0.0313,71.25890736,
0.03132,0.1294719532,0.03132,71.25890736,
0.03134,0.8603325416,0.03134,70.89347707,
0.03136,0.8603325416,0.03136,71.62433766,
0.03138,0.1294719532,0.03138,70.89347707,
0.0314,1.956623424,0.0314,70.52804678,
0.03142,0.8603325416,0.03142,71.98976795,
0.03144,0.1294719532,0.03144,71.25890736,
0.03146,0.1294719532,0.03146,71.25890736,
0.03148,0.8603325416,0.03148,71.62433766,
0.0315,1.59119313,0.0315,70.89347707,
0.03152,2.687484012,0.03152,70.89347707,
0.03154,1.59119313,0.03154,71.62433766,
0.03156,1.59119313,0.03156,71.62433766,
0.03158,0.8603325416,0.03158,70.89347707,
0.0316,1.225762836,0.0316,71.25890736,
0.03162,0.1294719532,0.03162,71.25890736,
0.03164,-1.332249223,0.03164,70.89347707,
0.03166,-0.6013886351,0.03166,71.25890736,
0.03168,0.4949022474,0.03168,70.89347707,
0.0317,0.4949022474,0.0317,70.89347707,
0.03172,0.8603325416,0.03172,71.25890736,
0.03174,1.225762836,0.03174,70.89347707,
0.03176,0.8603325416,0.03176,71.62433766,
0.03178,1.956623424,0.03178,70.89347707,
0.0318,0.8603325416,0.0318,71.25890736,
0.03182,-2.428540106,0.03182,70.16261648,
0.03184,0.4949022474,0.03184,71.98976795,
0.03186,-2.428540106,0.03186,71.25890736,
0.03188,-2.428540106,0.03188,71.25890736,
0.0319,-1.332249223,0.0319,72.35519825,
0.03192,0.1294719532,0.03192,71.98976795,
0.03194,0.1294719532,0.03194,71.25890736,
0.03196,1.225762836,0.03196,71.62433766,
0.03198,0.1294719532,0.03198,71.25890736,
0.032,2.322053718,0.032,71.98976795,
0.03202,-0.2359583409,0.03202,71.62433766,
0.03204,-0.6013886351,0.03204,71.25890736,
0.03206,-0.9668189293,0.03206,71.25890736,
0.03208,-1.697679518,0.03208,71.25890736,
0.0321,-0.6013886351,0.0321,70.89347707,
0.03212,0.4949022474,0.03212,71.62433766,
0.03214,-0.2359583409,0.03214,71.25890736,
0.03216,0.4949022474,0.03216,71.25890736,
0.03218,0.4949022474,0.03218,71.25890736,
0.0322,0.1294719532,0.0322,71.62433766,
0.03222,1.956623424,0.03222,70.89347707,
0.03224,1.59119313,0.03224,71.62433766,
0.03226,0.1294719532,0.03226,71.25890736,
0.03228,1.59119313,0.03228,71.62433766,
0.0323,1.225762836,0.0323,71.62433766,
0.03232,0.1294719532,0.03232,71.25890736,
0.03234,0.8603325416,0.03234,70.89347707,
0.03236,1.225762836,0.03236,71.62433766,
0.03238,0.8603325416,0.03238,71.25890736,
0.0324,0.1294719532,0.0324,71.25890736,
0.03242,1.225762836,0.03242,71.98976795,
0.03244,-0.2359583409,0.03244,71.62433766,
0.03246,1.956623424,0.03246,70.89347707,
0.03248,2.322053718,0.03248,71.62433766,
0.0325,3.052914307,0.0325,71.25890736,
0.03252,1.956623424,0.03252,71.25890736,
0.03254,0.4949022474,0.03254,71.25890736,
0.03256,1.225762836,0.03256,71.25890736,
0.03258,1.59119313,0.03258,71.25890736,
0.0326,1.225762836,0.0326,71.25890736,
0.03262,0.4949022474,0.03262,71.25890736,
0.03264,0.8603325416,0.03264,70.89347707,
0.03266,0.4949022474,0.03266,71.62433766,
0.03268,1.59119313,0.03268,71.25890736,
0.0327,0.1294719532,0.0327,71.25890736,
0.03272,1.956623424,0.03272,71.62433766,
0.03274,1.59119313,0.03274,70.52804678,
0.03276,3.052914307,0.03276,70.89347707,
0.03278,-0.2359583409,0.03278,71.25890736,
0.0328,-1.697679518,0.0328,71.98976795,
0.03282,-0.6013886351,0.03282,71.25890736,
0.03284,-3.890261283,0.03284,71.62433766,
0.03286,-2.7939704,0.03286,71.62433766,
0.03288,0.1294719532,0.03288,72.35519825,
0.0329,-0.9668189293,0.0329,71.25890736,
0.03292,-0.9668189293,0.03292,71.25890736,
0.03294,-0.9668189293,0.03294,71.62433766,
0.03296,0.1294719532,0.03296,70.89347707,
0.03298,1.225762836,0.03298,71.25890736,
0.033,-0.2359583409,0.033,72.35519825,
0.03302,-0.6013886351,0.03302,71.25890736,
0.03304,-0.6013886351,0.03304,71.25890736,
0.03306,-0.9668189293,0.03306,71.62433766,
0.03308,-2.428540106,0.03308,71.62433766,
0.0331,-0.9668189293,0.0331,71.25890736,
0.03312,-0.2359583409,0.03312,71.62433766,
0.03314,-0.6013886351,0.03314,71.25890736,
0.03316,1.225762836,0.03316,70.89347707,
0.03318,0.4949022474,0.03318,71.62433766,
0.0332,0.1294719532,0.0332,70.89347707,
0.03322,1.225762836,0.03322,71.25890736,
0.03324,0.8603325416,0.03324,71.62433766,
0.03326,0.4949022474,0.03326,71.25890736,
0.03328,1.225762836,0.03328,71.25890736,
0.0333,0.8603325416,0.0333,71.62433766,
0.03332,-0.6013886351,0.03332,71.25890736,
0.03334,0.8603325416,0.03334,71.25890736,
0.03336,0.8603325416,0.03336,71.98976795,
0.03338,-0.2359583409,0.03338,70.89347707,
0.0334,0.4949022474,0.0334,71.25890736,
0.03342,0.8603325416,0.03342,71.62433766,
0.03344,1.225762836,0.03344,71.62433766,
0.03346,1.225762836,0.03346,71.62433766,
0.03348,1.59119313,0.03348,71.25890736,
0.0335,1.59119313,0.0335,71.25890736,
0.03352,0.4949022474,0.03352,71.25890736,
0.03354,1.59119313,0.03354,71.25890736,
0.03356,0.1294719532,0.03356,71.25890736,
0.03358,0.1294719532,0.03358,71.25890736,
0.0336,-0.6013886351,0.0336,71.62433766,
0.03362,-0.2359583409,0.03362,70.89347707,
0.03364,-0.2359583409,0.03364,71.25890736,
0.03366,0.8603325416,0.03366,71.25890736,
0.03368,1.225762836,0.03368,70.89347707,
0.0337,1.956623424,0.0337,71.62433766,
0.03372,0.8603325416,0.03372,71.62433766,
0.03374,-0.9668189293,0.03374,70.52804678,
0.03376,0.1294719532,0.03376,71.62433766,
0.03378,-1.332249223,0.03378,71.98976795,
0.0338,-0.2359583409,0.0338,71.25890736,
0.03382,-0.9668189293,0.03382,71.25890736,
0.03384,-3.524830988,0.03384,70.89347707,
0.03386,-2.7939704,0.03386,71.25890736,
0.03388,-0.6013886351,0.03388,70.89347707,
0.0339,0.1294719532,0.0339,71.98976795,
0.03392,0.8603325416,0.03392,71.62433766,
0.03394,0.4949022474,0.03394,71.62433766,
0.03396,-0.6013886351,0.03396,71.98976795,
0.03398,-0.2359583409,0.03398,71.25890736,
0.034,0.1294719532,0.034,71.25890736,
0.03402,-0.9668189293,0.03402,71.62433766,
0.03404,-0.9668189293,0.03404,71.25890736,
0.03406,-0.9668189293,0.03406,71.25890736,
0.03408,-0.2359583409,0.03408,71.62433766,
0.0341,-0.9668189293,0.0341,71.25890736,
0.03412,1.59119313,0.03412,71.25890736,
0.03414,1.225762836,0.03414,71.62433766,
0.03416,1.59119313,0.03416,70.89347707,
0.03418,1.956623424,0.03418,71.25890736,
0.0342,1.225762836,0.0342,71.25890736,
0.03422,0.4949022474,0.03422,71.62433766,
0.03424,1.956623424,0.03424,71.25890736,
0.03426,1.225762836,0.03426,71.25890736,
0.03428,0.1294719532,0.03428,70.89347707,
0.0343,1.59119313,0.0343,70.89347707,
0.03432,0.8603325416,0.03432,71.25890736,
0.03434,0.1294719532,0.03434,70.89347707,
0.03436,1.225762836,0.03436,71.62433766,
0.03438,1.59119313,0.03438,71.25890736,
0.0344,1.225762836,0.0344,71.62433766,
0.03442,3.052914307,0.03442,70.89347707,
0.03444,2.687484012,0.03444,71.25890736,
0.03446,1.59119313,0.03446,71.62433766,
0.03448,1.59119313,0.03448,71.25890736,
0.0345,0.4949022474,0.0345,71.62433766,
0.03452,0.1294719532,0.03452,71.25890736,
0.03454,1.59119313,0.03454,71.25890736,
0.03456,-0.2359583409,0.03456,71.62433766,
0.03458,-0.9668189293,0.03458,71.25890736,
0.0346,0.1294719532,0.0346,70.89347707,
0.03462,0.8603325416,0.03462,71.25890736,
0.03464,1.225762836,0.03464,71.25890736,
0.03466,1.225762836,0.03466,71.25890736,
0.03468,1.225762836,0.03468,71.62433766,
0.0347,-0.2359583409,0.0347,70.52804678,
0.03472,-0.6013886351,0.03472,71.62433766,
0.03474,-0.9668189293,0.03474,71.62433766,
0.03476,-1.697679518,0.03476,69.79718619,
0.03478,-1.332249223,0.03478,72.35519825,
0.0348,-0.9668189293,0.0348,71.62433766,
0.03482,-2.428540106,0.03482,70.89347707,
0.03484,1.225762836,0.03484,70.89347707,
0.03486,-0.2359583409,0.03486,71.62433766,
0.03488,-1.697679518,0.03488,70.89347707,
0.0349,-0.2359583409,0.0349,70.89347707,
0.03492,0.4949022474,0.03492,71.25890736,
0.03494,0.1294719532,0.03494,70.89347707,
0.03496,-0.2359583409,0.03496,70.89347707,
0.03498,-0.6013886351,0.03498,71.62433766,
0.035,-0.9668189293,0.035,71.25890736,
0.03502,-0.9668189293,0.03502,71.25890736,
0.03504,-1.332249223,0.03504,71.25890736,
0.03506,-1.332249223,0.03506,71.25890736,
0.03508,0.4949022474,0.03508,70.89347707,
0.0351,0.1294719532,0.0351,71.25890736,
0.03512,0.4949022474,0.03512,70.89347707,
0.03514,1.59119313,0.03514,71.25890736,
0.03516,1.956623424,0.03516,70.89347707,
0.03518,0.4949022474,0.03518,70.52804678,
0.0352,1.59119313,0.0352,70.89347707,
0.03522,1.59119313,0.03522,70.89347707,
0.03524,0.4949022474,0.03524,70.52804678,
0.03526,1.225762836,0.03526,70.89347707,
0.03528,0.8603325416,0.03528,71.25890736,
0.0353,0.8603325416,0.0353,70.89347707,
0.03532,0.4949022474,0.03532,71.25890736,
0.03534,1.956623424,0.03534,70.89347707,
0.03536,0.8603325416,0.03536,70.52804678,
0.03538,1.59119313,0.03538,71.25890736,
0.0354,1.59119313,0.0354,71.25890736,
0.03542,2.322053718,0.03542,70.52804678,
0.03544,1.225762836,0.03544,70.89347707,
0.03546,1.225762836,0.03546,71.25890736,
0.03548,1.59119313,0.03548,70.89347707,
0.0355,0.8603325416,0.0355,71.25890736,
0.03552,1.225762836,0.03552,71.25890736,
0.03554,0.4949022474,0.03554,70.89347707,
0.03556,-0.6013886351,0.03556,71.62433766,
0.03558,-0.2359583409,0.03558,71.62433766,
0.0356,-0.2359583409,0.0356,70.52804678,
0.03562,1.225762836,0.03562,71.25890736,
0.03564,1.225762836,0.03564,71.62433766,
0.03566,0.1294719532,0.03566,70.89347707,
0.03568,1.956623424,0.03568,70.89347707,
0.0357,-0.2359583409,0.0357,71.62433766,
0.03572,-1.697679518,0.03572,71.25890736,
0.03574,-1.332249223,0.03574,70.52804678,
0.03576,-0.9668189293,0.03576,70.89347707,
0.03578,-0.6013886351,0.03578,70.89347707,
0.0358,1.59119313,0.0358,71.25890736,
0.03582,-1.697679518,0.03582,71.62433766,
0.03584,1.225762836,0.03584,70.89347707,
0.03586,0.8603325416,0.03586,70.89347707,
0.03588,-0.6013886351,0.03588,70.89347707,
0.0359,0.1294719532,0.0359,71.25890736,
0.03592,-0.2359583409,0.03592,71.62433766,
0.03594,0.1294719532,0.03594,70.89347707,
0.03596,-0.2359583409,0.03596,70.89347707,
0.03598,-0.6013886351,0.03598,71.25890736,
0.036,-0.2359583409,0.036,71.25890736,
0.03602,-0.2359583409,0.03602,70.89347707,
0.03604,0.1294719532,0.03604,70.89347707,
0.03606,0.1294719532,0.03606,71.25890736,
0.03608,1.225762836,0.03608,70.89347707,
0.0361,0.8603325416,0.0361,71.25890736,
0.03612,1.59119313,0.03612,70.89347707,
0.03614,1.59119313,0.03614,70.52804678,
0.03616,1.225762836,0.03616,71.62433766,
0.03618,1.59119313,0.03618,71.25890736,
0.0362,0.4949022474,0.0362,71.25890736,
0.03622,1.59119313,0.03622,71.25890736,
0.03624,0.8603325416,0.03624,70.89347707,
0.03626,0.8603325416,0.03626,70.89347707,
0.03628,1.225762836,0.03628,70.89347707,
0.0363,1.225762836,0.0363,70.89347707,
0.03632,1.225762836,0.03632,70.89347707,
0.03634,2.322053718,0.03634,70.89347707,
0.03636,1.956623424,0.03636,71.25890736,
0.03638,2.322053718,0.03638,70.52804678,
0.0364,2.687484012,0.0364,71.62433766,
0.03642,1.956623424,0.03642,71.25890736,
0.03644,1.956623424,0.03644,70.52804678,
0.03646,1.59119313,0.03646,70.89347707,
0.03648,0.8603325416,0.03648,70.89347707,
0.0365,0.1294719532,0.0365,70.89347707,
0.03652,0.1294719532,0.03652,70.89347707,
0.03654,-0.2359583409,0.03654,71.25890736,
0.03656,-0.2359583409,0.03656,71.25890736,
0.03658,1.225762836,0.03658,71.25890736,
0.0366,0.8603325416,0.0366,71.25890736,
0.03662,1.956623424,0.03662,70.89347707,
0.03664,1.59119313,0.03664,71.25890736,
0.03666,0.1294719532,0.03666,71.62433766,
0.03668,1.59119313,0.03668,71.25890736,
0.0367,-1.332249223,0.0367,69.79718619,
0.03672,-2.7939704,0.03672,70.52804678,
0.03674,-2.7939704,0.03674,71.62433766,
0.03676,-2.063109812,0.03676,70.16261648,
0.03678,-2.063109812,0.03678,70.89347707,
0.0368,-0.2359583409,0.0368,71.25890736,
0.03682,0.1294719532,0.03682,71.25890736,
0.03684,-1.332249223,0.03684,70.16261648,
0.03686,0.1294719532,0.03686,71.25890736,
0.03688,0.8603325416,0.03688,71.62433766,
0.0369,0.4949022474,0.0369,70.89347707,
0.03692,0.1294719532,0.03692,71.62433766,
0.03694,0.1294719532,0.03694,71.25890736,
0.03696,0.1294719532,0.03696,71.62433766,
0.03698,0.4949022474,0.03698,71.25890736,
0.037,-0.9668189293,0.037,71.25890736,
0.03702,0.4949022474,0.03702,71.25890736,
0.03704,-0.2359583409,0.03704,71.62433766,
0.03706,-0.6013886351,0.03706,70.52804678,
0.03708,1.956623424,0.03708,71.62433766,
0.0371,3.052914307,0.0371,71.62433766,
0.03712,1.59119313,0.03712,71.25890736,
0.03714,1.225762836,0.03714,71.62433766,
0.03716,0.1294719532,0.03716,71.25890736,
0.03718,0.4949022474,0.03718,71.25890736,
0.0372,0.8603325416,0.0372,71.62433766,
0.03722,0.8603325416,0.03722,71.25890736,
0.03724,1.59119313,0.03724,71.25890736,
0.03726,0.8603325416,0.03726,71.98976795,
0.03728,0.8603325416,0.03728,71.25890736,
0.0373,1.225762836,0.0373,71.25890736,
0.03732,0.8603325416,0.03732,71.98976795,
0.03734,1.225762836,0.03734,71.25890736,
0.03736,1.59119313,0.03736,71.25890736,
0.03738,2.322053718,0.03738,71.98976795,
0.0374,1.59119313,0.0374,71.25890736,
0.03742,2.687484012,0.03742,71.25890736,
0.03744,0.1294719532,0.03744,71.62433766,
0.03746,0.1294719532,0.03746,71.25890736,
0.03748,0.4949022474,0.03748,71.25890736,
0.0375,-0.9668189293,0.0375,71.25890736,
0.03752,-1.332249223,0.03752,70.89347707,
0.03754,-0.2359583409,0.03754,70.89347707,
0.03756,0.8603325416,0.03756,71.25890736,
0.03758,0.1294719532,0.03758,71.25890736,
0.0376,1.225762836,0.0376,72.35519825,
0.03762,0.1294719532,0.03762,71.62433766,
0.03764,0.1294719532,0.03764,71.62433766,
0.03766,0.4949022474,0.03766,71.62433766,
0.03768,-0.6013886351,0.03768,71.62433766,
0.0377,-2.063109812,0.0377,71.98976795,
0.03772,-1.332249223,0.03772,69.79718619,
0.03774,0.1294719532,0.03774,70.89347707,
0.03776,-0.6013886351,0.03776,69.79718619,
0.03778,-0.6013886351,0.03778,70.52804678,
0.0378,-1.332249223,0.0378,71.62433766,
0.03782,1.59119313,0.03782,70.89347707,
0.03784,0.1294719532,0.03784,70.52804678,
0.03786,-0.2359583409,0.03786,71.62433766,
0.03788,-0.2359583409,0.03788,70.89347707,
0.0379,-0.6013886351,0.0379,70.89347707,
0.03792,-1.332249223,0.03792,70.52804678,
0.03794,-2.063109812,0.03794,70.52804678,
0.03796,-0.2359583409,0.03796,71.62433766,
0.03798,-0.9668189293,0.03798,71.25890736,
0.038,0.1294719532,0.038,70.52804678,
0.03802,0.1294719532,0.03802,71.62433766,
0.03804,1.59119313,0.03804,71.25890736,
0.03806,0.4949022474,0.03806,70.89347707,
0.03808,1.225762836,0.03808,71.25890736,
0.0381,1.225762836,0.0381,71.25890736,
0.03812,1.225762836,0.03812,70.16261648,
0.03814,-0.2359583409,0.03814,70.89347707,
0.03816,1.59119313,0.03816,70.89347707,
0.03818,0.4949022474,0.03818,70.89347707,
0.0382,1.956623424,0.0382,70.89347707,
0.03822,2.322053718,0.03822,71.25890736,
0.03824,1.59119313,0.03824,70.89347707,
0.03826,1.59119313,0.03826,71.25890736,
0.03828,1.59119313,0.03828,70.89347707,
0.0383,1.225762836,0.0383,70.52804678,
0.03832,1.225762836,0.03832,70.89347707,
0.03834,2.322053718,0.03834,71.62433766,
0.03836,0.8603325416,0.03836,70.52804678,
0.03838,1.956623424,0.03838,71.25890736,
0.0384,1.956623424,0.0384,71.25890736,
0.03842,0.8603325416,0.03842,71.25890736,
0.03844,1.225762836,0.03844,71.25890736,
0.03846,0.8603325416,0.03846,71.25890736,
0.03848,0.1294719532,0.03848,70.52804678,
0.0385,0.4949022474,0.0385,70.89347707,
0.03852,0.1294719532,0.03852,70.89347707,
0.03854,1.59119313,0.03854,70.52804678,
0.03856,0.4949022474,0.03856,70.89347707,
0.03858,0.8603325416,0.03858,71.25890736,
0.0386,2.322053718,0.0386,70.89347707,
0.03862,0.8603325416,0.03862,71.62433766,
0.03864,-1.332249223,0.03864,72.35519825,
0.03866,0.4949022474,0.03866,71.25890736,
0.03868,-0.9668189293,0.03868,71.62433766,
0.0387,-1.697679518,0.0387,70.52804678,
0.03872,-2.7939704,0.03872,71.25890736,
0.03874,-1.332249223,0.03874,71.98976795,
0.03876,-0.2359583409,0.03876,71.62433766,
0.03878,-1.332249223,0.03878,70.89347707,
0.0388,-0.6013886351,0.0388,71.25890736,
0.03882,-0.6013886351,0.03882,71.62433766,
0.03884,0.4949022474,0.03884,70.89347707,
0.03886,0.4949022474,0.03886,70.89347707,
0.03888,-0.6013886351,0.03888,70.89347707,
0.0389,-0.6013886351,0.0389,70.89347707,
0.03892,-0.9668189293,0.03892,71.25890736,
0.03894,0.1294719532,0.03894,71.25890736,
0.03896,-0.9668189293,0.03896,70.52804678,
0.03898,-0.2359583409,0.03898,71.62433766,
0.039,-0.2359583409,0.039,71.25890736,
0.03902,0.4949022474,0.03902,70.89347707,
0.03904,2.322053718,0.03904,71.25890736,
0.03906,1.225762836,0.03906,71.25890736,
0.03908,1.59119313,0.03908,70.52804678,
0.0391,0.4949022474,0.0391,70.89347707,
0.03912,1.59119313,0.03912,71.25890736,
0.03914,0.8603325416,0.03914,70.52804678,
0.03916,1.225762836,0.03916,71.25890736,
0.03918,1.225762836,0.03918,71.25890736,
0.0392,0.8603325416,0.0392,70.52804678,
0.03922,1.59119313,0.03922,70.89347707,
0.03924,1.225762836,0.03924,70.89347707,
0.03926,0.4949022474,0.03926,70.89347707,
0.03928,1.225762836,0.03928,71.25890736,
0.0393,0.8603325416,0.0393,71.25890736,
0.03932,1.956623424,0.03932,70.52804678,
0.03934,1.59119313,0.03934,71.25890736,
0.03936,1.956623424,0.03936,70.89347707,
0.03938,1.59119313,0.03938,70.89347707,
0.0394,1.59119313,0.0394,70.89347707,
0.03942,0.8603325416,0.03942,70.89347707,
0.03944,-0.6013886351,0.03944,70.89347707,
0.03946,0.1294719532,0.03946,71.25890736,
0.03948,-0.6013886351,0.03948,70.52804678,
0.0395,0.4949022474,0.0395,70.52804678,
0.03952,0.4949022474,0.03952,71.62433766,
0.03954,1.225762836,0.03954,71.25890736,
0.03956,-0.2359583409,0.03956,71.25890736,
0.03958,1.225762836,0.03958,71.62433766,
0.0396,0.4949022474,0.0396,71.62433766,
0.03962,-0.9668189293,0.03962,71.62433766,
0.03964,2.687484012,0.03964,72.35519825,
0.03966,0.1294719532,0.03966,72.35519825,
0.03968,0.4949022474,0.03968,71.98976795,
0.0397,-2.428540106,0.0397,71.25890736,
0.03972,-2.063109812,0.03972,70.52804678,
0.03974,-1.697679518,0.03974,70.89347707,
0.03976,0.8603325416,0.03976,72.35519825,
0.03978,-1.697679518,0.03978,71.25890736,
0.0398,-0.9668189293,0.0398,71.25890736,
0.03982,1.225762836,0.03982,71.62433766,
0.03984,-0.6013886351,0.03984,71.25890736,
0.03986,-0.9668189293,0.03986,70.89347707,
0.03988,-0.6013886351,0.03988,71.62433766,
0.0399,-0.6013886351,0.0399,70.89347707,
0.03992,-0.9668189293,0.03992,70.89347707,
0.03994,-0.2359583409,0.03994,71.62433766,
0.03996,-0.6013886351,0.03996,70.89347707,
0.03998,-0.2359583409,0.03998,70.89347707,
0.04,-0.2359583409,0.04,71.62433766,
0.04002,1.225762836,0.04002,71.25890736,
0.04004,0.4949022474,0.04004,70.52804678,
0.04006,1.225762836,0.04006,71.62433766,
0.04008,0.4949022474,0.04008,70.89347707,
0.0401,0.4949022474,0.0401,70.89347707,
0.04012,1.59119313,0.04012,71.25890736,
0.04014,0.1294719532,0.04014,70.89347707,
0.04016,1.225762836,0.04016,70.89347707,
0.04018,0.8603325416,0.04018,71.62433766,
0.0402,-0.6013886351,0.0402,71.25890736,
0.04022,0.4949022474,0.04022,70.89347707,
0.04024,1.59119313,0.04024,71.62433766,
0.04026,0.4949022474,0.04026,71.25890736,
0.04028,1.59119313,0.04028,71.25890736,
0.0403,0.8603325416,0.0403,71.62433766,
0.04032,1.59119313,0.04032,70.89347707,
0.04034,1.956623424,0.04034,70.89347707,
0.04036,0.8603325416,0.04036,71.62433766,
0.04038,0.8603325416,0.04038,70.89347707,
0.0404,0.1294719532,0.0404,71.25890736,
0.04042,0.4949022474,0.04042,71.25890736,
0.04044,0.1294719532,0.04044,71.25890736,
0.04046,0.1294719532,0.04046,71.25890736,
0.04048,0.4949022474,0.04048,71.25890736,
0.0405,-0.2359583409,0.0405,71.25890736,
0.04052,-0.6013886351,0.04052,70.89347707,
0.04054,2.687484012,0.04054,71.62433766,
0.04056,0.4949022474,0.04056,71.25890736,
0.04058,-0.6013886351,0.04058,71.62433766,
0.0406,-0.9668189293,0.0406,71.98976795,
0.04062,-2.063109812,0.04062,70.16261648,
0.04064,-0.2359583409,0.04064,71.25890736,
0.04066,-2.7939704,0.04066,71.25890736,
0.04068,-2.428540106,0.04068,71.98976795,
0.0407,-1.697679518,0.0407,70.16261648,
0.04072,-1.697679518,0.04072,71.62433766,
0.04074,-1.332249223,0.04074,71.62433766,
0.04076,-0.9668189293,0.04076,70.89347707,
0.04078,0.8603325416,0.04078,71.25890736,
0.0408,-0.2359583409,0.0408,70.89347707,
0.04082,-0.9668189293,0.04082,70.89347707,
0.04084,-0.9668189293,0.04084,71.62433766,
0.04086,-1.332249223,0.04086,71.25890736,
0.04088,-1.332249223,0.04088,70.89347707,
0.0409,-0.2359583409,0.0409,71.98976795,
0.04092,-0.6013886351,0.04092,71.25890736,
0.04094,0.1294719532,0.04094,71.25890736,
0.04096,-0.2359583409,0.04096,71.62433766,
0.04098,1.225762836,0.04098,71.25890736,
0.041,1.225762836,0.041,70.89347707,
0.04102,1.59119313,0.04102,71.62433766,
0.04104,0.8603325416,0.04104,71.25890736,
0.04106,0.8603325416,0.04106,70.89347707,
0.04108,0.4949022474,0.04108,71.25890736,
0.0411,0.1294719532,0.0411,71.25890736,
0.04112,-0.2359583409,0.04112,70.89347707,
0.04114,-0.6013886351,0.04114,71.98976795,
0.04116,0.1294719532,0.04116,71.25890736,
0.04118,-0.2359583409,0.04118,71.25890736,
0.0412,1.956623424,0.0412,71.62433766,
0.04122,0.4949022474,0.04122,70.89347707,
0.04124,1.59119313,0.04124,71.25890736,
0.04126,2.322053718,0.04126,71.62433766,
0.04128,1.59119313,0.04128,71.25890736,
0.0413,1.956623424,0.0413,70.89347707,
0.04132,0.8603325416,0.04132,71.98976795,
0.04134,1.59119313,0.04134,71.62433766,
0.04136,-0.2359583409,0.04136,71.25890736,
0.04138,0.4949022474,0.04138,71.62433766,
0.0414,-0.6013886351,0.0414,70.89347707,
0.04142,-0.2359583409,0.04142,71.98976795,
0.04144,-0.6013886351,0.04144,70.89347707,
0.04146,1.225762836,0.04146,70.89347707,
0.04148,0.1294719532,0.04148,71.62433766,
0.0415,1.225762836,0.0415,71.62433766,
0.04152,1.225762836,0.04152,71.25890736,
0.04154,0.4949022474,0.04154,71.98976795,
0.04156,-0.9668189293,0.04156,71.62433766,
0.04158,-0.6013886351,0.04158,69.79718619,
0.0416,0.1294719532,0.0416,71.25890736,
0.04162,-3.524830988,0.04162,71.98976795,
0.04164,-1.332249223,0.04164,71.25890736,
0.04166,-0.6013886351,0.04166,71.98976795,
0.04168,-3.159400694,0.04168,71.25890736,
0.0417,-2.063109812,0.0417,69.79718619,
0.04172,-0.9668189293,0.04172,71.25890736,
0.04174,-0.2359583409,0.04174,71.98976795,
0.04176,1.225762836,0.04176,70.89347707,
0.04178,0.4949022474,0.04178,71.25890736,
0.0418,-0.2359583409,0.0418,71.62433766,
0.04182,-0.2359583409,0.04182,71.62433766,
0.04184,-1.332249223,0.04184,71.62433766,
0.04186,-1.332249223,0.04186,71.25890736,
0.04188,-0.6013886351,0.04188,70.89347707,
0.0419,-2.063109812,0.0419,71.98976795,
0.04192,-0.6013886351,0.04192,70.89347707,
0.04194,0.1294719532,0.04194,71.25890736,
0.04196,1.225762836,0.04196,71.62433766,
0.04198,1.225762836,0.04198,71.25890736,
0.042,0.8603325416,0.042,71.25890736,
0.04202,1.59119313,0.04202,71.25890736,
0.04204,1.59119313,0.04204,71.25890736,
0.04206,1.956623424,0.04206,71.62433766,
0.04208,1.225762836,0.04208,71.25890736,
0.0421,1.225762836,0.0421,71.25890736,
0.04212,0.8603325416,0.04212,71.25890736,
0.04214,1.225762836,0.04214,71.25890736,
0.04216,1.59119313,0.04216,71.25890736,
0.04218,1.59119313,0.04218,71.25890736,
0.0422,0.8603325416,0.0422,71.62433766,
0.04222,1.956623424,0.04222,71.25890736,
0.04224,0.8603325416,0.04224,71.25890736,
0.04226,1.225762836,0.04226,71.25890736,
0.04228,2.687484012,0.04228,70.52804678,
0.0423,1.59119313,0.0423,71.98976795,
0.04232,0.1294719532,0.04232,71.25890736,
0.04234,-0.6013886351,0.04234,71.25890736,
0.04236,0.1294719532,0.04236,71.62433766,
0.04238,0.1294719532,0.04238,71.25890736,
0.0424,-0.6013886351,0.0424,71.62433766,
0.04242,-0.2359583409,0.04242,71.62433766,
0.04244,0.1294719532,0.04244,70.89347707,
0.04246,0.8603325416,0.04246,71.62433766,
0.04248,1.225762836,0.04248,71.25890736,
0.0425,0.4949022474,0.0425,70.89347707,
0.04252,0.1294719532,0.04252,70.52804678,
0.04254,-0.6013886351,0.04254,71.25890736,
0.04256,-1.332249223,0.04256,71.25890736,
0.04258,-1.332249223,0.04258,71.62433766,
0.0426,0.4949022474,0.0426,71.25890736,
0.04262,-2.428540106,0.04262,70.89347707,
0.04264,-0.2359583409,0.04264,71.62433766,
0.04266,-1.332249223,0.04266,71.62433766,
0.04268,-2.063109812,0.04268,70.16261648,
0.0427,-0.9668189293,0.0427,71.62433766,
0.04272,-0.9668189293,0.04272,71.25890736,
0.04274,-0.9668189293,0.04274,70.89347707,
0.04276,0.4949022474,0.04276,71.25890736,
0.04278,0.1294719532,0.04278,70.52804678,
0.0428,-0.9668189293,0.0428,70.89347707,
0.04282,-0.6013886351,0.04282,71.25890736,
0.04284,-0.6013886351,0.04284,71.25890736,
0.04286,-0.6013886351,0.04286,70.52804678,
0.04288,-0.6013886351,0.04288,71.62433766,
0.0429,-1.697679518,0.0429,71.25890736,
0.04292,0.4949022474,0.04292,70.89347707,
0.04294,1.59119313,0.04294,71.62433766,
0.04296,0.4949022474,0.04296,70.89347707,
0.04298,1.225762836,0.04298,71.25890736,
0.043,1.225762836,0.043,71.62433766,
0.04302,-0.2359583409,0.04302,71.25890736,
0.04304,1.225762836,0.04304,70.89347707,
0.04306,1.225762836,0.04306,71.25890736,
0.04308,-0.6013886351,0.04308,71.25890736,
0.0431,0.1294719532,0.0431,70.89347707,
0.04312,1.225762836,0.04312,71.98976795,
0.04314,1.225762836,0.04314,71.25890736,
0.04316,0.8603325416,0.04316,70.89347707,
0.04318,1.956623424,0.04318,71.62433766,
0.0432,1.225762836,0.0432,70.89347707,
0.04322,1.59119313,0.04322,70.89347707,
0.04324,2.322053718,0.04324,71.25890736,
0.04326,0.8603325416,0.04326,70.89347707,
0.04328,1.59119313,0.04328,70.89347707,
0.0433,1.59119313,0.0433,71.62433766,
0.04332,0.4949022474,0.04332,71.25890736,
0.04334,-0.2359583409,0.04334,70.89347707,
0.04336,0.8603325416,0.04336,71.62433766,
0.04338,-0.9668189293,0.04338,71.25890736,
0.0434,-0.9668189293,0.0434,70.89347707,
0.04342,0.1294719532,0.04342,71.25890736,
0.04344,-0.6013886351,0.04344,71.25890736,
0.04346,1.225762836,0.04346,70.52804678,
0.04348,1.59119313,0.04348,71.62433766,
0.0435,0.1294719532,0.0435,71.62433766,
0.04352,-0.9668189293,0.04352,71.25890736,
0.04354,1.59119313,0.04354,71.25890736,
0.04356,-0.9668189293,0.04356,71.98976795,
0.04358,-2.428540106,0.04358,70.52804678,
0.0436,-1.332249223,0.0436,71.25890736,
0.04362,-2.7939704,0.04362,71.98976795,
0.04364,-1.697679518,0.04364,70.89347707,
0.04366,-1.697679518,0.04366,71.98976795,
0.04368,-0.9668189293,0.04368,71.25890736,
0.0437,0.1294719532,0.0437,71.25890736,
0.04372,0.4949022474,0.04372,71.62433766,
0.04374,-0.9668189293,0.04374,71.25890736,
0.04376,0.1294719532,0.04376,70.89347707,
0.04378,0.1294719532,0.04378,71.62433766,
0.0438,-1.332249223,0.0438,71.25890736,
0.04382,-0.9668189293,0.04382,70.89347707,
0.04384,-1.332249223,0.04384,71.98976795,
0.04386,-0.2359583409,0.04386,71.62433766,
0.04388,-0.6013886351,0.04388,71.25890736,
0.0439,-0.2359583409,0.0439,71.62433766,
0.04392,-0.2359583409,0.04392,71.25890736,
0.04394,1.956623424,0.04394,70.89347707,
0.04396,1.59119313,0.04396,71.25890736,
0.04398,1.225762836,0.04398,70.89347707,
0.044,1.225762836,0.044,71.25890736,
0.04402,0.8603325416,0.04402,71.62433766,
0.04404,-0.2359583409,0.04404,70.89347707,
0.04406,0.8603325416,0.04406,70.89347707,
0.04408,1.956623424,0.04408,71.62433766,
0.0441,1.225762836,0.0441,71.25890736,
0.04412,0.1294719532,0.04412,70.89347707,
0.04414,1.225762836,0.04414,71.62433766,
0.04416,0.4949022474,0.04416,71.25890736,
0.04418,1.956623424,0.04418,70.89347707,
0.0442,1.59119313,0.0442,71.62433766,
0.04422,1.225762836,0.04422,71.25890736,
0.04424,0.8603325416,0.04424,71.25890736,
0.04426,2.687484012,0.04426,71.62433766,
0.04428,1.225762836,0.04428,71.25890736,
0.0443,1.225762836,0.0443,71.25890736,
0.04432,0.1294719532,0.04432,71.25890736,
0.04434,-0.2359583409,0.04434,71.25890736,
0.04436,-0.9668189293,0.04436,70.89347707,
0.04438,-0.6013886351,0.04438,71.25890736,
0.0444,-0.6013886351,0.0444,71.25890736,
0.04442,1.956623424,0.04442,71.62433766,
0.04444,2.322053718,0.04444,71.62433766,
0.04446,0.1294719532,0.04446,71.62433766,
0.04448,0.4949022474,0.04448,71.62433766,
0.0445,-0.6013886351,0.0445,71.98976795,
0.04452,-0.6013886351,0.04452,71.25890736,
0.04454,-2.063109812,0.04454,70.89347707,
0.04456,-1.697679518,0.04456,70.89347707,
0.04458,-2.7939704,0.04458,71.98976795,
0.0446,-1.332249223,0.0446,71.98976795,
0.04462,-0.2359583409,0.04462,71.62433766,
0.04464,-1.332249223,0.04464,70.52804678,
0.04466,-1.332249223,0.04466,70.52804678,
0.04468,-1.332249223,0.04468,71.62433766,
0.0447,0.1294719532,0.0447,71.25890736,
0.04472,0.4949022474,0.04472,70.89347707,
0.04474,-0.2359583409,0.04474,71.25890736,
0.04476,-1.332249223,0.04476,71.25890736,
0.04478,-0.6013886351,0.04478,71.25890736,
0.0448,-2.063109812,0.0448,71.62433766,
0.04482,-1.332249223,0.04482,71.62433766,
0.04484,-0.6013886351,0.04484,71.25890736,
0.04486,0.1294719532,0.04486,71.62433766,
0.04488,0.1294719532,0.04488,71.25890736,
0.0449,1.956623424,0.0449,70.89347707,
0.04492,0.4949022474,0.04492,71.62433766,
0.04494,0.8603325416,0.04494,71.62433766,
0.04496,1.225762836,0.04496,71.25890736,
0.04498,1.59119313,0.04498,71.62433766,
0.045,0.4949022474,0.045,71.25890736,
0.04502,1.225762836,0.04502,71.25890736,
0.04504,0.4949022474,0.04504,71.25890736,
0.04506,-0.6013886351,0.04506,71.25890736,
0.04508,0.4949022474,0.04508,70.89347707,
0.0451,0.1294719532,0.0451,71.25890736,
0.04512,1.225762836,0.04512,71.25890736,
0.04514,1.59119313,0.04514,71.25890736,
0.04516,1.225762836,0.04516,71.62433766,
0.04518,2.322053718,0.04518,71.62433766,
0.0452,3.052914307,0.0452,71.62433766,
0.04522,3.052914307,0.04522,71.62433766,
0.04524,1.225762836,0.04524,71.25890736,
0.04526,1.225762836,0.04526,71.25890736,
0.04528,0.8603325416,0.04528,71.98976795,
0.0453,-0.2359583409,0.0453,70.89347707,
0.04532,0.4949022474,0.04532,70.89347707,
0.04534,-0.2359583409,0.04534,71.62433766,
0.04536,-0.9668189293,0.04536,71.62433766,
0.04538,1.59119313,0.04538,70.89347707,
0.0454,1.59119313,0.0454,71.25890736,
0.04542,0.1294719532,0.04542,71.25890736,
0.04544,1.59119313,0.04544,71.25890736,
0.04546,3.052914307,0.04546,71.62433766,
0.04548,-1.697679518,0.04548,71.98976795,
0.0455,1.225762836,0.0455,70.89347707,
0.04552,-2.7939704,0.04552,70.16261648,
0.04554,-3.159400694,0.04554,71.62433766,
0.04556,-1.332249223,0.04556,71.62433766,
0.04558,-1.332249223,0.04558,72.35519825,
0.0456,-3.890261283,0.0456,71.98976795,
0.04562,-0.2359583409,0.04562,70.16261648,
0.04564,-1.332249223,0.04564,71.98976795,
0.04566,-0.9668189293,0.04566,71.25890736,
0.04568,0.8603325416,0.04568,71.25890736,
0.0457,0.4949022474,0.0457,71.62433766,
0.04572,-0.6013886351,0.04572,71.62433766,
0.04574,-1.332249223,0.04574,71.25890736,
0.04576,-0.9668189293,0.04576,71.62433766,
0.04578,-0.9668189293,0.04578,71.25890736,
0.0458,-1.697679518,0.0458,71.25890736,
0.04582,-0.9668189293,0.04582,71.62433766,
0.04584,0.1294719532,0.04584,71.25890736,
0.04586,0.8603325416,0.04586,71.25890736,
0.04588,1.225762836,0.04588,71.62433766,
0.0459,-0.2359583409,0.0459,71.25890736,
0.04592,1.225762836,0.04592,70.89347707,
0.04594,1.59119313,0.04594,71.98976795,
0.04596,0.1294719532,0.04596,71.25890736,
0.04598,0.8603325416,0.04598,71.25890736,
0.046,1.59119313,0.046,71.62433766,
0.04602,0.4949022474,0.04602,71.25890736,
0.04604,1.956623424,0.04604,71.25890736,
0.04606,0.1294719532,0.04606,71.62433766,
0.04608,0.4949022474,0.04608,71.62433766,
0.0461,1.59119313,0.0461,71.62433766,
0.04612,0.8603325416,0.04612,71.98976795,
0.04614,0.8603325416,0.04614,71.25890736,
0.04616,2.322053718,0.04616,71.25890736,
0.04618,1.59119313,0.04618,70.89347707,
0.0462,1.59119313,0.0462,71.25890736,
0.04622,1.59119313,0.04622,70.89347707,
0.04624,0.4949022474,0.04624,70.52804678,
0.04626,0.4949022474,0.04626,70.89347707,
0.04628,1.225762836,0.04628,70.89347707,
0.0463,0.1294719532,0.0463,71.25890736,
0.04632,-0.2359583409,0.04632,71.25890736,
0.04634,0.8603325416,0.04634,70.89347707,
0.04636,1.225762836,0.04636,70.52804678,
0.04638,0.1294719532,0.04638,71.25890736,
0.0464,0.4949022474,0.0464,71.25890736,
0.04642,-1.332249223,0.04642,70.89347707,
0.04644,2.322053718,0.04644,70.89347707,
0.04646,-0.2359583409,0.04646,70.89347707,
0.04648,0.4949022474,0.04648,71.62433766,
0.0465,-1.332249223,0.0465,71.98976795,
0.04652,-1.332249223,0.04652,70.89347707,
0.04654,-2.428540106,0.04654,70.16261648,
0.04656,1.225762836,0.04656,70.89347707,
0.04658,-2.063109812,0.04658,71.62433766,
0.0466,-0.9668189293,0.0466,70.16261648,
0.04662,-0.6013886351,0.04662,71.25890736,
0.04664,-0.2359583409,0.04664,71.25890736,
0.04666,0.4949022474,0.04666,70.89347707,
0.04668,-0.2359583409,0.04668,70.89347707,
0.0467,-0.2359583409,0.0467,71.62433766,
0.04672,-1.697679518,0.04672,70.52804678,
0.04674,-0.6013886351,0.04674,71.25890736,
0.04676,-0.9668189293,0.04676,71.25890736,
0.04678,-0.9668189293,0.04678,70.89347707,
0.0468,0.1294719532,0.0468,71.25890736,
0.04682,0.8603325416,0.04682,71.25890736,
0.04684,1.225762836,0.04684,70.52804678,
0.04686,1.59119313,0.04686,71.62433766,
0.04688,0.8603325416,0.04688,71.25890736,
0.0469,1.59119313,0.0469,70.52804678,
0.04692,1.225762836,0.04692,71.25890736,
0.04694,0.8603325416,0.04694,71.25890736,
0.04696,0.4949022474,0.04696,70.52804678,
0.04698,0.8603325416,0.04698,70.89347707,
0.047,0.4949022474,0.047,71.25890736,
0.04702,0.8603325416,0.04702,70.52804678,
0.04704,0.8603325416,0.04704,71.25890736,
0.04706,0.1294719532,0.04706,71.25890736,
0.04708,0.4949022474,0.04708,71.25890736,
0.0471,1.59119313,0.0471,71.62433766,
0.04712,2.687484012,0.04712,71.25890736,
0.04714,2.687484012,0.04714,70.52804678,
0.04716,3.052914307,0.04716,70.89347707,
0.04718,1.225762836,0.04718,71.25890736,
0.0472,1.59119313,0.0472,71.25890736,
0.04722,1.225762836,0.04722,71.25890736,
0.04724,0.1294719532,0.04724,71.25890736,
0.04726,1.225762836,0.04726,70.89347707,
0.04728,-0.2359583409,0.04728,71.25890736,
0.0473,-0.2359583409,0.0473,71.25890736,
0.04732,-0.6013886351,0.04732,71.62433766,
0.04734,1.59119313,0.04734,71.25890736,
0.04736,0.8603325416,0.04736,71.25890736,
0.04738,1.225762836,0.04738,71.62433766,
0.0474,-0.2359583409,0.0474,70.89347707,
0.04742,2.687484012,0.04742,71.25890736,
0.04744,0.1294719532,0.04744,71.25890736,
0.04746,-0.2359583409,0.04746,71.62433766,
0.04748,0.8603325416,0.04748,71.62433766,
0.0475,-2.7939704,0.0475,71.98976795,
0.04752,-1.697679518,0.04752,71.25890736,
0.04754,-0.6013886351,0.04754,71.25890736,
0.04756,-0.9668189293,0.04756,71.98976795,
0.04758,-1.332249223,0.04758,70.52804678,
0.0476,0.1294719532,0.0476,70.16261648,
0.04762,1.225762836,0.04762,70.89347707,
0.04764,-1.332249223,0.04764,71.25890736,
0.04766,-0.2359583409,0.04766,71.25890736,
0.04768,-0.6013886351,0.04768,71.98976795,
0.0477,-1.697679518,0.0477,71.25890736,
0.04772,-0.9668189293,0.04772,70.89347707,
0.04774,-0.2359583409,0.04774,71.25890736,
0.04776,-0.6013886351,0.04776,71.25890736,
0.04778,1.225762836,0.04778,70.89347707,
0.0478,-0.2359583409,0.0478,71.62433766,
0.04782,0.4949022474,0.04782,71.62433766,
0.04784,0.4949022474,0.04784,71.25890736,
0.04786,1.225762836,0.04786,71.62433766,
0.04788,0.1294719532,0.04788,71.62433766,
0.0479,1.225762836,0.0479,70.89347707,
0.04792,0.4949022474,0.04792,71.62433766,
0.04794,0.8603325416,0.04794,70.89347707,
0.04796,0.4949022474,0.04796,70.89347707,
0.04798,0.8603325416,0.04798,71.25890736,
0.048,0.4949022474,0.048,71.25890736,
0.04802,1.59119313,0.04802,71.25890736,
0.04804,0.8603325416,0.04804,71.98976795,
0.04806,0.1294719532,0.04806,70.89347707,
0.04808,1.59119313,0.04808,70.89347707,
0.0481,1.956623424,0.0481,71.62433766,
0.04812,0.8603325416,0.04812,71.25890736,
0.04814,1.956623424,0.04814,71.25890736,
0.04816,1.59119313,0.04816,71.25890736,
0.04818,1.59119313,0.04818,71.25890736,
0.0482,0.4949022474,0.0482,71.25890736,
0.04822,0.4949022474,0.04822,71.62433766,
0.04824,-0.6013886351,0.04824,71.25890736,
0.04826,0.4949022474,0.04826,70.89347707,
0.04828,-0.9668189293,0.04828,71.62433766,
0.0483,0.4949022474,0.0483,71.25890736,
0.04832,0.4949022474,0.04832,70.89347707,
0.04834,1.225762836,0.04834,71.62433766,
0.04836,0.8603325416,0.04836,70.89347707,
0.04838,-0.6013886351,0.04838,71.62433766,
0.0484,0.4949022474,0.0484,71.98976795,
0.04842,0.8603325416,0.04842,71.25890736,
0.04844,-1.332249223,0.04844,71.25890736,
0.04846,-0.9668189293,0.04846,71.62433766,
0.04848,0.4949022474,0.04848,71.25890736,
0.0485,-2.7939704,0.0485,70.89347707,
0.04852,-2.063109812,0.04852,71.98976795,
0.04854,1.225762836,0.04854,70.89347707,
0.04856,-0.6013886351,0.04856,71.25890736,
0.04858,0.1294719532,0.04858,71.62433766,
0.0486,-0.2359583409,0.0486,71.25890736,
0.04862,0.4949022474,0.04862,71.62433766,
0.04864,-0.9668189293,0.04864,71.98976795,
0.04866,-1.332249223,0.04866,71.25890736,
0.04868,-0.6013886351,0.04868,71.98976795,
0.0487,-0.9668189293,0.0487,71.62433766,
0.04872,-1.332249223,0.04872,71.25890736,
0.04874,-1.332249223,0.04874,71.25890736,
0.04876,-0.9668189293,0.04876,71.98976795,
0.04878,-0.2359583409,0.04878,71.25890736,
0.0488,1.225762836,0.0488,71.25890736,
0.04882,1.59119313,0.04882,71.25890736,
0.04884,0.8603325416,0.04884,71.62433766,
0.04886,1.59119313,0.04886,71.25890736,
0.04888,1.59119313,0.04888,71.62433766,
0.0489,0.4949022474,0.0489,71.25890736,
0.04892,0.1294719532,0.04892,71.62433766,
0.04894,0.4949022474,0.04894,71.62433766,
0.04896,-0.6013886351,0.04896,71.62433766,
0.04898,-0.2359583409,0.04898,71.25890736,
0.049,0.1294719532,0.049,72.35519825,
0.04902,1.225762836,0.04902,71.25890736,
0.04904,0.1294719532,0.04904,71.25890736,
0.04906,2.322053718,0.04906,71.62433766,
0.04908,1.956623424,0.04908,70.89347707,
0.0491,1.956623424,0.0491,71.25890736,
0.04912,2.322053718,0.04912,71.25890736,
0.04914,1.59119313,0.04914,70.89347707,
0.04916,1.956623424,0.04916,71.25890736,
0.04918,0.8603325416,0.04918,71.25890736,
0.0492,-0.2359583409,0.0492,70.89347707,
0.04922,0.8603325416,0.04922,70.89347707,
0.04924,0.1294719532,0.04924,70.89347707,
0.04926,-1.332249223,0.04926,70.89347707,
0.04928,0.1294719532,0.04928,70.89347707,
0.0493,0.8603325416,0.0493,71.25890736,
0.04932,1.225762836,0.04932,70.89347707,
0.04934,0.4949022474,0.04934,71.62433766,
0.04936,1.956623424,0.04936,71.25890736,
0.04938,-0.6013886351,0.04938,70.52804678,
0.0494,0.4949022474,0.0494,70.89347707,
0.04942,-0.6013886351,0.04942,71.98976795,
0.04944,-1.697679518,0.04944,71.98976795,
0.04946,-1.697679518,0.04946,71.62433766,
0.04948,-2.063109812,0.04948,71.25890736,
0.0495,-1.332249223,0.0495,70.52804678,
0.04952,-0.2359583409,0.04952,71.62433766,
0.04954,-0.9668189293,0.04954,71.25890736,
0.04956,-0.2359583409,0.04956,70.16261648,
0.04958,1.225762836,0.04958,70.89347707,
0.0496,-0.2359583409,0.0496,71.25890736,
0.04962,0.1294719532,0.04962,71.62433766,
0.04964,-0.2359583409,0.04964,70.89347707,
0.04966,-0.6013886351,0.04966,71.25890736,
0.04968,-0.9668189293,0.04968,70.89347707,
0.0497,-0.2359583409,0.0497,71.62433766,
0.04972,-0.6013886351,0.04972,70.89347707,
0.04974,-0.6013886351,0.04974,71.25890736,
0.04976,0.8603325416,0.04976,70.89347707,
0.04978,1.225762836,0.04978,70.89347707,
0.0498,0.4949022474,0.0498,70.52804678,
0.04982,1.59119313,0.04982,71.25890736,
0.04984,1.225762836,0.04984,71.25890736,
0.04986,0.1294719532,0.04986,70.89347707,
0.04988,0.1294719532,0.04988,71.25890736,
0.0499,0.8603325416,0.0499,71.25890736,
0.04992,0.8603325416,0.04992,70.89347707,
0.04994,1.225762836,0.04994,71.25890736,
0.04996,0.4949022474,0.04996,71.25890736,
0.04998,-0.2359583409,0.04998,70.89347707,
0.05,0.4949022474,0.05,71.25890736,
0.05002,0.8603325416,0.05002,70.89347707,
0.05004,1.225762836,0.05004,70.89347707,
0.05006,1.59119313,0.05006,71.25890736,
0.05008,1.956623424,0.05008,71.25890736,
0.0501,2.322053718,0.0501,70.89347707,
0.05012,2.322053718,0.05012,71.25890736,
0.05014,1.225762836,0.05014,71.25890736,
0.05016,0.8603325416,0.05016,70.52804678,
0.05018,1.956623424,0.05018,71.62433766,
0.0502,0.1294719532,0.0502,71.25890736,
0.05022,0.1294719532,0.05022,70.52804678,
0.05024,0.8603325416,0.05024,70.89347707,
0.05026,-0.6013886351,0.05026,71.25890736,
0.05028,0.8603325416,0.05028,70.52804678,
0.0503,0.8603325416,0.0503,71.62433766,
0.05032,3.052914307,0.05032,70.89347707,
0.05034,0.1294719532,0.05034,70.16261648,
0.05036,0.1294719532,0.05036,71.25890736,
0.05038,2.687484012,0.05038,70.89347707,
0.0504,-0.2359583409,0.0504,71.62433766,
0.05042,-0.9668189293,0.05042,70.89347707,
0.05044,-2.7939704,0.05044,70.52804678,
0.05046,-2.7939704,0.05046,70.89347707,
0.05048,-1.697679518,0.05048,71.25890736,
0.0505,0.1294719532,0.0505,71.62433766,
0.05052,-0.6013886351,0.05052,71.25890736,
0.05054,0.1294719532,0.05054,70.89347707,
0.05056,-0.6013886351,0.05056,71.25890736,
0.05058,-0.9668189293,0.05058,70.89347707,
0.0506,-1.697679518,0.0506,71.25890736,
0.05062,-0.2359583409,0.05062,71.25890736,
0.05064,-1.697679518,0.05064,70.52804678,
0.05066,-1.332249223,0.05066,71.25890736,
0.05068,0.1294719532,0.05068,71.25890736,
0.0507,-0.9668189293,0.0507,70.89347707,
0.05072,0.1294719532,0.05072,71.25890736,
0.05074,0.4949022474,0.05074,71.25890736,
0.05076,0.8603325416,0.05076,71.62433766,
0.05078,1.225762836,0.05078,70.89347707,
0.0508,1.59119313,0.0508,70.89347707,
0.05082,0.8603325416,0.05082,70.52804678,
0.05084,0.8603325416,0.05084,71.25890736,
0.05086,0.4949022474,0.05086,71.25890736,
0.05088,0.4949022474,0.05088,70.52804678,
0.0509,0.4949022474,0.0509,71.25890736,
0.05092,0.4949022474,0.05092,71.62433766,
0.05094,-0.2359583409,0.05094,70.89347707,
0.05096,-0.6013886351,0.05096,70.89347707,
0.05098,0.4949022474,0.05098,70.89347707,
0.051,0.8603325416,0.051,71.62433766,
0.05102,1.59119313,0.05102,71.25890736,
0.05104,0.8603325416,0.05104,70.89347707,
0.05106,2.322053718,0.05106,71.25890736,
0.05108,1.59119313,0.05108,70.89347707,
0.0511,0.8603325416,0.0511,70.89347707,
0.05112,1.59119313,0.05112,71.25890736,
0.05114,0.4949022474,0.05114,71.25890736,
0.05116,-0.2359583409,0.05116,70.89347707,
0.05118,-0.2359583409,0.05118,71.62433766,
0.0512,-0.9668189293,0.0512,70.89347707,
0.05122,-0.6013886351,0.05122,70.89347707,
0.05124,-0.2359583409,0.05124,71.62433766,
0.05126,-0.9668189293,0.05126,71.25890736,
0.05128,0.4949022474,0.05128,70.89347707,
0.0513,0.4949022474,0.0513,71.25890736,
0.05132,-0.9668189293,0.05132,71.25890736,
0.05134,-0.2359583409,0.05134,70.89347707,
0.05136,-0.9668189293,0.05136,71.25890736,
0.05138,-0.6013886351,0.05138,70.89347707,
0.0514,-1.697679518,0.0514,71.25890736,
0.05142,-1.697679518,0.05142,71.25890736,
0.05144,-2.428540106,0.05144,70.89347707,
0.05146,0.1294719532,0.05146,70.52804678,
0.05148,-2.063109812,0.05148,71.25890736,
0.0515,-0.6013886351,0.0515,70.89347707,
0.05152,-0.2359583409,0.05152,71.25890736,
0.05154,-0.9668189293,0.05154,71.25890736,
0.05156,-0.2359583409,0.05156,71.25890736,
0.05158,-1.332249223,0.05158,70.52804678,
0.0516,-0.2359583409,0.0516,71.25890736,
0.05162,-1.332249223,0.05162,71.25890736,
0.05164,-0.9668189293,0.05164,70.89347707,
0.05166,0.1294719532,0.05166,71.25890736,
0.05168,-0.6013886351,0.05168,71.25890736,
0.0517,-0.2359583409,0.0517,70.89347707,
0.05172,0.8603325416,0.05172,71.25890736,
0.05174,0.4949022474,0.05174,71.25890736,
0.05176,1.225762836,0.05176,70.89347707,
0.05178,1.225762836,0.05178,71.62433766,
0.0518,0.4949022474,0.0518,70.89347707,
0.05182,0.8603325416,0.05182,70.89347707,
0.05184,0.8603325416,0.05184,71.62433766,
0.05186,0.1294719532,0.05186,71.25890736,
0.05188,1.59119313,0.05188,70.89347707,
0.0519,1.225762836,0.0519,71.62433766,
0.05192,0.1294719532,0.05192,71.25890736,
0.05194,0.8603325416,0.05194,71.25890736,
0.05196,0.1294719532,0.05196,71.98976795,
0.05198,1.59119313,0.05198,71.62433766,
0.052,1.59119313,0.052,70.89347707,
0.05202,2.687484012,0.05202,71.62433766,
0.05204,1.956623424,0.05204,71.25890736,
0.05206,1.956623424,0.05206,70.52804678,
0.05208,1.59119313,0.05208,71.25890736,
0.0521,0.4949022474,0.0521,70.89347707,
0.05212,1.956623424,0.05212,70.89347707,
0.05214,0.1294719532,0.05214,71.62433766,
0.05216,-0.2359583409,0.05216,71.25890736,
0.05218,0.4949022474,0.05218,70.89347707,
0.0522,0.1294719532,0.0522,70.89347707,
0.05222,0.1294719532,0.05222,70.89347707,
0.05224,0.8603325416,0.05224,71.25890736,
0.05226,1.59119313,0.05226,71.25890736,
0.05228,1.59119313,0.05228,70.89347707,
0.0523,-0.6013886351,0.0523,71.25890736,
0.05232,2.322053718,0.05232,71.25890736,
0.05234,-0.6013886351,0.05234,71.98976795,
0.05236,-1.697679518,0.05236,71.62433766,
0.05238,-0.6013886351,0.05238,70.89347707,
0.0524,-1.697679518,0.0524,72.35519825,
0.05242,-2.063109812,0.05242,70.52804678,
0.05244,-0.2359583409,0.05244,70.52804678,
0.05246,-1.332249223,0.05246,71.62433766,
0.05248,0.1294719532,0.05248,70.52804678,
0.0525,-0.6013886351,0.0525,71.62433766,
0.05252,1.59119313,0.05252,70.89347707,
0.05254,-0.6013886351,0.05254,71.25890736,
0.05256,-0.2359583409,0.05256,71.25890736,
0.05258,-1.697679518,0.05258,71.25890736,
0.0526,-0.6013886351,0.0526,71.62433766,
0.05262,-2.7939704,0.05262,71.25890736,
0.05264,-1.697679518,0.05264,71.25890736,
0.05266,-0.2359583409,0.05266,71.25890736,
0.05268,-0.2359583409,0.05268,71.62433766,
0.0527,-0.2359583409,0.0527,71.25890736,
0.05272,0.4949022474,0.05272,70.89347707,
0.05274,0.4949022474,0.05274,71.25890736,
0.05276,1.59119313,0.05276,71.25890736,
0.05278,1.59119313,0.05278,70.89347707,
0.0528,-0.2359583409,0.0528,71.62433766,
0.05282,1.225762836,0.05282,71.25890736,
0.05284,0.8603325416,0.05284,71.25890736,
0.05286,1.59119313,0.05286,70.89347707,
0.05288,1.59119313,0.05288,71.25890736,
0.0529,0.8603325416,0.0529,71.25890736,
0.05292,1.59119313,0.05292,71.25890736,
0.05294,1.225762836,0.05294,71.25890736,
0.05296,1.225762836,0.05296,71.62433766,
0.05298,2.322053718,0.05298,71.25890736,
0.053,1.956623424,0.053,71.25890736,
0.05302,1.225762836,0.05302,71.62433766,
0.05304,1.59119313,0.05304,71.25890736,
0.05306,1.225762836,0.05306,71.25890736,
0.05308,1.59119313,0.05308,71.25890736,
0.0531,0.8603325416,0.0531,70.89347707,
0.05312,0.1294719532,0.05312,71.25890736,
0.05314,0.1294719532,0.05314,71.62433766,
0.05316,-0.2359583409,0.05316,70.89347707,
0.05318,0.1294719532,0.05318,71.25890736,
0.0532,0.8603325416,0.0532,71.25890736,
0.05322,1.59119313,0.05322,71.62433766,
0.05324,1.225762836,0.05324,71.25890736,
0.05326,1.956623424,0.05326,70.89347707,
0.05328,0.4949022474,0.05328,71.98976795,
0.0533,2.322053718,0.0533,71.62433766,
0.05332,-0.9668189293,0.05332,71.25890736,
0.05334,-0.9668189293,0.05334,71.62433766,
0.05336,-2.7939704,0.05336,70.16261648,
0.05338,-2.428540106,0.05338,72.35519825,
0.0534,-1.697679518,0.0534,71.25890736,
0.05342,-1.332249223,0.05342,70.89347707,
0.05344,-0.9668189293,0.05344,71.62433766,
0.05346,0.4949022474,0.05346,70.52804678,
0.05348,0.1294719532,0.05348,71.25890736,
0.0535,0.8603325416,0.0535,71.25890736,
0.05352,1.59119313,0.05352,71.25890736,
0.05354,-0.6013886351,0.05354,71.25890736,
0.05356,-0.2359583409,0.05356,71.62433766,
0.05358,-0.9668189293,0.05358,71.62433766,
0.0536,-0.9668189293,0.0536,71.25890736,
0.05362,-0.2359583409,0.05362,71.25890736,
0.05364,-0.6013886351,0.05364,71.25890736,
0.05366,-0.2359583409,0.05366,71.25890736,
0.05368,2.322053718,0.05368,71.25890736,
0.0537,1.59119313,0.0537,71.25890736,
0.05372,2.322053718,0.05372,71.25890736,
0.05374,1.225762836,0.05374,71.25890736,
0.05376,0.1294719532,0.05376,71.25890736,
0.05378,0.1294719532,0.05378,71.98976795,
0.0538,0.8603325416,0.0538,70.89347707,
0.05382,0.8603325416,0.05382,71.62433766,
0.05384,0.8603325416,0.05384,71.25890736,
0.05386,0.8603325416,0.05386,70.89347707,
0.05388,1.225762836,0.05388,71.25890736,
0.0539,0.1294719532,0.0539,70.89347707,
0.05392,0.4949022474,0.05392,70.89347707,
0.05394,1.956623424,0.05394,71.25890736,
0.05396,0.4949022474,0.05396,71.25890736,
0.05398,1.225762836,0.05398,71.25890736,
0.054,1.59119313,0.054,71.62433766,
0.05402,2.322053718,0.05402,70.89347707,
0.05404,0.8603325416,0.05404,70.89347707,
0.05406,1.59119313,0.05406,71.25890736,
0.05408,0.1294719532,0.05408,70.89347707,
0.0541,0.4949022474,0.0541,70.89347707,
0.05412,0.1294719532,0.05412,71.25890736,
0.05414,0.1294719532,0.05414,71.25890736,
0.05416,-0.2359583409,0.05416,70.89347707,
0.05418,0.1294719532,0.05418,71.98976795,
0.0542,-0.2359583409,0.0542,70.89347707,
0.05422,0.1294719532,0.05422,70.52804678,
0.05424,-0.2359583409,0.05424,71.62433766,
0.05426,-0.9668189293,0.05426,70.89347707,
0.05428,1.225762836,0.05428,70.89347707,
0.0543,-1.332249223,0.0543,71.62433766,
0.05432,-0.9668189293,0.05432,71.62433766,
0.05434,0.1294719532,0.05434,71.98976795,
0.05436,-2.428540106,0.05436,72.35519825,
0.05438,-3.159400694,0.05438,71.62433766,
0.0544,-2.428540106,0.0544,70.89347707,
0.05442,0.8603325416,0.05442,71.25890736,
0.05444,-2.063109812,0.05444,70.89347707,
0.05446,-0.6013886351,0.05446,70.89347707,
0.05448,-0.6013886351,0.05448,71.98976795,
0.0545,-0.9668189293,0.0545,70.89347707,
0.05452,-1.332249223,0.05452,70.89347707,
0.05454,-0.9668189293,0.05454,71.62433766,
0.05456,-0.9668189293,0.05456,70.89347707,
0.05458,-0.9668189293,0.05458,70.89347707,
0.0546,-0.9668189293,0.0546,71.62433766,
0.05462,-1.332249223,0.05462,70.89347707,
0.05464,0.1294719532,0.05464,70.89347707,
0.05466,0.1294719532,0.05466,71.62433766,
0.05468,0.1294719532,0.05468,71.25890736,
0.0547,1.225762836,0.0547,70.89347707,
0.05472,0.1294719532,0.05472,71.62433766,
0.05474,1.225762836,0.05474,71.25890736,
0.05476,1.225762836,0.05476,71.25890736,
0.05478,0.8603325416,0.05478,71.25890736,
0.0548,0.4949022474,0.0548,71.25890736,
0.05482,0.1294719532,0.05482,70.89347707,
0.05484,1.225762836,0.05484,71.62433766,
0.05486,0.4949022474,0.05486,70.89347707,
0.05488,0.1294719532,0.05488,70.89347707,
0.0549,0.1294719532,0.0549,71.25890736,
0.05492,1.225762836,0.05492,71.25890736,
0.05494,1.59119313,0.05494,70.89347707,
0.05496,1.225762836,0.05496,71.25890736,
0.05498,1.59119313,0.05498,70.89347707,
0.055,1.225762836,0.055,70.89347707,
0.05502,1.225762836,0.05502,71.62433766,
0.05504,0.1294719532,0.05504,71.62433766,
0.05506,0.4949022474,0.05506,70.89347707,
0.05508,0.4949022474,0.05508,71.62433766,
0.0551,-0.2359583409,0.0551,71.25890736,
0.05512,0.4949022474,0.05512,70.89347707,
0.05514,-0.9668189293,0.05514,71.62433766,
0.05516,-0.6013886351,0.05516,71.25890736,
0.05518,0.4949022474,0.05518,70.89347707,
0.0552,1.59119313,0.0552,71.25890736,
0.05522,-0.2359583409,0.05522,70.89347707,
0.05524,-0.2359583409,0.05524,71.62433766,
0.05526,-1.697679518,0.05526,71.98976795,
0.05528,0.1294719532,0.05528,71.98976795,
0.0553,-2.7939704,0.0553,70.52804678,
0.05532,-1.332249223,0.05532,72.35519825,
0.05534,-2.063109812,0.05534,71.25890736,
0.05536,-2.428540106,0.05536,70.16261648,
0.05538,-0.9668189293,0.05538,71.98976795,
0.0554,-2.063109812,0.0554,71.62433766,
0.05542,-0.9668189293,0.05542,71.25890736,
0.05544,-0.9668189293,0.05544,71.62433766,
0.05546,-0.6013886351,0.05546,70.89347707,
0.05548,0.1294719532,0.05548,71.62433766,
0.0555,-0.2359583409,0.0555,71.62433766,
0.05552,-1.697679518,0.05552,71.25890736,
0.05554,-0.9668189293,0.05554,70.89347707,
0.05556,-0.2359583409,0.05556,71.62433766,
0.05558,-1.697679518,0.05558,71.25890736,
0.0556,-2.428540106,0.0556,71.25890736,
0.05562,-0.2359583409,0.05562,71.62433766,
0.05564,0.1294719532,0.05564,71.25890736,
0.05566,0.8603325416,0.05566,70.89347707,
0.05568,2.322053718,0.05568,70.89347707,
0.0557,1.956623424,0.0557,71.25890736,
0.05572,1.59119313,0.05572,71.25890736,
0.05574,1.59119313,0.05574,71.62433766,
0.05576,-0.2359583409,0.05576,71.25890736,
0.05578,1.59119313,0.05578,70.89347707,
0.0558,0.1294719532,0.0558,71.62433766,
0.05582,0.1294719532,0.05582,71.25890736,
0.05584,0.1294719532,0.05584,70.89347707,
0.05586,0.8603325416,0.05586,71.62433766,
0.05588,-0.2359583409,0.05588,71.25890736,
0.0559,1.59119313,0.0559,71.25890736,
0.05592,0.8603325416,0.05592,71.62433766,
0.05594,1.225762836,0.05594,70.89347707,
0.05596,2.322053718,0.05596,71.25890736,
0.05598,0.8603325416,0.05598,71.98976795,
0.056,-0.6013886351,0.056,71.25890736,
0.05602,1.956623424,0.05602,71.25890736,
0.05604,0.8603325416,0.05604,71.98976795,
0.05606,-0.6013886351,0.05606,71.25890736,
0.05608,0.8603325416,0.05608,71.25890736,
0.0561,-0.6013886351,0.0561,71.62433766,
0.05612,0.1294719532,0.05612,71.25890736,
0.05614,0.4949022474,0.05614,71.62433766,
0.05616,0.4949022474,0.05616,71.62433766,
0.05618,0.8603325416,0.05618,71.62433766,
0.0562,0.1294719532,0.0562,70.52804678,
0.05622,-0.2359583409,0.05622,71.25890736,
0.05624,0.4949022474,0.05624,71.62433766,
0.05626,0.4949022474,0.05626,72.35519825,
0.05628,-0.9668189293,0.05628,71.62433766,
0.0563,-2.7939704,0.0563,71.98976795,
0.05632,-1.332249223,0.05632,71.98976795,
0.05634,-0.2359583409,0.05634,71.98976795,
0.05636,-1.697679518,0.05636,70.52804678,
0.05638,0.4949022474,0.05638,71.25890736,
0.0564,-0.9668189293,0.0564,71.62433766,
0.05642,0.4949022474,0.05642,70.52804678,
0.05644,0.4949022474,0.05644,70.89347707,
0.05646,-1.332249223,0.05646,71.98976795,
0.05648,-0.9668189293,0.05648,71.25890736,
0.0565,-0.9668189293,0.0565,70.89347707,
0.05652,-1.697679518,0.05652,71.98976795,
0.05654,-1.332249223,0.05654,71.62433766,
0.05656,-0.9668189293,0.05656,71.62433766,
0.05658,-0.9668189293,0.05658,71.62433766,
0.0566,-0.6013886351,0.0566,71.62433766,
0.05662,0.4949022474,0.05662,71.62433766,
0.05664,0.1294719532,0.05664,71.62433766,
0.05666,1.225762836,0.05666,71.62433766,
0.05668,1.225762836,0.05668,71.25890736,
0.0567,1.59119313,0.0567,71.62433766,
0.05672,-0.2359583409,0.05672,71.25890736,
0.05674,0.8603325416,0.05674,70.89347707,
0.05676,1.59119313,0.05676,71.62433766,
0.05678,0.8603325416,0.05678,71.62433766,
0.0568,0.8603325416,0.0568,71.25890736,
0.05682,0.4949022474,0.05682,71.62433766,
0.05684,0.4949022474,0.05684,70.89347707,
0.05686,1.956623424,0.05686,70.52804678,
0.05688,2.322053718,0.05688,71.62433766,
0.0569,1.225762836,0.0569,71.25890736,
0.05692,1.956623424,0.05692,71.25890736,
0.05694,1.59119313,0.05694,71.62433766,
0.05696,0.4949022474,0.05696,71.25890736,
0.05698,2.322053718,0.05698,70.89347707,
0.057,0.8603325416,0.057,71.25890736,
0.05702,-0.2359583409,0.05702,71.62433766,
0.05704,0.1294719532,0.05704,70.89347707,
0.05706,-0.6013886351,0.05706,71.25890736,
0.05708,-0.2359583409,0.05708,71.25890736,
0.0571,1.225762836,0.0571,70.89347707,
0.05712,0.1294719532,0.05712,71.62433766,
0.05714,-0.6013886351,0.05714,71.25890736,
0.05716,1.225762836,0.05716,70.89347707,
0.05718,0.8603325416,0.05718,71.98976795,
0.0572,-0.9668189293,0.0572,71.25890736,
0.05722,-0.2359583409,0.05722,69.79718619,
0.05724,-0.9668189293,0.05724,71.62433766,
0.05726,0.8603325416,0.05726,71.62433766,
0.05728,1.225762836,0.05728,70.16261648,
0.0573,-2.063109812,0.0573,70.89347707,
0.05732,-3.524830988,0.05732,70.89347707,
0.05734,-2.428540106,0.05734,71.25890736,
0.05736,-0.9668189293,0.05736,71.25890736,
0.05738,0.1294719532,0.05738,70.89347707,
0.0574,1.225762836,0.0574,71.62433766,
0.05742,-0.6013886351,0.05742,71.25890736,
0.05744,-0.6013886351,0.05744,70.89347707,
0.05746,-0.2359583409,0.05746,71.25890736,
0.05748,-2.063109812,0.05748,71.62433766,
0.0575,-0.2359583409,0.0575,70.89347707,
0.05752,-1.332249223,0.05752,71.25890736,
0.05754,0.1294719532,0.05754,70.89347707,
0.05756,-0.2359583409,0.05756,70.89347707,
0.05758,0.4949022474,0.05758,70.89347707,
0.0576,1.59119313,0.0576,71.25890736,
0.05762,0.4949022474,0.05762,71.25890736,
0.05764,-0.2359583409,0.05764,70.89347707,
0.05766,1.956623424,0.05766,71.25890736,
0.05768,0.1294719532,0.05768,70.89347707,
0.0577,0.4949022474,0.0577,70.52804678,
0.05772,0.8603325416,0.05772,71.25890736,
0.05774,-0.2359583409,0.05774,70.89347707,
0.05776,0.8603325416,0.05776,70.52804678,
0.05778,1.956623424,0.05778,70.89347707,
0.0578,0.1294719532,0.0578,70.89347707,
0.05782,0.1294719532,0.05782,70.52804678,
0.05784,0.8603325416,0.05784,71.25890736,
0.05786,1.225762836,0.05786,71.62433766,
0.05788,1.225762836,0.05788,70.16261648,
0.0579,1.59119313,0.0579,70.89347707,
