"A0_accX_x","A0_accX_y","A1_rmsX_x","A1_rmsX_y"
0,-0.2875059382,0,70.89347707,
2e-05,0.8087849443,2e-05,71.25890736,
4e-05,0.07792435593,4e-05,70.52804678,
6e-05,0.8087849443,6e-05,70.52804678,
8e-05,1.174215238,8e-05,71.25890736,
0.0001,0.07792435593,0.0001,70.16261648,
0.00012,-0.2875059382,0.00012,70.52804678,
0.00014,1.174215238,0.00014,70.89347707,
0.00016,1.174215238,0.00016,70.89347707,
0.00018,-0.2875059382,0.00018,70.89347707,
0.0002,0.07792435593,0.0002,71.25890736,
0.00022,0.07792435593,0.00022,70.52804678,
0.00024,0.07792435593,0.00024,70.16261648,
0.00026,-0.2875059382,0.00026,71.25890736,
0.00028,0.8087849443,0.00028,70.52804678,
0.0003,1.539645533,0.0003,70.52804678,
0.00032,1.174215238,0.00032,70.89347707,
0.00034,1.905075827,0.00034,70.89347707,
0.00036,1.174215238,0.00036,70.16261648,
0.00038,1.174215238,0.00038,71.25890736,
0.0004,-0.2875059382,0.0004,70.16261648,
0.00042,0.8087849443,0.00042,70.52804678,
0.00044,-0.2875059382,0.00044,71.62433766,
0.00046,0.4433546501,0.00046,70.52804678,
0.00048,-2.480087703,0.00048,70.52804678,
0.0005,0.4433546501,0.0005,70.52804678,
0.00052,-0.2875059382,0.00052,70.52804678,
0.00054,1.174215238,0.00054,70.52804678,
0.00056,0.4433546501,0.00056,71.25890736,
0.00058,0.4433546501,0.00058,70.89347707,
0.0006,0.4433546501,0.0006,70.52804678,
0.00062,-0.6529362324,0.00062,69.79718619,
0.00064,-2.114657409,0.00064,71.25890736,
0.00066,-1.018366527,0.00066,70.52804678,
0.00068,-2.114657409,0.00068,69.79718619,
0.0007,-3.210948292,0.0007,70.89347707,
0.00072,-3.210948292,0.00072,70.52804678,
0.00074,0.07792435593,0.00074,69.79718619,
0.00076,-2.845517997,0.00076,69.79718619,
0.00078,-1.383796821,0.00078,70.16261648,
0.0008,0.07792435593,0.0008,70.16261648,
0.00082,-0.6529362324,0.00082,70.89347707,
0.00084,0.8087849443,0.00084,70.52804678,
0.00086,-0.2875059382,0.00086,70.89347707,
0.00088,-1.383796821,0.00088,70.16261648,
0.0009,-1.018366527,0.0009,70.52804678,
0.00092,-0.6529362324,0.00092,70.52804678,
0.00094,-1.383796821,0.00094,70.52804678,
0.00096,-1.383796821,0.00096,70.16261648,
0.00098,0.07792435593,0.00098,70.89347707,
0.001,-0.6529362324,0.001,70.52804678,
0.00102,0.4433546501,0.00102,70.52804678,
0.00104,0.4433546501,0.00104,70.89347707,
0.00106,1.539645533,0.00106,70.52804678,
0.00108,0.07792435593,0.00108,70.16261648,
0.0011,1.174215238,0.0011,70.89347707,
0.00112,-1.383796821,0.00112,70.52804678,
0.00114,2.270506121,0.00114,70.52804678,
0.00116,0.4433546501,0.00116,70.89347707,
0.00118,0.07792435593,0.00118,70.52804678,
0.0012,0.4433546501,0.0012,70.52804678,
0.00122,0.8087849443,0.00122,71.25890736,
0.00124,0.07792435593,0.00124,70.89347707,
0.00126,0.4433546501,0.00126,70.89347707,
0.00128,1.539645533,0.00128,71.25890736,
0.0013,1.905075827,0.0013,70.89347707,
0.00132,1.539645533,0.00132,70.16261648,
0.00134,1.905075827,0.00134,70.89347707,
0.00136,1.539645533,0.00136,70.52804678,
0.00138,0.07792435593,0.00138,70.16261648,
0.0014,0.4433546501,0.0014,70.89347707,
0.00142,-0.6529362324,0.00142,70.52804678,
0.00144,0.07792435593,0.00144,70.52804678,
0.00146,-0.6529362324,0.00146,70.89347707,
0.00148,-0.2875059382,0.00148,70.52804678,
0.0015,-0.6529362324,0.0015,70.16261648,
0.00152,0.07792435593,0.00152,70.89347707,
0.00154,0.07792435593,0.00154,70.89347707,
0.00156,0.8087849443,0.00156,70.16261648,
0.00158,1.174215238,0.00158,70.89347707,
0.0016,-1.383796821,0.0016,70.89347707,
0.00162,-1.383796821,0.00162,70.89347707,
0.00164,-0.6529362324,0.00164,70.16261648,
0.00166,-2.845517997,0.00166,70.16261648,
0.00168,-4.307239174,0.00168,69.79718619,
0.0017,-2.480087703,0.0017,70.89347707,
0.00172,-2.114657409,0.00172,70.16261648,
0.00174,0.07792435593,0.00174,69.79718619,
0.00176,-1.383796821,0.00176,70.89347707,
0.00178,-0.6529362324,0.00178,70.89347707,
0.0018,-0.6529362324,0.0018,70.89347707,
0.00182,0.4433546501,0.00182,71.25890736,
0.00184,-0.6529362324,0.00184,70.52804678,
0.00186,-1.018366527,0.00186,70.52804678,
0.00188,-1.018366527,0.00188,70.89347707,
0.0019,-1.383796821,0.0019,70.52804678,
0.00192,-0.2875059382,0.00192,70.52804678,
0.00194,-0.6529362324,0.00194,70.89347707,
0.00196,-1.383796821,0.00196,70.52804678,
0.00198,0.8087849443,0.00198,70.52804678,
0.002,0.4433546501,0.002,71.25890736,
0.00202,0.07792435593,0.00202,70.52804678,
0.00204,0.8087849443,0.00204,70.52804678,
0.00206,1.905075827,0.00206,71.25890736,
0.00208,0.8087849443,0.00208,70.89347707,
0.0021,1.174215238,0.0021,70.52804678,
0.00212,0.07792435593,0.00212,71.25890736,
0.00214,0.4433546501,0.00214,70.52804678,
0.00216,-0.6529362324,0.00216,70.52804678,
0.00218,1.174215238,0.00218,70.89347707,
0.0022,0.07792435593,0.0022,70.52804678,
0.00222,0.8087849443,0.00222,70.52804678,
0.00224,-0.2875059382,0.00224,71.25890736,
0.00226,0.4433546501,0.00226,70.89347707,
0.00228,1.905075827,0.00228,70.16261648,
0.0023,1.905075827,0.0023,70.89347707,
0.00232,1.174215238,0.00232,71.25890736,
0.00234,1.174215238,0.00234,70.16261648,
0.00236,1.174215238,0.00236,71.25890736,
0.00238,0.4433546501,0.00238,70.52804678,
0.0024,0.07792435593,0.0024,70.52804678,
0.00242,-0.6529362324,0.00242,71.25890736,
0.00244,-1.018366527,0.00244,70.52804678,
0.00246,0.07792435593,0.00246,70.52804678,
0.00248,-0.6529362324,0.00248,70.89347707,
0.0025,-0.2875059382,0.0025,70.52804678,
0.00252,0.07792435593,0.00252,70.52804678,
0.00254,-0.2875059382,0.00254,70.89347707,
0.00256,0.07792435593,0.00256,70.89347707,
0.00258,0.07792435593,0.00258,70.89347707,
0.0026,-1.018366527,0.0026,70.52804678,
0.00262,0.8087849443,0.00262,70.89347707,
0.00264,-2.114657409,0.00264,70.52804678,
0.00266,-0.6529362324,0.00266,71.25890736,
0.00268,-3.94180888,0.00268,69.79718619,
0.0027,-2.480087703,0.0027,69.43175589,
0.00272,-2.845517997,0.00272,71.98976795,
0.00274,-1.383796821,0.00274,70.89347707,
0.00276,0.07792435593,0.00276,71.25890736,
0.00278,0.07792435593,0.00278,70.89347707,
0.0028,-0.6529362324,0.0028,70.52804678,
0.00282,0.07792435593,0.00282,70.89347707,
0.00284,-2.480087703,0.00284,71.25890736,
0.00286,-2.114657409,0.00286,70.89347707,
0.00288,-0.6529362324,0.00288,70.16261648,
0.0029,-2.114657409,0.0029,71.25890736,
0.00292,-2.114657409,0.00292,70.89347707,
0.00294,-0.2875059382,0.00294,70.89347707,
0.00296,-0.2875059382,0.00296,71.25890736,
0.00298,-0.6529362324,0.00298,70.52804678,
0.003,1.174215238,0.003,70.89347707,
0.00302,1.905075827,0.00302,71.25890736,
0.00304,-0.2875059382,0.00304,70.52804678,
0.00306,0.4433546501,0.00306,70.89347707,
0.00308,-0.2875059382,0.00308,70.89347707,
0.0031,0.07792435593,0.0031,70.89347707,
0.00312,0.07792435593,0.00312,70.52804678,
0.00314,0.4433546501,0.00314,71.25890736,
0.00316,0.07792435593,0.00316,70.89347707,
0.00318,0.4433546501,0.00318,70.16261648,
0.0032,-0.2875059382,0.0032,71.25890736,
0.00322,0.07792435593,0.00322,70.89347707,
0.00324,1.174215238,0.00324,70.89347707,
0.00326,2.270506121,0.00326,71.25890736,
0.00328,1.539645533,0.00328,70.89347707,
0.0033,0.8087849443,0.0033,70.89347707,
0.00332,1.174215238,0.00332,71.25890736,
0.00334,0.8087849443,0.00334,70.89347707,
0.00336,0.8087849443,0.00336,70.52804678,
0.00338,0.8087849443,0.00338,70.89347707,
0.0034,-0.6529362324,0.0034,70.89347707,
0.00342,0.07792435593,0.00342,70.89347707,
0.00344,-1.018366527,0.00344,71.62433766,
0.00346,0.07792435593,0.00346,70.52804678,
0.00348,0.07792435593,0.00348,70.89347707,
0.0035,0.07792435593,0.0035,70.89347707,
0.00352,-0.6529362324,0.00352,70.89347707,
0.00354,-0.2875059382,0.00354,70.89347707,
0.00356,-0.2875059382,0.00356,71.25890736,
0.00358,0.4433546501,0.00358,71.25890736,
0.0036,-3.210948292,0.0036,70.16261648,
0.00362,-2.480087703,0.00362,71.62433766,
0.00364,-2.114657409,0.00364,70.89347707,
0.00366,0.8087849443,0.00366,70.52804678,
0.00368,-2.114657409,0.00368,71.62433766,
0.0037,-3.576378586,0.0037,71.25890736,
0.00372,1.905075827,0.00372,70.52804678,
0.00374,0.4433546501,0.00374,70.89347707,
0.00376,-0.2875059382,0.00376,70.52804678,
0.00378,0.07792435593,0.00378,70.89347707,
0.0038,-0.2875059382,0.0038,70.89347707,
0.00382,-0.6529362324,0.00382,70.52804678,
0.00384,-1.749227115,0.00384,70.52804678,
0.00386,-0.6529362324,0.00386,71.25890736,
0.00388,-0.6529362324,0.00388,70.89347707,
0.0039,0.4433546501,0.0039,70.52804678,
0.00392,-0.6529362324,0.00392,71.25890736,
0.00394,-1.018366527,0.00394,70.89347707,
0.00396,0.4433546501,0.00396,70.52804678,
0.00398,0.07792435593,0.00398,71.25890736,
0.004,0.8087849443,0.004,70.89347707,
0.00402,0.8087849443,0.00402,70.16261648,
0.00404,0.4433546501,0.00404,70.89347707,
0.00406,-0.2875059382,0.00406,70.52804678,
0.00408,0.8087849443,0.00408,70.52804678,
0.0041,0.07792435593,0.0041,70.52804678,
0.00412,0.4433546501,0.00412,70.52804678,
0.00414,-1.018366527,0.00414,70.16261648,
0.00416,0.07792435593,0.00416,70.89347707,
0.00418,0.4433546501,0.00418,70.89347707,
0.0042,1.539645533,0.0042,70.52804678,
0.00422,1.539645533,0.00422,70.89347707,
0.00424,0.4433546501,0.00424,70.89347707,
0.00426,1.539645533,0.00426,70.52804678,
0.00428,2.270506121,0.00428,71.25890736,
0.0043,2.270506121,0.0043,70.16261648,
0.00432,0.8087849443,0.00432,70.52804678,
0.00434,0.07792435593,0.00434,70.16261648,
0.00436,0.4433546501,0.00436,70.89347707,
0.00438,0.07792435593,0.00438,70.89347707,
0.0044,-1.018366527,0.0044,70.16261648,
0.00442,-0.6529362324,0.00442,70.52804678,
0.00444,0.07792435593,0.00444,70.89347707,
0.00446,1.539645533,0.00446,69.79718619,
0.00448,-1.018366527,0.00448,70.16261648,
0.0045,0.4433546501,0.0045,70.52804678,
0.00452,-1.018366527,0.00452,69.0663256,
0.00454,2.635936415,0.00454,70.89347707,
0.00456,1.174215238,0.00456,69.43175589,
0.00458,0.07792435593,0.00458,70.16261648,
0.0046,-1.018366527,0.0046,69.43175589,
0.00462,-1.383796821,0.00462,70.89347707,
0.00464,-3.576378586,0.00464,71.25890736,
0.00466,-2.845517997,0.00466,70.16261648,
0.00468,-1.018366527,0.00468,70.16261648,
0.0047,-1.018366527,0.0047,69.79718619,
0.00472,-0.6529362324,0.00472,70.16261648,
0.00474,-0.2875059382,0.00474,70.89347707,
0.00476,-0.6529362324,0.00476,70.52804678,
0.00478,-0.6529362324,0.00478,71.25890736,
0.0048,-1.018366527,0.0048,70.16261648,
0.00482,-1.383796821,0.00482,70.16261648,
0.00484,-1.018366527,0.00484,70.89347707,
0.00486,-0.2875059382,0.00486,70.52804678,
0.00488,-1.018366527,0.00488,70.89347707,
0.0049,-0.2875059382,0.0049,70.52804678,
0.00492,0.4433546501,0.00492,70.52804678,
0.00494,0.07792435593,0.00494,70.89347707,
0.00496,-1.018366527,0.00496,70.89347707,
0.00498,0.4433546501,0.00498,70.52804678,
0.005,1.174215238,0.005,70.52804678,
0.00502,0.8087849443,0.00502,70.89347707,
0.00504,1.539645533,0.00504,70.89347707,
0.00506,0.4433546501,0.00506,70.89347707,
0.00508,0.4433546501,0.00508,71.25890736,
0.0051,2.270506121,0.0051,70.89347707,
0.00512,-0.2875059382,0.00512,71.25890736,
0.00514,1.539645533,0.00514,70.89347707,
0.00516,0.4433546501,0.00516,71.25890736,
0.00518,0.8087849443,0.00518,70.89347707,
0.0052,0.8087849443,0.0052,71.25890736,
0.00522,0.8087849443,0.00522,70.52804678,
0.00524,1.539645533,0.00524,70.52804678,
0.00526,1.174215238,0.00526,70.89347707,
0.00528,1.905075827,0.00528,70.52804678,
0.0053,1.905075827,0.0053,71.25890736,
0.00532,0.4433546501,0.00532,70.52804678,
0.00534,0.07792435593,0.00534,70.52804678,
0.00536,-0.2875059382,0.00536,70.52804678,
0.00538,-1.018366527,0.00538,70.52804678,
0.0054,-0.6529362324,0.0054,70.89347707,
0.00542,0.07792435593,0.00542,71.25890736,
0.00544,0.8087849443,0.00544,70.52804678,
0.00546,1.174215238,0.00546,70.52804678,
0.00548,1.539645533,0.00548,71.62433766,
0.0055,-1.018366527,0.0055,70.52804678,
0.00552,-1.018366527,0.00552,70.89347707,
0.00554,-2.480087703,0.00554,71.25890736,
0.00556,-3.210948292,0.00556,70.89347707,
0.00558,-2.845517997,0.00558,70.89347707,
0.0056,-2.480087703,0.0056,71.25890736,
0.00562,-2.845517997,0.00562,69.79718619,
0.00564,-2.114657409,0.00564,70.89347707,
0.00566,-1.383796821,0.00566,70.16261648,
0.00568,-2.114657409,0.00568,70.89347707,
0.0057,0.07792435593,0.0057,70.52804678,
0.00572,-0.6529362324,0.00572,70.52804678,
0.00574,-0.6529362324,0.00574,70.89347707,
0.00576,-0.6529362324,0.00576,70.52804678,
0.00578,0.4433546501,0.00578,70.89347707,
0.0058,-1.018366527,0.0058,70.52804678,
0.00582,-0.6529362324,0.00582,70.52804678,
0.00584,-0.6529362324,0.00584,71.25890736,
0.00586,-0.6529362324,0.00586,70.89347707,
0.00588,-0.2875059382,0.00588,70.16261648,
0.0059,-0.2875059382,0.0059,70.89347707,
0.00592,-2.114657409,0.00592,70.52804678,
0.00594,1.174215238,0.00594,70.52804678,
0.00596,0.4433546501,0.00596,71.25890736,
0.00598,0.4433546501,0.00598,70.89347707,
0.006,0.07792435593,0.006,70.52804678,
0.00602,0.07792435593,0.00602,70.89347707,
0.00604,0.4433546501,0.00604,70.89347707,
0.00606,1.539645533,0.00606,70.16261648,
0.00608,0.4433546501,0.00608,71.25890736,
0.0061,-0.2875059382,0.0061,70.89347707,
0.00612,0.8087849443,0.00612,70.89347707,
0.00614,0.4433546501,0.00614,71.25890736,
0.00616,0.8087849443,0.00616,70.89347707,
0.00618,-0.2875059382,0.00618,70.52804678,
0.0062,1.539645533,0.0062,70.89347707,
0.00622,0.8087849443,0.00622,70.52804678,
0.00624,0.4433546501,0.00624,70.52804678,
0.00626,1.905075827,0.00626,70.89347707,
0.00628,0.4433546501,0.00628,70.52804678,
0.0063,0.8087849443,0.0063,70.52804678,
0.00632,0.07792435593,0.00632,70.89347707,
0.00634,-1.018366527,0.00634,70.89347707,
0.00636,0.4433546501,0.00636,70.52804678,
0.00638,0.07792435593,0.00638,71.25890736,
0.0064,0.07792435593,0.0064,70.52804678,
0.00642,0.4433546501,0.00642,70.89347707,
0.00644,0.8087849443,0.00644,70.89347707,
0.00646,0.07792435593,0.00646,71.25890736,
0.00648,-0.2875059382,0.00648,71.25890736,
0.0065,-0.6529362324,0.0065,71.62433766,
0.00652,-1.749227115,0.00652,70.89347707,
0.00654,1.174215238,0.00654,69.43175589,
0.00656,-3.576378586,0.00656,70.52804678,
0.00658,-2.114657409,0.00658,71.62433766,
0.0066,-3.94180888,0.0066,70.89347707,
0.00662,-2.480087703,0.00662,71.25890736,
0.00664,-3.576378586,0.00664,70.89347707,
0.00666,-0.2875059382,0.00666,70.52804678,
0.00668,-1.018366527,0.00668,70.89347707,
0.0067,-1.018366527,0.0067,70.52804678,
0.00672,1.174215238,0.00672,70.89347707,
0.00674,0.4433546501,0.00674,70.89347707,
0.00676,-2.114657409,0.00676,70.52804678,
0.00678,-0.2875059382,0.00678,70.52804678,
0.0068,-0.6529362324,0.0068,70.89347707,
0.00682,-1.018366527,0.00682,70.52804678,
0.00684,-1.018366527,0.00684,70.89347707,
0.00686,-0.6529362324,0.00686,71.25890736,
0.00688,-1.018366527,0.00688,70.89347707,
0.0069,0.8087849443,0.0069,70.52804678,
0.00692,0.07792435593,0.00692,71.25890736,
0.00694,0.07792435593,0.00694,70.52804678,
0.00696,0.8087849443,0.00696,70.16261648,
0.00698,1.174215238,0.00698,70.52804678,
0.007,0.07792435593,0.007,70.89347707,
0.00702,0.8087849443,0.00702,70.16261648,
0.00704,0.07792435593,0.00704,70.89347707,
0.00706,-0.2875059382,0.00706,70.89347707,
0.00708,0.07792435593,0.00708,70.16261648,
0.0071,0.4433546501,0.0071,70.89347707,
0.00712,0.07792435593,0.00712,70.52804678,
0.00714,1.174215238,0.00714,70.52804678,
0.00716,0.4433546501,0.00716,70.52804678,
0.00718,2.635936415,0.00718,70.16261648,
0.0072,1.539645533,0.0072,70.52804678,
0.00722,1.905075827,0.00722,70.16261648,
0.00724,0.8087849443,0.00724,70.52804678,
0.00726,0.8087849443,0.00726,70.52804678,
0.00728,0.8087849443,0.00728,70.89347707,
0.0073,-0.2875059382,0.0073,70.16261648,
0.00732,-0.6529362324,0.00732,70.52804678,
0.00734,-0.6529362324,0.00734,70.52804678,
0.00736,-1.383796821,0.00736,70.16261648,
0.00738,0.4433546501,0.00738,70.89347707,
0.0074,0.07792435593,0.0074,70.52804678,
0.00742,0.8087849443,0.00742,69.79718619,
0.00744,0.4433546501,0.00744,71.25890736,
0.00746,-0.2875059382,0.00746,70.89347707,
0.00748,-1.383796821,0.00748,69.43175589,
0.0075,-1.383796821,0.0075,70.52804678,
0.00752,-1.749227115,0.00752,70.16261648,
0.00754,-3.576378586,0.00754,69.43175589,
0.00756,-2.114657409,0.00756,70.89347707,
0.00758,-3.210948292,0.00758,71.25890736,
0.0076,-1.383796821,0.0076,70.52804678,
0.00762,0.07792435593,0.00762,69.79718619,
0.00764,-0.6529362324,0.00764,70.16261648,
0.00766,-1.383796821,0.00766,70.16261648,
0.00768,0.4433546501,0.00768,71.25890736,
0.0077,-0.2875059382,0.0077,70.16261648,
0.00772,-2.114657409,0.00772,69.79718619,
0.00774,-0.6529362324,0.00774,70.52804678,
0.00776,-1.383796821,0.00776,70.89347707,
0.00778,-1.749227115,0.00778,70.16261648,
0.0078,0.07792435593,0.0078,70.52804678,
0.00782,-1.018366527,0.00782,70.52804678,
0.00784,-0.6529362324,0.00784,70.16261648,
0.00786,-0.6529362324,0.00786,70.52804678,
0.00788,-0.2875059382,0.00788,70.89347707,
0.0079,0.8087849443,0.0079,70.16261648,
0.00792,0.4433546501,0.00792,70.52804678,
0.00794,1.539645533,0.00794,70.16261648,
0.00796,0.07792435593,0.00796,69.79718619,
0.00798,1.174215238,0.00798,70.89347707,
0.008,0.8087849443,0.008,70.52804678,
0.00802,-0.6529362324,0.00802,70.16261648,
0.00804,1.539645533,0.00804,70.52804678,
0.00806,0.4433546501,0.00806,70.89347707,
0.00808,-0.2875059382,0.00808,70.16261648,
0.0081,1.174215238,0.0081,70.89347707,
0.00812,0.4433546501,0.00812,70.89347707,
0.00814,0.4433546501,0.00814,70.16261648,
0.00816,1.539645533,0.00816,70.89347707,
0.00818,1.905075827,0.00818,70.89347707,
0.0082,1.174215238,0.0082,70.16261648,
0.00822,1.539645533,0.00822,70.89347707,
0.00824,-0.2875059382,0.00824,70.52804678,
0.00826,0.4433546501,0.00826,70.16261648,
0.00828,0.4433546501,0.00828,70.52804678,
0.0083,-0.6529362324,0.0083,70.89347707,
0.00832,-1.383796821,0.00832,70.16261648,
0.00834,0.07792435593,0.00834,70.52804678,
0.00836,-0.2875059382,0.00836,70.52804678,
0.00838,-0.2875059382,0.00838,70.52804678,
0.0084,0.8087849443,0.0084,70.52804678,
0.00842,-0.2875059382,0.00842,70.52804678,
0.00844,-0.6529362324,0.00844,70.52804678,
0.00846,-0.6529362324,0.00846,70.52804678,
0.00848,0.07792435593,0.00848,70.89347707,
0.0085,-0.6529362324,0.0085,70.16261648,
0.00852,-2.480087703,0.00852,70.52804678,
0.00854,-2.480087703,0.00854,69.79718619,
0.00856,-3.576378586,0.00856,70.52804678,
0.00858,0.8087849443,0.00858,70.89347707,
0.0086,-1.383796821,0.0086,70.89347707,
0.00862,-0.2875059382,0.00862,69.79718619,
0.00864,-1.018366527,0.00864,70.52804678,
0.00866,-1.383796821,0.00866,70.89347707,
0.00868,-1.018366527,0.00868,70.52804678,
0.0087,-0.2875059382,0.0087,70.16261648,
0.00872,-0.2875059382,0.00872,70.52804678,
0.00874,-2.114657409,0.00874,70.16261648,
0.00876,-0.6529362324,0.00876,70.52804678,
0.00878,-1.749227115,0.00878,70.89347707,
0.0088,-1.018366527,0.0088,70.16261648,
0.00882,0.4433546501,0.00882,70.89347707,
0.00884,-0.2875059382,0.00884,70.89347707,
0.00886,0.4433546501,0.00886,70.16261648,
0.00888,1.174215238,0.00888,70.52804678,
0.0089,0.8087849443,0.0089,70.52804678,
0.00892,0.4433546501,0.00892,70.16261648,
0.00894,1.174215238,0.00894,70.52804678,
0.00896,0.4433546501,0.00896,70.52804678,
0.00898,-0.6529362324,0.00898,70.16261648,
0.009,1.174215238,0.009,70.89347707,
0.00902,0.4433546501,0.00902,70.52804678,
0.00904,0.07792435593,0.00904,70.16261648,
0.00906,0.07792435593,0.00906,70.89347707,
0.00908,1.539645533,0.00908,70.52804678,
0.0091,1.539645533,0.0091,70.89347707,
0.00912,0.8087849443,0.00912,70.52804678,
0.00914,1.174215238,0.00914,70.52804678,
0.00916,0.4433546501,0.00916,71.25890736,
0.00918,1.539645533,0.00918,70.52804678,
0.0092,-0.2875059382,0.0092,70.52804678,
0.00922,0.4433546501,0.00922,70.89347707,
0.00924,0.4433546501,0.00924,70.52804678,
0.00926,-0.2875059382,0.00926,70.52804678,
0.00928,-0.2875059382,0.00928,71.25890736,
0.0093,-0.2875059382,0.0093,70.52804678,
0.00932,-0.6529362324,0.00932,70.52804678,
0.00934,0.4433546501,0.00934,70.89347707,
0.00936,-0.2875059382,0.00936,70.89347707,
0.00938,-1.018366527,0.00938,71.25890736,
0.0094,0.07792435593,0.0094,70.89347707,
0.00942,-0.6529362324,0.00942,70.89347707,
0.00944,-0.2875059382,0.00944,70.89347707,
0.00946,-1.749227115,0.00946,71.62433766,
0.00948,-2.480087703,0.00948,71.25890736,
0.0095,-3.576378586,0.0095,70.52804678,
0.00952,-2.114657409,0.00952,71.62433766,
0.00954,-3.576378586,0.00954,70.89347707,
0.00956,-3.210948292,0.00956,70.16261648,
0.00958,-0.2875059382,0.00958,70.16261648,
0.0096,-0.2875059382,0.0096,70.52804678,
0.00962,0.07792435593,0.00962,70.52804678,
0.00964,-1.383796821,0.00964,70.89347707,
0.00966,1.174215238,0.00966,70.52804678,
0.00968,0.07792435593,0.00968,70.16261648,
0.0097,-1.018366527,0.0097,71.25890736,
0.00972,-1.383796821,0.00972,70.89347707,
0.00974,-1.383796821,0.00974,70.52804678,
0.00976,-1.383796821,0.00976,70.89347707,
0.00978,-1.018366527,0.00978,70.52804678,
0.0098,-0.2875059382,0.0098,70.16261648,
0.00982,0.8087849443,0.00982,71.25890736,
0.00984,0.4433546501,0.00984,70.52804678,
0.00986,1.174215238,0.00986,70.16261648,
0.00988,1.174215238,0.00988,70.89347707,
0.0099,0.4433546501,0.0099,70.16261648,
0.00992,0.4433546501,0.00992,70.52804678,
0.00994,0.4433546501,0.00994,70.89347707,
0.00996,0.07792435593,0.00996,70.52804678,
0.00998,0.8087849443,0.00998,70.52804678,
0.01,0.8087849443,0.01,70.89347707,
0.01002,1.539645533,0.01002,70.52804678,
0.01004,0.8087849443,0.01004,70.52804678,
0.01006,-0.2875059382,0.01006,70.52804678,
0.01008,1.174215238,0.01008,70.52804678,
0.0101,1.539645533,0.0101,70.89347707,
0.01012,2.270506121,0.01012,70.89347707,
0.01014,2.635936415,0.01014,70.89347707,
0.01016,1.174215238,0.01016,70.89347707,
0.01018,0.8087849443,0.01018,70.52804678,
0.0102,0.4433546501,0.0102,70.89347707,
0.01022,0.07792435593,0.01022,70.52804678,
0.01024,-0.2875059382,0.01024,70.52804678,
0.01026,-1.749227115,0.01026,70.52804678,
0.01028,-1.018366527,0.01028,70.52804678,
0.0103,0.4433546501,0.0103,71.25890736,
0.01032,-0.2875059382,0.01032,70.89347707,
0.01034,1.174215238,0.01034,70.89347707,
0.01036,-0.2875059382,0.01036,71.25890736,
0.01038,1.539645533,0.01038,70.89347707,
0.0104,0.4433546501,0.0104,69.79718619,
0.01042,-1.018366527,0.01042,71.62433766,
0.01044,-1.383796821,0.01044,71.25890736,
0.01046,-1.018366527,0.01046,71.25890736,
0.01048,-0.2875059382,0.01048,71.62433766,
0.0105,-2.845517997,0.0105,69.79718619,
0.01052,-2.845517997,0.01052,71.25890736,
0.01054,-2.114657409,0.01054,70.16261648,
0.01056,-2.845517997,0.01056,69.79718619,
0.01058,-1.018366527,0.01058,70.16261648,
0.0106,0.07792435593,0.0106,70.89347707,
0.01062,-1.018366527,0.01062,70.52804678,
0.01064,-1.018366527,0.01064,70.52804678,
0.01066,-1.018366527,0.01066,71.25890736,
0.01068,-1.383796821,0.01068,70.89347707,
0.0107,-1.383796821,0.0107,70.52804678,
0.01072,-1.018366527,0.01072,70.89347707,
0.01074,-1.383796821,0.01074,70.89347707,
0.01076,-0.2875059382,0.01076,70.89347707,
0.01078,0.8087849443,0.01078,71.25890736,
0.0108,0.07792435593,0.0108,70.89347707,
0.01082,2.635936415,0.01082,70.16261648,
0.01084,0.4433546501,0.01084,70.52804678,
0.01086,0.8087849443,0.01086,70.89347707,
0.01088,0.8087849443,0.01088,70.52804678,
0.0109,-0.2875059382,0.0109,71.25890736,
0.01092,-0.2875059382,0.01092,70.52804678,
0.01094,0.8087849443,0.01094,70.52804678,
0.01096,0.07792435593,0.01096,70.89347707,
0.01098,0.4433546501,0.01098,70.52804678,
0.011,0.07792435593,0.011,70.52804678,
0.01102,1.539645533,0.01102,70.89347707,
0.01104,0.8087849443,0.01104,70.89347707,
0.01106,1.174215238,0.01106,70.89347707,
0.01108,0.4433546501,0.01108,70.89347707,
0.0111,1.539645533,0.0111,70.89347707,
0.01112,2.270506121,0.01112,70.52804678,
0.01114,1.539645533,0.01114,70.52804678,
0.01116,1.905075827,0.01116,70.52804678,
0.01118,-0.2875059382,0.01118,70.89347707,
0.0112,-0.2875059382,0.0112,70.89347707,
0.01122,0.8087849443,0.01122,70.52804678,
0.01124,-0.2875059382,0.01124,70.52804678,
0.01126,-1.018366527,0.01126,70.52804678,
0.01128,-0.6529362324,0.01128,70.89347707,
0.0113,0.4433546501,0.0113,70.52804678,
0.01132,0.07792435593,0.01132,70.89347707,
0.01134,0.07792435593,0.01134,70.89347707,
0.01136,0.8087849443,0.01136,70.52804678,
0.01138,0.07792435593,0.01138,70.89347707,
0.0114,1.174215238,0.0114,71.25890736,
0.01142,-2.480087703,0.01142,70.89347707,
0.01144,-1.383796821,0.01144,71.25890736,
0.01146,-1.383796821,0.01146,69.43175589,
0.01148,-3.94180888,0.01148,70.89347707,
0.0115,-2.480087703,0.0115,70.89347707,
0.01152,-1.383796821,0.01152,70.89347707,
0.01154,-0.6529362324,0.01154,70.16261648,
0.01156,0.07792435593,0.01156,70.52804678,
0.01158,-0.2875059382,0.01158,70.52804678,
0.0116,0.07792435593,0.0116,70.89347707,
0.01162,-0.2875059382,0.01162,70.89347707,
0.01164,-2.114657409,0.01164,70.89347707,
0.01166,-1.383796821,0.01166,70.89347707,
0.01168,0.4433546501,0.01168,70.89347707,
0.0117,-1.018366527,0.0117,70.89347707,
0.01172,-1.383796821,0.01172,70.16261648,
0.01174,-0.2875059382,0.01174,70.89347707,
0.01176,0.07792435593,0.01176,70.16261648,
0.01178,1.174215238,0.01178,70.89347707,
0.0118,1.539645533,0.0118,70.52804678,
0.01182,0.8087849443,0.01182,70.89347707,
0.01184,1.905075827,0.01184,70.89347707,
0.01186,1.174215238,0.01186,70.89347707,
0.01188,1.539645533,0.01188,70.52804678,
0.0119,0.8087849443,0.0119,70.89347707,
0.01192,-0.2875059382,0.01192,70.16261648,
0.01194,0.07792435593,0.01194,70.52804678,
0.01196,0.4433546501,0.01196,70.52804678,
0.01198,1.174215238,0.01198,70.89347707,
0.012,-0.6529362324,0.012,70.52804678,
0.01202,0.4433546501,0.01202,69.79718619,
0.01204,-0.2875059382,0.01204,70.89347707,
0.01206,0.8087849443,0.01206,70.52804678,
0.01208,1.905075827,0.01208,70.16261648,
0.0121,2.270506121,0.0121,70.89347707,
0.01212,1.174215238,0.01212,70.52804678,
0.01214,0.8087849443,0.01214,70.16261648,
0.01216,0.8087849443,0.01216,71.25890736,
0.01218,-1.018366527,0.01218,70.52804678,
0.0122,-1.018366527,0.0122,70.52804678,
0.01222,-1.018366527,0.01222,70.89347707,
0.01224,-0.2875059382,0.01224,70.52804678,
0.01226,-0.2875059382,0.01226,70.16261648,
0.01228,0.07792435593,0.01228,70.89347707,
0.0123,1.174215238,0.0123,70.52804678,
0.01232,-0.2875059382,0.01232,70.16261648,
0.01234,1.174215238,0.01234,70.52804678,
0.01236,-0.6529362324,0.01236,70.16261648,
0.01238,0.4433546501,0.01238,70.16261648,
0.0124,-1.383796821,0.0124,70.52804678,
0.01242,-2.114657409,0.01242,70.16261648,
0.01244,-2.480087703,0.01244,70.89347707,
0.01246,-2.114657409,0.01246,69.43175589,
0.01248,-0.2875059382,0.01248,70.52804678,
0.0125,-2.114657409,0.0125,70.52804678,
0.01252,-2.845517997,0.01252,70.52804678,
0.01254,-0.2875059382,0.01254,70.89347707,
0.01256,0.07792435593,0.01256,70.52804678,
0.01258,0.07792435593,0.01258,71.25890736,
0.0126,-1.383796821,0.0126,70.52804678,
0.01262,-1.018366527,0.01262,70.16261648,
0.01264,-0.6529362324,0.01264,70.89347707,
0.01266,-2.480087703,0.01266,70.52804678,
0.01268,-1.749227115,0.01268,70.16261648,
0.0127,-1.383796821,0.0127,70.89347707,
0.01272,-0.2875059382,0.01272,70.52804678,
0.01274,-0.6529362324,0.01274,70.52804678,
0.01276,0.4433546501,0.01276,70.89347707,
0.01278,0.07792435593,0.01278,70.89347707,
0.0128,0.8087849443,0.0128,70.52804678,
0.01282,0.8087849443,0.01282,70.89347707,
0.01284,-1.018366527,0.01284,70.89347707,
0.01286,-0.2875059382,0.01286,70.52804678,
0.01288,-0.2875059382,0.01288,70.89347707,
0.0129,-0.2875059382,0.0129,70.52804678,
0.01292,-0.6529362324,0.01292,70.52804678,
0.01294,1.174215238,0.01294,71.25890736,
0.01296,-0.2875059382,0.01296,70.52804678,
0.01298,0.07792435593,0.01298,70.52804678,
0.013,0.8087849443,0.013,70.89347707,
0.01302,0.4433546501,0.01302,70.52804678,
0.01304,0.4433546501,0.01304,70.16261648,
0.01306,0.8087849443,0.01306,71.25890736,
0.01308,0.4433546501,0.01308,70.16261648,
0.0131,2.270506121,0.0131,70.16261648,
0.01312,1.174215238,0.01312,70.89347707,
0.01314,0.07792435593,0.01314,70.16261648,
0.01316,-0.6529362324,0.01316,70.52804678,
0.01318,0.4433546501,0.01318,70.89347707,
0.0132,-0.6529362324,0.0132,70.52804678,
0.01322,-0.2875059382,0.01322,70.52804678,
0.01324,-1.018366527,0.01324,70.89347707,
0.01326,0.4433546501,0.01326,70.52804678,
0.01328,0.07792435593,0.01328,70.52804678,
0.0133,0.07792435593,0.0133,71.25890736,
0.01332,-0.6529362324,0.01332,70.89347707,
0.01334,0.07792435593,0.01334,70.52804678,
0.01336,2.270506121,0.01336,70.89347707,
0.01338,-2.114657409,0.01338,70.89347707,
0.0134,-3.94180888,0.0134,70.89347707,
0.01342,-2.114657409,0.01342,71.62433766,
0.01344,-2.845517997,0.01344,70.52804678,
0.01346,-2.114657409,0.01346,70.52804678,
0.01348,-2.480087703,0.01348,71.25890736,
0.0135,-2.114657409,0.0135,70.52804678,
0.01352,-1.018366527,0.01352,70.89347707,
0.01354,0.07792435593,0.01354,71.25890736,
0.01356,-2.480087703,0.01356,70.52804678,
0.01358,-0.6529362324,0.01358,69.79718619,
0.0136,-0.6529362324,0.0136,70.89347707,
0.01362,-1.018366527,0.01362,70.52804678,
0.01364,-2.845517997,0.01364,70.16261648,
0.01366,0.07792435593,0.01366,70.89347707,
0.01368,-1.749227115,0.01368,70.52804678,
0.0137,-1.018366527,0.0137,70.16261648,
0.01372,0.07792435593,0.01372,70.52804678,
0.01374,-1.018366527,0.01374,70.52804678,
0.01376,-0.2875059382,0.01376,70.52804678,
0.01378,0.4433546501,0.01378,70.52804678,
0.0138,-1.383796821,0.0138,70.52804678,
0.01382,0.07792435593,0.01382,70.52804678,
0.01384,0.8087849443,0.01384,70.89347707,
0.01386,0.07792435593,0.01386,70.52804678,
0.01388,1.174215238,0.01388,70.52804678,
0.0139,0.07792435593,0.0139,70.89347707,
0.01392,0.4433546501,0.01392,70.52804678,
0.01394,0.4433546501,0.01394,70.52804678,
0.01396,1.539645533,0.01396,71.25890736,
0.01398,0.8087849443,0.01398,70.52804678,
0.014,0.8087849443,0.014,70.52804678,
0.01402,0.07792435593,0.01402,71.25890736,
0.01404,1.905075827,0.01404,70.52804678,
0.01406,2.270506121,0.01406,70.52804678,
0.01408,1.174215238,0.01408,70.89347707,
0.0141,0.8087849443,0.0141,70.52804678,
0.01412,1.539645533,0.01412,70.52804678,
0.01414,0.07792435593,0.01414,70.52804678,
0.01416,-1.383796821,0.01416,70.89347707,
0.01418,0.07792435593,0.01418,70.52804678,
0.0142,0.07792435593,0.0142,71.25890736,
0.01422,-0.6529362324,0.01422,70.52804678,
0.01424,-1.018366527,0.01424,70.52804678,
0.01426,-0.6529362324,0.01426,71.25890736,
0.01428,-0.2875059382,0.01428,70.89347707,
0.0143,0.4433546501,0.0143,69.43175589,
0.01432,-1.749227115,0.01432,71.62433766,
0.01434,-1.018366527,0.01434,70.52804678,
0.01436,-0.2875059382,0.01436,70.52804678,
0.01438,-2.480087703,0.01438,70.89347707,
0.0144,-3.576378586,0.0144,70.89347707,
0.01442,-2.480087703,0.01442,70.89347707,
0.01444,-3.576378586,0.01444,71.25890736,
0.01446,-1.749227115,0.01446,69.79718619,
0.01448,-1.749227115,0.01448,69.79718619,
0.0145,0.4433546501,0.0145,70.89347707,
0.01452,-1.383796821,0.01452,70.89347707,
0.01454,-1.749227115,0.01454,70.16261648,
0.01456,-1.383796821,0.01456,70.89347707,
0.01458,-1.018366527,0.01458,70.89347707,
0.0146,-0.2875059382,0.0146,70.52804678,
0.01462,-1.018366527,0.01462,71.25890736,
0.01464,-1.383796821,0.01464,70.89347707,
0.01466,-0.2875059382,0.01466,70.52804678,
0.01468,0.8087849443,0.01468,70.89347707,
0.0147,0.4433546501,0.0147,70.89347707,
0.01472,0.07792435593,0.01472,70.52804678,
0.01474,0.07792435593,0.01474,70.89347707,
0.01476,0.07792435593,0.01476,70.52804678,
0.01478,0.4433546501,0.01478,70.52804678,
0.0148,0.8087849443,0.0148,71.25890736,
0.01482,0.07792435593,0.01482,70.52804678,
0.01484,1.174215238,0.01484,70.52804678,
0.01486,0.4433546501,0.01486,70.52804678,
0.01488,0.4433546501,0.01488,70.89347707,
0.0149,0.8087849443,0.0149,70.16261648,
0.01492,-0.2875059382,0.01492,70.89347707,
0.01494,0.4433546501,0.01494,70.52804678,
0.01496,0.4433546501,0.01496,70.16261648,
0.01498,0.4433546501,0.01498,71.25890736,
0.015,0.4433546501,0.015,70.52804678,
0.01502,2.635936415,0.01502,70.89347707,
0.01504,1.539645533,0.01504,70.52804678,
0.01506,1.905075827,0.01506,70.16261648,
0.01508,0.4433546501,0.01508,70.52804678,
0.0151,0.4433546501,0.0151,70.52804678,
0.01512,0.8087849443,0.01512,70.89347707,
0.01514,0.4433546501,0.01514,70.16261648,
0.01516,1.174215238,0.01516,70.89347707,
0.01518,-0.6529362324,0.01518,70.52804678,
0.0152,-1.018366527,0.0152,70.89347707,
0.01522,0.8087849443,0.01522,70.89347707,
0.01524,-0.2875059382,0.01524,70.52804678,
0.01526,0.07792435593,0.01526,70.89347707,
0.01528,1.174215238,0.01528,70.89347707,
0.0153,1.174215238,0.0153,70.52804678,
0.01532,0.07792435593,0.01532,70.52804678,
0.01534,-1.018366527,0.01534,70.16261648,
0.01536,-2.845517997,0.01536,71.62433766,
0.01538,-3.210948292,0.01538,71.25890736,
0.0154,-2.114657409,0.0154,69.79718619,
0.01542,-2.114657409,0.01542,69.43175589,
0.01544,-2.114657409,0.01544,71.25890736,
0.01546,-1.749227115,0.01546,70.89347707,
0.01548,-1.383796821,0.01548,70.16261648,
0.0155,-1.383796821,0.0155,71.25890736,
0.01552,-0.2875059382,0.01552,70.16261648,
0.01554,0.07792435593,0.01554,70.16261648,
0.01556,-0.2875059382,0.01556,71.25890736,
0.01558,-1.383796821,0.01558,70.52804678,
0.0156,-0.2875059382,0.0156,70.52804678,
0.01562,-1.383796821,0.01562,70.52804678,
0.01564,-1.018366527,0.01564,70.89347707,
0.01566,-1.383796821,0.01566,70.52804678,
0.01568,-0.2875059382,0.01568,70.89347707,
0.0157,0.4433546501,0.0157,70.89347707,
0.01572,1.174215238,0.01572,70.52804678,
0.01574,0.8087849443,0.01574,70.89347707,
0.01576,0.07792435593,0.01576,70.52804678,
0.01578,0.07792435593,0.01578,70.89347707,
0.0158,0.4433546501,0.0158,70.52804678,
0.01582,-0.2875059382,0.01582,70.16261648,
0.01584,1.539645533,0.01584,70.16261648,
0.01586,-0.6529362324,0.01586,70.89347707,
0.01588,-0.6529362324,0.01588,70.16261648,
0.0159,0.4433546501,0.0159,70.52804678,
0.01592,0.4433546501,0.01592,70.52804678,
0.01594,1.174215238,0.01594,70.16261648,
0.01596,1.174215238,0.01596,70.52804678,
0.01598,1.174215238,0.01598,70.16261648,
0.016,1.905075827,0.016,70.16261648,
0.01602,0.8087849443,0.01602,70.16261648,
0.01604,0.4433546501,0.01604,70.52804678,
0.01606,0.07792435593,0.01606,69.79718619,
0.01608,0.07792435593,0.01608,70.52804678,
0.0161,0.07792435593,0.0161,70.52804678,
0.01612,-0.6529362324,0.01612,70.16261648,
0.01614,0.4433546501,0.01614,70.52804678,
0.01616,0.07792435593,0.01616,70.52804678,
0.01618,-0.6529362324,0.01618,70.16261648,
0.0162,0.4433546501,0.0162,70.16261648,
0.01622,1.174215238,0.01622,70.89347707,
0.01624,-0.6529362324,0.01624,70.16261648,
0.01626,0.4433546501,0.01626,70.52804678,
0.01628,-1.018366527,0.01628,70.16261648,
0.0163,-1.749227115,0.0163,70.52804678,
0.01632,-3.210948292,0.01632,70.16261648,
0.01634,-3.210948292,0.01634,70.89347707,
0.01636,-1.749227115,0.01636,70.52804678,
0.01638,-3.576378586,0.01638,70.89347707,
0.0164,-1.749227115,0.0164,70.52804678,
0.01642,-2.114657409,0.01642,70.16261648,
0.01644,0.4433546501,0.01644,70.16261648,
0.01646,0.4433546501,0.01646,70.52804678,
0.01648,-0.6529362324,0.01648,70.52804678,
0.0165,-1.018366527,0.0165,70.52804678,
0.01652,-1.383796821,0.01652,70.16261648,
0.01654,-1.018366527,0.01654,70.16261648,
0.01656,-0.2875059382,0.01656,70.16261648,
0.01658,-0.6529362324,0.01658,69.79718619,
0.0166,-1.749227115,0.0166,69.79718619,
0.01662,-0.6529362324,0.01662,70.16261648,
0.01664,-1.018366527,0.01664,70.89347707,
0.01666,-0.2875059382,0.01666,70.52804678,
0.01668,0.07792435593,0.01668,70.52804678,
0.0167,1.174215238,0.0167,70.52804678,
0.01672,0.4433546501,0.01672,70.16261648,
0.01674,1.905075827,0.01674,70.89347707,
0.01676,0.07792435593,0.01676,70.52804678,
0.01678,0.07792435593,0.01678,69.79718619,
0.0168,-0.6529362324,0.0168,70.16261648,
0.01682,0.8087849443,0.01682,70.52804678,
0.01684,0.07792435593,0.01684,70.16261648,
0.01686,0.07792435593,0.01686,70.52804678,
0.01688,0.4433546501,0.01688,70.52804678,
0.0169,-0.6529362324,0.0169,70.52804678,
0.01692,0.07792435593,0.01692,71.62433766,
0.01694,1.539645533,0.01694,70.89347707,
0.01696,1.539645533,0.01696,70.16261648,
0.01698,0.8087849443,0.01698,70.52804678,
0.017,2.270506121,0.017,70.52804678,
0.01702,1.539645533,0.01702,69.79718619,
0.01704,1.539645533,0.01704,70.52804678,
0.01706,-0.2875059382,0.01706,70.89347707,
0.01708,-0.2875059382,0.01708,70.16261648,
0.0171,-1.018366527,0.0171,70.52804678,
0.01712,-1.383796821,0.01712,70.52804678,
0.01714,-1.018366527,0.01714,70.16261648,
0.01716,-0.2875059382,0.01716,70.52804678,
0.01718,0.4433546501,0.01718,70.52804678,
0.0172,0.07792435593,0.0172,69.79718619,
0.01722,1.905075827,0.01722,70.16261648,
0.01724,-1.018366527,0.01724,70.16261648,
0.01726,0.4433546501,0.01726,70.89347707,
0.01728,-1.018366527,0.01728,70.16261648,
0.0173,-2.480087703,0.0173,70.89347707,
0.01732,-3.210948292,0.01732,69.79718619,
0.01734,-2.480087703,0.01734,71.25890736,
0.01736,-1.018366527,0.01736,70.16261648,
0.01738,-2.114657409,0.01738,70.16261648,
0.0174,-0.2875059382,0.0174,70.52804678,
0.01742,-1.018366527,0.01742,70.16261648,
0.01744,-1.383796821,0.01744,70.52804678,
0.01746,-0.2875059382,0.01746,70.16261648,
0.01748,-1.383796821,0.01748,70.52804678,
0.0175,-1.018366527,0.0175,70.16261648,
0.01752,-1.749227115,0.01752,70.89347707,
0.01754,-1.018366527,0.01754,70.16261648,
0.01756,-1.749227115,0.01756,70.52804678,
0.01758,-0.6529362324,0.01758,70.52804678,
0.0176,-1.749227115,0.0176,70.16261648,
0.01762,-1.018366527,0.01762,70.16261648,
0.01764,0.07792435593,0.01764,70.16261648,
0.01766,-1.383796821,0.01766,70.52804678,
0.01768,1.174215238,0.01768,70.16261648,
0.0177,-1.383796821,0.0177,70.52804678,
0.01772,0.4433546501,0.01772,70.52804678,
0.01774,1.174215238,0.01774,70.89347707,
0.01776,0.07792435593,0.01776,70.52804678,
0.01778,0.4433546501,0.01778,69.79718619,
0.0178,0.8087849443,0.0178,70.52804678,
0.01782,-0.2875059382,0.01782,70.52804678,
0.01784,-0.2875059382,0.01784,70.16261648,
0.01786,-1.018366527,0.01786,70.52804678,
0.01788,-0.2875059382,0.01788,70.52804678,
0.0179,1.174215238,0.0179,70.52804678,
0.01792,-0.2875059382,0.01792,70.52804678,
0.01794,0.4433546501,0.01794,70.52804678,
0.01796,1.539645533,0.01796,70.16261648,
0.01798,1.174215238,0.01798,70.89347707,
0.018,0.4433546501,0.018,70.16261648,
0.01802,0.4433546501,0.01802,70.52804678,
0.01804,-0.2875059382,0.01804,70.89347707,
0.01806,-1.018366527,0.01806,70.16261648,
0.01808,-1.018366527,0.01808,70.16261648,
0.0181,-0.6529362324,0.0181,70.89347707,
0.01812,-1.383796821,0.01812,70.52804678,
0.01814,0.4433546501,0.01814,69.43175589,
0.01816,0.8087849443,0.01816,70.89347707,
0.01818,1.174215238,0.01818,70.16261648,
0.0182,0.4433546501,0.0182,70.52804678,
0.01822,1.174215238,0.01822,71.25890736,
0.01824,0.4433546501,0.01824,70.89347707,
0.01826,-1.383796821,0.01826,70.52804678,
0.01828,-1.018366527,0.01828,70.16261648,
0.0183,-2.845517997,0.0183,70.52804678,
0.01832,-1.018366527,0.01832,70.16261648,
0.01834,-0.2875059382,0.01834,70.52804678,
0.01836,-1.383796821,0.01836,70.16261648,
0.01838,-1.018366527,0.01838,70.16261648,
0.0184,-1.383796821,0.0184,70.52804678,
0.01842,-1.749227115,0.01842,70.89347707,
0.01844,-1.018366527,0.01844,69.79718619,
0.01846,-0.2875059382,0.01846,70.52804678,
0.01848,-1.383796821,0.01848,70.89347707,
0.0185,-1.749227115,0.0185,70.16261648,
0.01852,-0.6529362324,0.01852,70.89347707,
0.01854,-2.480087703,0.01854,70.89347707,
0.01856,-1.749227115,0.01856,70.16261648,
0.01858,-0.2875059382,0.01858,70.89347707,
0.0186,-1.383796821,0.0186,70.52804678,
0.01862,1.905075827,0.01862,70.52804678,
0.01864,0.07792435593,0.01864,70.89347707,
0.01866,0.8087849443,0.01866,70.52804678,
0.01868,-0.2875059382,0.01868,70.52804678,
0.0187,-0.6529362324,0.0187,70.52804678,
0.01872,-0.2875059382,0.01872,70.52804678,
0.01874,-0.2875059382,0.01874,70.16261648,
0.01876,0.07792435593,0.01876,70.89347707,
0.01878,-0.2875059382,0.01878,70.89347707,
0.0188,0.07792435593,0.0188,70.52804678,
0.01882,-0.2875059382,0.01882,71.25890736,
0.01884,-0.2875059382,0.01884,70.16261648,
0.01886,0.07792435593,0.01886,70.16261648,
0.01888,0.07792435593,0.01888,70.89347707,
0.0189,0.07792435593,0.0189,70.52804678,
0.01892,0.07792435593,0.01892,70.16261648,
0.01894,0.8087849443,0.01894,71.25890736,
0.01896,1.174215238,0.01896,70.16261648,
0.01898,0.4433546501,0.01898,70.52804678,
0.019,0.8087849443,0.019,70.52804678,
0.01902,0.4433546501,0.01902,70.52804678,
0.01904,-0.6529362324,0.01904,70.52804678,
0.01906,-0.2875059382,0.01906,70.89347707,
0.01908,-1.383796821,0.01908,70.89347707,
0.0191,-0.2875059382,0.0191,70.52804678,
0.01912,-0.2875059382,0.01912,71.25890736,
0.01914,-0.6529362324,0.01914,70.52804678,
0.01916,0.07792435593,0.01916,70.52804678,
0.01918,-0.2875059382,0.01918,71.62433766,
0.0192,-1.018366527,0.0192,70.89347707,
0.01922,-1.383796821,0.01922,70.52804678,
0.01924,1.539645533,0.01924,70.89347707,
0.01926,-1.749227115,0.01926,71.62433766,
0.01928,-3.576378586,0.01928,69.43175589,
0.0193,-3.576378586,0.0193,70.16261648,
0.01932,-2.845517997,0.01932,70.52804678,
0.01934,-3.210948292,0.01934,70.52804678,
0.01936,-0.6529362324,0.01936,70.89347707,
0.01938,-2.114657409,0.01938,69.79718619,
0.0194,-1.383796821,0.0194,70.52804678,
0.01942,0.07792435593,0.01942,70.89347707,
0.01944,-1.018366527,0.01944,70.16261648,
0.01946,-1.383796821,0.01946,70.52804678,
0.01948,-1.383796821,0.01948,70.89347707,
0.0195,-1.749227115,0.0195,70.89347707,
0.01952,-1.018366527,0.01952,70.89347707,
0.01954,-0.2875059382,0.01954,70.89347707,
0.01956,-1.018366527,0.01956,70.52804678,
0.01958,-0.6529362324,0.01958,70.52804678,
0.0196,-0.2875059382,0.0196,71.25890736,
0.01962,1.174215238,0.01962,70.52804678,
0.01964,1.539645533,0.01964,70.52804678,
0.01966,0.07792435593,0.01966,70.89347707,
0.01968,1.174215238,0.01968,70.52804678,
0.0197,0.8087849443,0.0197,70.89347707,
0.01972,-0.2875059382,0.01972,71.25890736,
0.01974,0.8087849443,0.01974,70.52804678,
0.01976,0.07792435593,0.01976,70.89347707,
0.01978,-0.2875059382,0.01978,70.52804678,
0.0198,1.174215238,0.0198,70.52804678,
0.01982,-0.2875059382,0.01982,70.89347707,
0.01984,0.4433546501,0.01984,70.52804678,
0.01986,1.174215238,0.01986,70.52804678,
0.01988,1.905075827,0.01988,71.25890736,
0.0199,0.8087849443,0.0199,70.89347707,
0.01992,1.905075827,0.01992,70.52804678,
0.01994,0.4433546501,0.01994,70.89347707,
0.01996,0.4433546501,0.01996,70.16261648,
0.01998,0.07792435593,0.01998,70.16261648,
0.02,-0.2875059382,0.02,71.25890736,
0.02002,-1.018366527,0.02002,70.52804678,
0.02004,-1.749227115,0.02004,70.16261648,
0.02006,-0.2875059382,0.02006,70.89347707,
0.02008,-2.114657409,0.02008,70.52804678,
0.0201,0.4433546501,0.0201,70.52804678,
0.02012,0.4433546501,0.02012,70.89347707,
0.02014,-1.749227115,0.02014,69.79718619,
0.02016,-0.6529362324,0.02016,69.79718619,
0.02018,0.4433546501,0.02018,69.0663256,
0.0202,-1.383796821,0.0202,69.43175589,
0.02022,1.905075827,0.02022,69.79718619,
0.02024,-2.480087703,0.02024,70.52804678,
0.02026,-1.749227115,0.02026,71.25890736,
0.02028,-1.018366527,0.02028,70.16261648,
0.0203,-4.307239174,0.0203,70.89347707,
0.02032,-1.749227115,0.02032,71.25890736,
0.02034,-1.383796821,0.02034,71.62433766,
0.02036,-2.114657409,0.02036,70.52804678,
0.02038,0.8087849443,0.02038,71.25890736,
0.0204,0.8087849443,0.0204,70.89347707,
0.02042,0.4433546501,0.02042,69.79718619,
0.02044,0.4433546501,0.02044,70.16261648,
0.02046,-2.114657409,0.02046,70.52804678,
0.02048,-1.749227115,0.02048,70.52804678,
0.0205,-1.383796821,0.0205,70.16261648,
0.02052,-1.749227115,0.02052,70.52804678,
0.02054,-1.383796821,0.02054,70.16261648,
0.02056,-0.2875059382,0.02056,70.89347707,
0.02058,-0.6529362324,0.02058,70.52804678,
0.0206,1.174215238,0.0206,70.52804678,
0.02062,0.8087849443,0.02062,70.89347707,
0.02064,0.4433546501,0.02064,70.52804678,
0.02066,0.8087849443,0.02066,70.16261648,
0.02068,0.07792435593,0.02068,71.25890736,
0.0207,-0.2875059382,0.0207,70.52804678,
0.02072,-0.6529362324,0.02072,70.52804678,
0.02074,0.07792435593,0.02074,71.25890736,
0.02076,0.07792435593,0.02076,70.52804678,
0.02078,-0.2875059382,0.02078,70.16261648,
0.0208,0.8087849443,0.0208,70.89347707,
0.02082,-0.6529362324,0.02082,70.52804678,
0.02084,0.4433546501,0.02084,70.89347707,
0.02086,0.4433546501,0.02086,70.89347707,
0.02088,0.4433546501,0.02088,70.16261648,
0.0209,1.539645533,0.0209,70.16261648,
0.02092,1.174215238,0.02092,71.25890736,
0.02094,0.8087849443,0.02094,70.52804678,
0.02096,0.07792435593,0.02096,70.16261648,
0.02098,0.07792435593,0.02098,70.89347707,
0.021,-0.6529362324,0.021,70.52804678,
0.02102,-1.383796821,0.02102,70.16261648,
0.02104,-0.6529362324,0.02104,70.89347707,
0.02106,-0.6529362324,0.02106,70.89347707,
0.02108,-1.018366527,0.02108,70.52804678,
0.0211,-0.2875059382,0.0211,70.89347707,
0.02112,-0.6529362324,0.02112,71.25890736,
0.02114,-1.383796821,0.02114,69.43175589,
0.02116,-1.018366527,0.02116,70.89347707,
0.02118,-3.210948292,0.02118,70.52804678,
0.0212,-1.018366527,0.0212,70.89347707,
0.02122,-0.6529362324,0.02122,71.25890736,
0.02124,-3.210948292,0.02124,70.16261648,
0.02126,-2.845517997,0.02126,71.25890736,
0.02128,-3.210948292,0.02128,71.25890736,
0.0213,0.07792435593,0.0213,70.52804678,
0.02132,-1.018366527,0.02132,69.79718619,
0.02134,-1.018366527,0.02134,71.62433766,
0.02136,-2.114657409,0.02136,70.52804678,
0.02138,-0.6529362324,0.02138,70.52804678,
0.0214,1.174215238,0.0214,71.25890736,
0.02142,-1.383796821,0.02142,70.52804678,
0.02144,-1.018366527,0.02144,70.52804678,
0.02146,-2.480087703,0.02146,70.89347707,
0.02148,-2.114657409,0.02148,70.16261648,
0.0215,-1.018366527,0.0215,70.52804678,
0.02152,-1.018366527,0.02152,70.89347707,
0.02154,0.07792435593,0.02154,70.52804678,
0.02156,0.8087849443,0.02156,70.52804678,
0.02158,0.4433546501,0.02158,70.89347707,
0.0216,-0.6529362324,0.0216,70.52804678,
0.02162,0.07792435593,0.02162,69.79718619,
0.02164,1.174215238,0.02164,71.62433766,
0.02166,-0.2875059382,0.02166,70.16261648,
0.02168,0.8087849443,0.02168,70.16261648,
0.0217,1.174215238,0.0217,70.89347707,
0.02172,-0.2875059382,0.02172,70.52804678,
0.02174,0.07792435593,0.02174,70.52804678,
0.02176,0.4433546501,0.02176,71.25890736,
0.02178,0.07792435593,0.02178,70.52804678,
0.0218,-0.6529362324,0.0218,70.16261648,
0.02182,0.8087849443,0.02182,70.89347707,
0.02184,0.8087849443,0.02184,70.52804678,
0.02186,1.174215238,0.02186,70.52804678,
0.02188,1.539645533,0.02188,70.89347707,
0.0219,1.174215238,0.0219,70.52804678,
0.02192,1.539645533,0.02192,70.16261648,
0.02194,0.07792435593,0.02194,70.89347707,
0.02196,0.07792435593,0.02196,70.52804678,
0.02198,-0.6529362324,0.02198,70.52804678,
0.022,-0.6529362324,0.022,70.89347707,
0.02202,-1.383796821,0.02202,70.52804678,
0.02204,0.07792435593,0.02204,70.16261648,
0.02206,0.07792435593,0.02206,70.52804678,
0.02208,-0.6529362324,0.02208,70.52804678,
0.0221,-1.018366527,0.0221,70.16261648,
0.02212,-0.2875059382,0.02212,70.52804678,
0.02214,0.07792435593,0.02214,70.52804678,
0.02216,-0.2875059382,0.02216,69.79718619,
0.02218,0.4433546501,0.02218,71.25890736,
0.0222,-3.210948292,0.0222,70.52804678,
0.02222,0.07792435593,0.02222,69.79718619,
0.02224,-1.749227115,0.02224,69.79718619,
0.02226,-2.845517997,0.02226,69.43175589,
0.02228,-2.845517997,0.02228,69.79718619,
0.0223,-1.383796821,0.0223,71.25890736,
0.02232,-2.114657409,0.02232,70.16261648,
0.02234,0.07792435593,0.02234,70.16261648,
0.02236,0.4433546501,0.02236,71.25890736,
0.02238,-0.6529362324,0.02238,70.16261648,
0.0224,-1.018366527,0.0224,70.16261648,
0.02242,-1.018366527,0.02242,70.89347707,
0.02244,-1.383796821,0.02244,70.89347707,
0.02246,-0.2875059382,0.02246,70.16261648,
0.02248,-1.018366527,0.02248,71.25890736,
0.0225,-1.383796821,0.0225,70.89347707,
0.02252,-0.2875059382,0.02252,70.52804678,
0.02254,0.8087849443,0.02254,70.89347707,
0.02256,0.07792435593,0.02256,70.52804678,
0.02258,1.539645533,0.02258,70.52804678,
0.0226,0.8087849443,0.0226,70.89347707,
0.02262,0.4433546501,0.02262,70.52804678,
0.02264,0.8087849443,0.02264,70.52804678,
0.02266,0.4433546501,0.02266,70.52804678,
0.02268,0.4433546501,0.02268,70.52804678,
0.0227,0.07792435593,0.0227,70.52804678,
0.02272,0.8087849443,0.02272,70.89347707,
0.02274,0.07792435593,0.02274,70.52804678,
0.02276,1.174215238,0.02276,70.52804678,
0.02278,0.8087849443,0.02278,70.89347707,
0.0228,0.8087849443,0.0228,70.16261648,
0.02282,1.174215238,0.02282,70.52804678,
0.02284,1.539645533,0.02284,70.89347707,
0.02286,1.539645533,0.02286,70.89347707,
0.02288,3.001366709,0.02288,70.16261648,
0.0229,1.539645533,0.0229,70.89347707,
0.02292,0.8087849443,0.02292,70.52804678,
0.02294,0.8087849443,0.02294,70.52804678,
0.02296,0.07792435593,0.02296,71.25890736,
0.02298,-0.2875059382,0.02298,70.89347707,
0.023,-0.6529362324,0.023,70.52804678,
0.02302,0.4433546501,0.02302,70.89347707,
0.02304,0.07792435593,0.02304,70.89347707,
0.02306,0.4433546501,0.02306,70.52804678,
0.02308,-0.2875059382,0.02308,70.89347707,
0.0231,-0.6529362324,0.0231,70.89347707,
0.02312,0.07792435593,0.02312,70.16261648,
0.02314,1.174215238,0.02314,70.89347707,
0.02316,-2.114657409,0.02316,70.89347707,
0.02318,1.174215238,0.02318,69.43175589,
0.0232,-2.480087703,0.0232,71.25890736,
0.02322,-4.672669468,0.02322,70.52804678,
0.02324,1.174215238,0.02324,70.16261648,
0.02326,-1.018366527,0.02326,70.52804678,
0.02328,-2.114657409,0.02328,71.25890736,
0.0233,-0.2875059382,0.0233,70.52804678,
0.02332,-0.6529362324,0.02332,70.89347707,
0.02334,0.4433546501,0.02334,70.16261648,
0.02336,-1.383796821,0.02336,70.89347707,
0.02338,-0.6529362324,0.02338,71.25890736,
0.0234,-1.383796821,0.0234,70.52804678,
0.02342,-1.383796821,0.02342,70.52804678,
0.02344,-1.749227115,0.02344,70.89347707,
0.02346,-1.749227115,0.02346,70.52804678,
0.02348,-1.383796821,0.02348,70.16261648,
0.0235,-0.2875059382,0.0235,70.52804678,
0.02352,-0.2875059382,0.02352,70.52804678,
0.02354,0.07792435593,0.02354,70.52804678,
0.02356,0.07792435593,0.02356,70.89347707,
0.02358,0.8087849443,0.02358,70.52804678,
0.0236,0.4433546501,0.0236,70.52804678,
0.02362,1.174215238,0.02362,70.52804678,
0.02364,0.4433546501,0.02364,70.52804678,
0.02366,1.539645533,0.02366,70.52804678,
0.02368,0.4433546501,0.02368,70.52804678,
0.0237,0.07792435593,0.0237,70.52804678,
0.02372,0.4433546501,0.02372,70.89347707,
0.02374,0.4433546501,0.02374,70.89347707,
0.02376,1.174215238,0.02376,70.52804678,
0.02378,1.174215238,0.02378,70.52804678,
0.0238,1.174215238,0.0238,70.89347707,
0.02382,1.539645533,0.02382,70.16261648,
0.02384,0.8087849443,0.02384,70.16261648,
0.02386,1.905075827,0.02386,71.25890736,
0.02388,1.174215238,0.02388,70.89347707,
0.0239,0.07792435593,0.0239,70.52804678,
0.02392,0.8087849443,0.02392,70.89347707,
0.02394,-0.2875059382,0.02394,70.16261648,
0.02396,-2.114657409,0.02396,70.52804678,
0.02398,-0.6529362324,0.02398,70.89347707,
0.024,-1.018366527,0.024,70.52804678,
0.02402,0.07792435593,0.02402,70.52804678,
0.02404,-0.2875059382,0.02404,70.52804678,
0.02406,-1.383796821,0.02406,71.25890736,
0.02408,0.4433546501,0.02408,70.52804678,
0.0241,-1.018366527,0.0241,70.89347707,
0.02412,-2.114657409,0.02412,70.16261648,
0.02414,-2.480087703,0.02414,70.16261648,
0.02416,-1.383796821,0.02416,71.98976795,
0.02418,0.4433546501,0.02418,70.52804678,
0.0242,-2.480087703,0.0242,70.16261648,
0.02422,-4.672669468,0.02422,70.52804678,
0.02424,-2.480087703,0.02424,70.89347707,
0.02426,-2.845517997,0.02426,69.79718619,
0.02428,0.07792435593,0.02428,70.89347707,
0.0243,-0.6529362324,0.0243,70.16261648,
0.02432,0.4433546501,0.02432,70.52804678,
0.02434,0.4433546501,0.02434,69.43175589,
0.02436,-1.749227115,0.02436,71.25890736,
0.02438,-1.383796821,0.02438,70.16261648,
0.0244,-1.749227115,0.0244,70.52804678,
0.02442,0.07792435593,0.02442,70.52804678,
0.02444,-0.2875059382,0.02444,70.16261648,
0.02446,-1.018366527,0.02446,70.16261648,
0.02448,0.4433546501,0.02448,70.52804678,
0.0245,1.174215238,0.0245,70.52804678,
0.02452,0.8087849443,0.02452,69.79718619,
0.02454,1.539645533,0.02454,70.16261648,
0.02456,1.174215238,0.02456,70.52804678,
0.02458,0.8087849443,0.02458,70.52804678,
0.0246,1.174215238,0.0246,70.52804678,
0.02462,0.8087849443,0.02462,70.52804678,
0.02464,-0.2875059382,0.02464,70.52804678,
0.02466,-1.018366527,0.02466,70.89347707,
0.02468,1.539645533,0.02468,70.52804678,
0.0247,0.07792435593,0.0247,70.16261648,
0.02472,0.4433546501,0.02472,70.16261648,
0.02474,0.4433546501,0.02474,70.52804678,
0.02476,0.07792435593,0.02476,69.79718619,
0.02478,2.270506121,0.02478,70.16261648,
0.0248,1.174215238,0.0248,70.52804678,
0.02482,0.4433546501,0.02482,70.16261648,
0.02484,1.539645533,0.02484,70.16261648,
0.02486,0.8087849443,0.02486,70.89347707,
0.02488,-0.6529362324,0.02488,70.16261648,
0.0249,-0.2875059382,0.0249,70.52804678,
0.02492,0.4433546501,0.02492,70.52804678,
0.02494,-0.2875059382,0.02494,70.16261648,
0.02496,0.4433546501,0.02496,70.52804678,
0.02498,0.8087849443,0.02498,70.52804678,
0.025,-0.2875059382,0.025,70.16261648,
0.02502,0.4433546501,0.02502,70.52804678,
0.02504,0.8087849443,0.02504,70.89347707,
0.02506,-0.2875059382,0.02506,70.52804678,
0.02508,1.905075827,0.02508,70.52804678,
0.0251,-2.480087703,0.0251,70.16261648,
0.02512,0.8087849443,0.02512,69.79718619,
0.02514,-1.018366527,0.02514,70.16261648,
0.02516,-2.845517997,0.02516,71.25890736,
0.02518,0.07792435593,0.02518,70.16261648,
0.0252,-2.114657409,0.0252,70.16261648,
0.02522,-1.383796821,0.02522,70.52804678,
0.02524,-1.018366527,0.02524,70.52804678,
0.02526,-0.6529362324,0.02526,70.52804678,
0.02528,-0.2875059382,0.02528,69.79718619,
0.0253,0.07792435593,0.0253,70.16261648,
0.02532,-1.383796821,0.02532,70.16261648,
0.02534,-0.2875059382,0.02534,71.25890736,
0.02536,-1.383796821,0.02536,70.89347707,
0.02538,-1.749227115,0.02538,70.52804678,
0.0254,-1.018366527,0.0254,70.16261648,
0.02542,-1.749227115,0.02542,70.89347707,
0.02544,-0.2875059382,0.02544,70.52804678,
0.02546,-0.2875059382,0.02546,70.52804678,
0.02548,0.8087849443,0.02548,70.52804678,
0.0255,0.4433546501,0.0255,70.52804678,
0.02552,1.174215238,0.02552,70.89347707,
0.02554,1.174215238,0.02554,70.89347707,
0.02556,0.8087849443,0.02556,70.52804678,
0.02558,1.539645533,0.02558,70.52804678,
0.0256,-0.6529362324,0.0256,70.52804678,
0.02562,0.4433546501,0.02562,70.89347707,
0.02564,-1.383796821,0.02564,70.52804678,
0.02566,0.8087849443,0.02566,70.16261648,
0.02568,1.174215238,0.02568,70.89347707,
0.0257,-0.6529362324,0.0257,70.52804678,
0.02572,0.8087849443,0.02572,70.89347707,
0.02574,0.4433546501,0.02574,71.25890736,
0.02576,1.174215238,0.02576,70.52804678,
0.02578,2.270506121,0.02578,70.52804678,
0.0258,1.905075827,0.0258,70.89347707,
0.02582,0.4433546501,0.02582,70.52804678,
0.02584,0.8087849443,0.02584,70.16261648,
0.02586,0.8087849443,0.02586,70.52804678,
0.02588,-0.2875059382,0.02588,70.52804678,
0.0259,-1.018366527,0.0259,70.52804678,
0.02592,-1.018366527,0.02592,70.89347707,
0.02594,-1.018366527,0.02594,70.52804678,
0.02596,-1.749227115,0.02596,70.52804678,
0.02598,0.07792435593,0.02598,70.89347707,
0.026,0.8087849443,0.026,70.52804678,
0.02602,0.8087849443,0.02602,70.16261648,
0.02604,-1.018366527,0.02604,70.89347707,
0.02606,0.4433546501,0.02606,70.16261648,
0.02608,-0.2875059382,0.02608,70.89347707,
0.0261,-1.383796821,0.0261,70.89347707,
0.02612,-1.383796821,0.02612,70.89347707,
0.02614,-2.845517997,0.02614,69.0663256,
0.02616,-4.307239174,0.02616,70.52804678,
0.02618,-2.845517997,0.02618,71.25890736,
0.0262,-2.114657409,0.0262,70.89347707,
0.02622,-1.018366527,0.02622,70.89347707,
0.02624,-1.383796821,0.02624,70.52804678,
0.02626,-0.2875059382,0.02626,70.16261648,
0.02628,-0.6529362324,0.02628,70.89347707,
0.0263,-1.749227115,0.0263,70.16261648,
0.02632,-1.383796821,0.02632,70.16261648,
0.02634,-1.018366527,0.02634,70.89347707,
0.02636,-1.749227115,0.02636,70.16261648,
0.02638,-1.383796821,0.02638,70.16261648,
0.0264,-1.018366527,0.0264,70.89347707,
0.02642,-0.6529362324,0.02642,70.16261648,
0.02644,-0.2875059382,0.02644,70.52804678,
0.02646,0.8087849443,0.02646,70.89347707,
0.02648,0.4433546501,0.02648,70.52804678,
0.0265,1.905075827,0.0265,70.52804678,
0.02652,0.8087849443,0.02652,70.89347707,
0.02654,0.07792435593,0.02654,70.52804678,
0.02656,0.07792435593,0.02656,70.52804678,
0.02658,-0.6529362324,0.02658,70.89347707,
0.0266,-0.2875059382,0.0266,70.52804678,
0.02662,0.8087849443,0.02662,70.52804678,
0.02664,0.07792435593,0.02664,70.89347707,
0.02666,-0.6529362324,0.02666,70.52804678,
0.02668,0.07792435593,0.02668,70.52804678,
0.0267,0.4433546501,0.0267,70.89347707,
0.02672,0.8087849443,0.02672,70.89347707,
0.02674,1.905075827,0.02674,70.52804678,
0.02676,1.539645533,0.02676,70.89347707,
0.02678,0.07792435593,0.02678,70.52804678,
0.0268,0.8087849443,0.0268,70.52804678,
0.02682,0.07792435593,0.02682,70.52804678,
0.02684,-0.2875059382,0.02684,70.52804678,
0.02686,-0.2875059382,0.02686,70.16261648,
0.02688,-0.2875059382,0.02688,70.89347707,
0.0269,-1.749227115,0.0269,70.89347707,
0.02692,0.07792435593,0.02692,70.52804678,
0.02694,0.07792435593,0.02694,70.89347707,
0.02696,0.07792435593,0.02696,70.89347707,
0.02698,0.07792435593,0.02698,70.52804678,
0.027,0.8087849443,0.027,70.89347707,
0.02702,-1.018366527,0.02702,70.89347707,
0.02704,-1.018366527,0.02704,70.89347707,
0.02706,-1.018366527,0.02706,71.25890736,
0.02708,-1.383796821,0.02708,70.52804678,
0.0271,-1.749227115,0.0271,70.89347707,
0.02712,-1.383796821,0.02712,70.52804678,
0.02714,-3.210948292,0.02714,70.52804678,
0.02716,-2.845517997,0.02716,69.43175589,
0.02718,-0.6529362324,0.02718,70.16261648,
0.0272,0.07792435593,0.0272,70.16261648,
0.02722,0.4433546501,0.02722,70.52804678,
0.02724,-1.383796821,0.02724,70.16261648,
0.02726,-1.383796821,0.02726,70.89347707,
0.02728,-0.2875059382,0.02728,70.52804678,
0.0273,-1.383796821,0.0273,70.16261648,
0.02732,-0.6529362324,0.02732,70.52804678,
0.02734,-1.018366527,0.02734,70.52804678,
0.02736,-1.383796821,0.02736,69.79718619,
0.02738,-0.2875059382,0.02738,70.52804678,
0.0274,-0.2875059382,0.0274,70.52804678,
0.02742,-0.6529362324,0.02742,69.79718619,
0.02744,2.270506121,0.02744,70.52804678,
0.02746,1.539645533,0.02746,70.16261648,
0.02748,0.4433546501,0.02748,69.79718619,
0.0275,0.07792435593,0.0275,70.89347707,
0.02752,0.4433546501,0.02752,70.52804678,
0.02754,-0.6529362324,0.02754,69.79718619,
0.02756,0.07792435593,0.02756,70.52804678,
0.02758,-1.018366527,0.02758,70.52804678,
0.0276,0.07792435593,0.0276,69.79718619,
0.02762,1.539645533,0.02762,70.16261648,
0.02764,0.07792435593,0.02764,70.16261648,
0.02766,1.539645533,0.02766,69.79718619,
0.02768,1.174215238,0.02768,70.16261648,
0.0277,0.8087849443,0.0277,70.16261648,
0.02772,1.539645533,0.02772,70.16261648,
0.02774,2.635936415,0.02774,70.52804678,
0.02776,0.8087849443,0.02776,70.16261648,
0.02778,0.07792435593,0.02778,69.79718619,
0.0278,1.905075827,0.0278,70.16261648,
0.02782,0.4433546501,0.02782,70.52804678,
0.02784,-0.2875059382,0.02784,69.79718619,
0.02786,0.07792435593,0.02786,70.52804678,
0.02788,-0.2875059382,0.02788,70.16261648,
0.0279,-1.749227115,0.0279,70.16261648,
0.02792,0.07792435593,0.02792,70.16261648,
0.02794,0.07792435593,0.02794,70.52804678,
0.02796,0.8087849443,0.02796,69.79718619,
0.02798,0.07792435593,0.02798,70.89347707,
0.028,0.07792435593,0.028,70.89347707,
0.02802,0.8087849443,0.02802,69.79718619,
0.02804,0.4433546501,0.02804,71.25890736,
0.02806,-0.6529362324,0.02806,70.16261648,
0.02808,-1.383796821,0.02808,70.16261648,
0.0281,-3.94180888,0.0281,70.16261648,
0.02812,1.174215238,0.02812,71.25890736,
0.02814,1.539645533,0.02814,69.0663256,
0.02816,-0.6529362324,0.02816,70.16261648,
0.02818,-0.2875059382,0.02818,70.89347707,
0.0282,-1.749227115,0.0282,70.16261648,
0.02822,-0.2875059382,0.02822,70.16261648,
0.02824,-0.6529362324,0.02824,70.16261648,
0.02826,-0.6529362324,0.02826,70.52804678,
0.02828,-0.6529362324,0.02828,70.16261648,
0.0283,-1.383796821,0.0283,70.16261648,
0.02832,-1.749227115,0.02832,70.16261648,
0.02834,-1.383796821,0.02834,70.16261648,
0.02836,-0.6529362324,0.02836,70.52804678,
0.02838,-1.018366527,0.02838,70.16261648,
0.0284,0.4433546501,0.0284,70.52804678,
0.02842,0.8087849443,0.02842,70.52804678,
0.02844,0.07792435593,0.02844,70.16261648,
0.02846,1.539645533,0.02846,70.16261648,
0.02848,0.4433546501,0.02848,70.52804678,
0.0285,1.539645533,0.0285,70.16261648,
0.02852,0.8087849443,0.02852,70.16261648,
0.02854,0.4433546501,0.02854,70.16261648,
0.02856,0.4433546501,0.02856,70.16261648,
0.02858,0.4433546501,0.02858,70.52804678,
0.0286,0.8087849443,0.0286,70.52804678,
0.02862,0.8087849443,0.02862,70.16261648,
0.02864,0.8087849443,0.02864,70.52804678,
0.02866,0.4433546501,0.02866,70.16261648,
0.02868,0.8087849443,0.02868,70.52804678,
0.0287,1.174215238,0.0287,70.52804678,
0.02872,1.905075827,0.02872,70.52804678,
0.02874,0.8087849443,0.02874,70.16261648,
0.02876,2.635936415,0.02876,70.52804678,
0.02878,1.174215238,0.02878,70.52804678,
0.0288,0.07792435593,0.0288,69.79718619,
0.02882,0.8087849443,0.02882,70.52804678,
0.02884,-0.2875059382,0.02884,70.16261648,
0.02886,-1.383796821,0.02886,70.52804678,
0.02888,0.07792435593,0.02888,70.52804678,
0.0289,-0.2875059382,0.0289,70.16261648,
0.02892,-1.018366527,0.02892,69.79718619,
0.02894,-0.2875059382,0.02894,70.16261648,
0.02896,-1.383796821,0.02896,70.52804678,
0.02898,-1.749227115,0.02898,69.0663256,
0.029,1.905075827,0.029,70.52804678,
0.02902,-1.749227115,0.02902,70.16261648,
0.02904,-0.2875059382,0.02904,70.16261648,
0.02906,-1.383796821,0.02906,70.52804678,
0.02908,0.07792435593,0.02908,70.16261648,
0.0291,-3.210948292,0.0291,71.25890736,
0.02912,-0.6529362324,0.02912,70.52804678,
0.02914,-1.749227115,0.02914,70.52804678,
0.02916,-0.6529362324,0.02916,71.25890736,
0.02918,-0.6529362324,0.02918,70.52804678,
0.0292,-0.6529362324,0.0292,69.79718619,
0.02922,-1.383796821,0.02922,70.52804678,
0.02924,-1.018366527,0.02924,70.16261648,
0.02926,-1.018366527,0.02926,70.16261648,
0.02928,-2.114657409,0.02928,70.89347707,
0.0293,-1.749227115,0.0293,70.16261648,
0.02932,-1.383796821,0.02932,70.16261648,
0.02934,-0.6529362324,0.02934,70.52804678,
0.02936,-0.6529362324,0.02936,70.16261648,
0.02938,0.4433546501,0.02938,70.52804678,
0.0294,0.4433546501,0.0294,70.89347707,
0.02942,0.4433546501,0.02942,70.16261648,
0.02944,0.8087849443,0.02944,70.16261648,
0.02946,0.4433546501,0.02946,71.25890736,
0.02948,0.4433546501,0.02948,70.16261648,
0.0295,0.07792435593,0.0295,70.16261648,
0.02952,0.07792435593,0.02952,70.89347707,
0.02954,0.4433546501,0.02954,70.52804678,
0.02956,0.07792435593,0.02956,70.52804678,
0.02958,0.07792435593,0.02958,70.89347707,
0.0296,0.4433546501,0.0296,70.16261648,
0.02962,0.07792435593,0.02962,70.52804678,
0.02964,1.539645533,0.02964,70.89347707,
0.02966,-0.2875059382,0.02966,70.52804678,
0.02968,0.8087849443,0.02968,70.16261648,
0.0297,0.8087849443,0.0297,70.52804678,
0.02972,1.174215238,0.02972,70.52804678,
0.02974,0.8087849443,0.02974,70.16261648,
0.02976,0.8087849443,0.02976,70.52804678,
0.02978,0.4433546501,0.02978,70.16261648,
0.0298,-0.6529362324,0.0298,70.16261648,
0.02982,-0.6529362324,0.02982,70.89347707,
0.02984,-1.383796821,0.02984,70.16261648,
0.02986,-0.2875059382,0.02986,70.16261648,
0.02988,-0.2875059382,0.02988,70.89347707,
0.0299,-1.383796821,0.0299,70.52804678,
0.02992,1.174215238,0.02992,70.16261648,
0.02994,0.4433546501,0.02994,70.89347707,
0.02996,-1.018366527,0.02996,70.16261648,
0.02998,-1.749227115,0.02998,69.79718619,
0.03,0.07792435593,0.03,71.25890736,
0.03002,1.174215238,0.03002,69.43175589,
0.03004,-3.210948292,0.03004,70.16261648,
0.03006,-1.383796821,0.03006,70.89347707,
0.03008,-3.94180888,0.03008,70.52804678,
0.0301,-3.210948292,0.0301,70.16261648,
0.03012,-1.018366527,0.03012,71.25890736,
0.03014,-2.114657409,0.03014,70.52804678,
0.03016,-0.6529362324,0.03016,70.16261648,
0.03018,-1.749227115,0.03018,71.25890736,
0.0302,-2.845517997,0.0302,70.16261648,
0.03022,-0.2875059382,0.03022,70.16261648,
0.03024,-1.383796821,0.03024,70.89347707,
0.03026,-2.114657409,0.03026,70.52804678,
0.03028,-1.749227115,0.03028,70.16261648,
0.0303,-1.383796821,0.0303,70.89347707,
0.03032,-0.6529362324,0.03032,70.52804678,
0.03034,-1.383796821,0.03034,70.52804678,
0.03036,0.8087849443,0.03036,70.89347707,
0.03038,-0.6529362324,0.03038,70.52804678,
0.0304,1.174215238,0.0304,70.52804678,
0.03042,0.8087849443,0.03042,70.16261648,
0.03044,0.8087849443,0.03044,70.89347707,
0.03046,0.8087849443,0.03046,70.89347707,
0.03048,0.8087849443,0.03048,70.52804678,
0.0305,0.4433546501,0.0305,70.89347707,
0.03052,1.174215238,0.03052,70.52804678,
0.03054,0.8087849443,0.03054,70.89347707,
0.03056,-0.2875059382,0.03056,70.52804678,
0.03058,-0.6529362324,0.03058,70.89347707,
0.0306,-0.2875059382,0.0306,70.89347707,
0.03062,0.07792435593,0.03062,70.16261648,
0.03064,0.07792435593,0.03064,71.25890736,
0.03066,3.001366709,0.03066,70.52804678,
0.03068,2.270506121,0.03068,70.52804678,
0.0307,0.8087849443,0.0307,70.52804678,
0.03072,0.07792435593,0.03072,70.52804678,
0.03074,0.8087849443,0.03074,70.52804678,
0.03076,0.4433546501,0.03076,70.16261648,
0.03078,-1.018366527,0.03078,70.89347707,
0.0308,-1.018366527,0.0308,70.52804678,
0.03082,-1.018366527,0.03082,69.79718619,
0.03084,-0.6529362324,0.03084,70.89347707,
0.03086,-1.018366527,0.03086,70.16261648,
0.03088,1.174215238,0.03088,70.16261648,
0.0309,1.174215238,0.0309,70.89347707,
0.03092,-1.383796821,0.03092,70.16261648,
0.03094,-1.383796821,0.03094,70.16261648,
0.03096,0.8087849443,0.03096,70.89347707,
0.03098,-2.114657409,0.03098,69.79718619,
0.031,-1.018366527,0.031,71.25890736,
0.03102,0.4433546501,0.03102,71.25890736,
0.03104,-3.210948292,0.03104,71.25890736,
0.03106,-1.749227115,0.03106,70.52804678,
0.03108,-3.576378586,0.03108,70.16261648,
0.0311,-1.383796821,0.0311,70.89347707,
0.03112,-1.018366527,0.03112,71.25890736,
0.03114,-3.210948292,0.03114,70.52804678,
0.03116,-1.018366527,0.03116,70.16261648,
0.03118,-2.114657409,0.03118,70.89347707,
0.0312,-1.018366527,0.0312,70.52804678,
0.03122,-0.2875059382,0.03122,70.52804678,
0.03124,-2.480087703,0.03124,70.52804678,
0.03126,-2.114657409,0.03126,70.52804678,
0.03128,-1.018366527,0.03128,70.16261648,
0.0313,-1.018366527,0.0313,70.89347707,
0.03132,-1.018366527,0.03132,70.52804678,
0.03134,0.07792435593,0.03134,70.16261648,
0.03136,0.8087849443,0.03136,70.89347707,
0.03138,0.07792435593,0.03138,70.52804678,
0.0314,0.8087849443,0.0314,70.16261648,
0.03142,0.8087849443,0.03142,71.25890736,
0.03144,-0.6529362324,0.03144,70.52804678,
0.03146,-0.2875059382,0.03146,70.16261648,
0.03148,0.07792435593,0.03148,70.89347707,
0.0315,0.07792435593,0.0315,70.16261648,
0.03152,0.8087849443,0.03152,70.16261648,
0.03154,-0.6529362324,0.03154,70.52804678,
0.03156,0.07792435593,0.03156,70.52804678,
0.03158,0.4433546501,0.03158,70.16261648,
0.0316,0.07792435593,0.0316,70.89347707,
0.03162,0.07792435593,0.03162,70.52804678,
0.03164,1.539645533,0.03164,70.16261648,
0.03166,1.905075827,0.03166,70.52804678,
0.03168,0.4433546501,0.03168,70.52804678,
0.0317,1.174215238,0.0317,70.16261648,
0.03172,1.539645533,0.03172,70.52804678,
0.03174,-1.383796821,0.03174,70.52804678,
0.03176,-0.6529362324,0.03176,70.52804678,
0.03178,-0.6529362324,0.03178,71.25890736,
0.0318,-0.6529362324,0.0318,70.52804678,
0.03182,-0.6529362324,0.03182,70.16261648,
0.03184,0.4433546501,0.03184,70.52804678,
0.03186,-0.2875059382,0.03186,70.16261648,
0.03188,0.8087849443,0.03188,70.52804678,
0.0319,0.07792435593,0.0319,71.25890736,
0.03192,-1.018366527,0.03192,70.52804678,
0.03194,1.539645533,0.03194,70.89347707,
0.03196,-0.6529362324,0.03196,70.16261648,
0.03198,-2.480087703,0.03198,70.89347707,
0.032,-2.480087703,0.032,71.25890736,
0.03202,-0.6529362324,0.03202,71.98976795,
0.03204,-3.576378586,0.03204,70.16261648,
0.03206,-0.6529362324,0.03206,70.16261648,
0.03208,-1.749227115,0.03208,70.16261648,
0.0321,-1.018366527,0.0321,70.52804678,
0.03212,1.174215238,0.03212,70.89347707,
0.03214,-1.018366527,0.03214,70.52804678,
0.03216,-0.2875059382,0.03216,70.16261648,
0.03218,-1.383796821,0.03218,70.89347707,
0.0322,-1.018366527,0.0322,71.25890736,
0.03222,-1.383796821,0.03222,70.52804678,
0.03224,-1.383796821,0.03224,70.16261648,
0.03226,-0.6529362324,0.03226,70.52804678,
0.03228,-0.6529362324,0.03228,70.52804678,
0.0323,-1.018366527,0.0323,70.52804678,
0.03232,-0.2875059382,0.03232,70.89347707,
0.03234,-0.2875059382,0.03234,70.16261648,
0.03236,1.174215238,0.03236,70.52804678,
0.03238,1.174215238,0.03238,70.89347707,
0.0324,-1.383796821,0.0324,70.52804678,
0.03242,0.4433546501,0.03242,70.52804678,
0.03244,0.4433546501,0.03244,70.52804678,
0.03246,0.07792435593,0.03246,70.52804678,
0.03248,0.4433546501,0.03248,70.16261648,
0.0325,-0.2875059382,0.0325,70.89347707,
0.03252,-0.2875059382,0.03252,70.52804678,
0.03254,0.07792435593,0.03254,70.52804678,
0.03256,1.174215238,0.03256,70.89347707,
0.03258,-0.2875059382,0.03258,71.25890736,
0.0326,1.539645533,0.0326,70.52804678,
0.03262,1.539645533,0.03262,70.89347707,
0.03264,1.174215238,0.03264,70.52804678,
0.03266,1.174215238,0.03266,69.79718619,
0.03268,0.8087849443,0.03268,70.89347707,
0.0327,-0.2875059382,0.0327,70.16261648,
0.03272,0.8087849443,0.03272,70.16261648,
0.03274,-0.6529362324,0.03274,70.89347707,
0.03276,-1.018366527,0.03276,70.52804678,
0.03278,-1.749227115,0.03278,70.52804678,
0.0328,-0.6529362324,0.0328,70.89347707,
0.03282,-0.6529362324,0.03282,70.52804678,
0.03284,1.174215238,0.03284,70.16261648,
0.03286,0.07792435593,0.03286,70.89347707,
0.03288,1.539645533,0.03288,70.16261648,
0.0329,0.8087849443,0.0329,69.79718619,
0.03292,-0.6529362324,0.03292,69.0663256,
0.03294,0.07792435593,0.03294,69.43175589,
0.03296,-0.6529362324,0.03296,70.89347707,
0.03298,-2.480087703,0.03298,70.16261648,
0.033,-3.576378586,0.033,70.16261648,
0.03302,-2.114657409,0.03302,70.52804678,
0.03304,-3.210948292,0.03304,69.79718619,
0.03306,0.07792435593,0.03306,70.52804678,
0.03308,-1.018366527,0.03308,69.79718619,
0.0331,-0.2875059382,0.0331,70.16261648,
0.03312,0.4433546501,0.03312,70.52804678,
0.03314,0.07792435593,0.03314,70.16261648,
0.03316,-2.480087703,0.03316,70.52804678,
0.03318,-1.018366527,0.03318,70.52804678,
0.0332,-1.383796821,0.0332,70.16261648,
0.03322,-2.845517997,0.03322,69.79718619,
0.03324,-0.2875059382,0.03324,70.52804678,
0.03326,-0.6529362324,0.03326,70.52804678,
0.03328,-0.6529362324,0.03328,70.16261648,
0.0333,0.4433546501,0.0333,70.52804678,
0.03332,0.4433546501,0.03332,70.16261648,
0.03334,0.4433546501,0.03334,70.16261648,
0.03336,1.174215238,0.03336,70.52804678,
0.03338,0.8087849443,0.03338,70.16261648,
0.0334,1.174215238,0.0334,69.79718619,
0.03342,0.8087849443,0.03342,70.16261648,
0.03344,-1.018366527,0.03344,70.52804678,
0.03346,0.07792435593,0.03346,70.16261648,
0.03348,0.8087849443,0.03348,70.52804678,
0.0335,-0.2875059382,0.0335,70.52804678,
0.03352,-1.018366527,0.03352,69.79718619,
0.03354,-0.6529362324,0.03354,70.16261648,
0.03356,0.8087849443,0.03356,70.52804678,
0.03358,0.4433546501,0.03358,70.16261648,
0.0336,1.539645533,0.0336,70.16261648,
0.03362,1.539645533,0.03362,70.52804678,
0.03364,1.174215238,0.03364,70.16261648,
0.03366,1.174215238,0.03366,70.16261648,
0.03368,1.174215238,0.03368,70.52804678,
0.0337,0.8087849443,0.0337,69.79718619,
0.03372,0.07792435593,0.03372,70.52804678,
0.03374,0.07792435593,0.03374,70.16261648,
0.03376,-0.2875059382,0.03376,69.79718619,
0.03378,-0.6529362324,0.03378,70.52804678,
0.0338,-0.6529362324,0.0338,70.52804678,
0.03382,0.4433546501,0.03382,70.16261648,
0.03384,-0.2875059382,0.03384,70.89347707,
0.03386,-1.018366527,0.03386,71.25890736,
0.03388,1.905075827,0.03388,69.43175589,
0.0339,0.8087849443,0.0339,70.89347707,
0.03392,1.539645533,0.03392,70.16261648,
0.03394,-2.114657409,0.03394,69.79718619,
0.03396,-1.018366527,0.03396,71.25890736,
0.03398,-1.383796821,0.03398,70.89347707,
0.034,-2.845517997,0.034,69.43175589,
0.03402,-1.383796821,0.03402,70.52804678,
0.03404,-0.6529362324,0.03404,70.52804678,
0.03406,0.07792435593,0.03406,70.16261648,
0.03408,0.8087849443,0.03408,70.52804678,
0.0341,-0.2875059382,0.0341,70.52804678,
0.03412,0.07792435593,0.03412,70.16261648,
0.03414,0.4433546501,0.03414,70.52804678,
0.03416,-0.6529362324,0.03416,70.16261648,
0.03418,-1.018366527,0.03418,70.16261648,
0.0342,-0.2875059382,0.0342,70.52804678,
0.03422,-2.114657409,0.03422,70.52804678,
0.03424,-1.383796821,0.03424,70.16261648,
0.03426,-0.6529362324,0.03426,70.52804678,
0.03428,-0.2875059382,0.03428,70.52804678,
0.0343,0.4433546501,0.0343,70.16261648,
0.03432,0.4433546501,0.03432,70.52804678,
0.03434,1.174215238,0.03434,70.52804678,
0.03436,0.07792435593,0.03436,70.16261648,
0.03438,1.539645533,0.03438,70.52804678,
0.0344,1.539645533,0.0344,70.16261648,
0.03442,0.8087849443,0.03442,70.16261648,
0.03444,1.174215238,0.03444,70.16261648,
0.03446,0.8087849443,0.03446,70.16261648,
0.03448,0.4433546501,0.03448,69.79718619,
0.0345,0.07792435593,0.0345,70.52804678,
0.03452,0.07792435593,0.03452,70.52804678,
0.03454,0.8087849443,0.03454,69.79718619,
0.03456,0.8087849443,0.03456,70.52804678,
0.03458,1.905075827,0.03458,70.89347707,
0.0346,0.4433546501,0.0346,70.16261648,
0.03462,1.539645533,0.03462,70.52804678,
0.03464,0.8087849443,0.03464,70.52804678,
0.03466,0.8087849443,0.03466,70.16261648,
0.03468,-0.2875059382,0.03468,70.16261648,
0.0347,-0.2875059382,0.0347,70.52804678,
0.03472,-1.383796821,0.03472,70.16261648,
0.03474,-1.018366527,0.03474,70.52804678,
0.03476,0.07792435593,0.03476,70.52804678,
0.03478,-0.6529362324,0.03478,70.16261648,
0.0348,0.07792435593,0.0348,70.16261648,
0.03482,0.8087849443,0.03482,70.16261648,
0.03484,1.539645533,0.03484,71.25890736,
0.03486,1.174215238,0.03486,69.79718619,
0.03488,-2.480087703,0.03488,70.16261648,
0.0349,1.539645533,0.0349,70.89347707,
0.03492,-2.114657409,0.03492,70.52804678,
0.03494,0.07792435593,0.03494,70.89347707,
0.03496,-3.210948292,0.03496,71.62433766,
0.03498,-3.210948292,0.03498,70.52804678,
0.035,-2.845517997,0.035,70.16261648,
0.03502,-0.2875059382,0.03502,70.52804678,
0.03504,-1.383796821,0.03504,70.52804678,
0.03506,-0.2875059382,0.03506,69.79718619,
0.03508,-0.6529362324,0.03508,70.89347707,
0.0351,-2.114657409,0.0351,70.16261648,
0.03512,-0.2875059382,0.03512,70.16261648,
0.03514,-1.749227115,0.03514,70.89347707,
0.03516,-2.114657409,0.03516,70.52804678,
0.03518,-1.749227115,0.03518,70.16261648,
0.0352,-2.114657409,0.0352,71.25890736,
0.03522,-2.114657409,0.03522,70.16261648,
0.03524,-1.018366527,0.03524,69.79718619,
0.03526,0.07792435593,0.03526,70.52804678,
0.03528,-0.2875059382,0.03528,70.16261648,
0.0353,1.539645533,0.0353,70.16261648,
0.03532,0.4433546501,0.03532,70.89347707,
0.03534,0.07792435593,0.03534,70.52804678,
0.03536,0.07792435593,0.03536,70.16261648,
0.03538,0.8087849443,0.03538,70.89347707,
0.0354,0.07792435593,0.0354,70.16261648,
0.03542,0.4433546501,0.03542,70.16261648,
0.03544,0.07792435593,0.03544,70.89347707,
0.03546,-0.6529362324,0.03546,70.52804678,
0.03548,0.4433546501,0.03548,69.79718619,
0.0355,0.8087849443,0.0355,70.89347707,
0.03552,1.174215238,0.03552,69.79718619,
0.03554,1.539645533,0.03554,70.16261648,
0.03556,1.174215238,0.03556,69.79718619,
0.03558,1.539645533,0.03558,70.52804678,
0.0356,0.07792435593,0.0356,70.52804678,
0.03562,0.07792435593,0.03562,70.52804678,
0.03564,1.539645533,0.03564,70.52804678,
0.03566,-0.2875059382,0.03566,70.52804678,
0.03568,-0.2875059382,0.03568,70.52804678,
0.0357,-1.018366527,0.0357,70.52804678,
0.03572,0.8087849443,0.03572,70.89347707,
0.03574,-1.018366527,0.03574,70.89347707,
0.03576,1.174215238,0.03576,70.52804678,
0.03578,-1.018366527,0.03578,70.16261648,
0.0358,-0.2875059382,0.0358,70.52804678,
0.03582,-0.2875059382,0.03582,70.89347707,
0.03584,1.174215238,0.03584,70.52804678,
0.03586,-2.114657409,0.03586,69.79718619,
0.03588,-1.749227115,0.03588,70.52804678,
0.0359,-2.480087703,0.0359,70.89347707,
0.03592,-0.6529362324,0.03592,69.0663256,
0.03594,-3.210948292,0.03594,70.16261648,
0.03596,-2.480087703,0.03596,70.16261648,
0.03598,-0.2875059382,0.03598,70.89347707,
0.036,-0.6529362324,0.036,69.79718619,
0.03602,-0.2875059382,0.03602,70.16261648,
0.03604,-1.749227115,0.03604,70.52804678,
0.03606,0.07792435593,0.03606,70.52804678,
0.03608,-0.6529362324,0.03608,70.89347707,
0.0361,-1.749227115,0.0361,70.52804678,
0.03612,-1.383796821,0.03612,70.52804678,
0.03614,-1.749227115,0.03614,70.89347707,
0.03616,-1.383796821,0.03616,70.52804678,
0.03618,-0.2875059382,0.03618,70.16261648,
0.0362,-1.383796821,0.0362,70.89347707,
0.03622,-1.383796821,0.03622,70.52804678,
0.03624,0.8087849443,0.03624,70.16261648,
0.03626,0.8087849443,0.03626,70.52804678,
0.03628,0.4433546501,0.03628,70.52804678,
0.0363,0.07792435593,0.0363,70.52804678,
0.03632,0.8087849443,0.03632,70.52804678,
0.03634,-0.2875059382,0.03634,70.52804678,
0.03636,0.4433546501,0.03636,70.16261648,
0.03638,0.4433546501,0.03638,71.25890736,
0.0364,0.4433546501,0.0364,70.16261648,
0.03642,0.07792435593,0.03642,70.52804678,
0.03644,0.4433546501,0.03644,70.89347707,
0.03646,-0.2875059382,0.03646,70.89347707,
0.03648,1.539645533,0.03648,70.52804678,
0.0365,0.07792435593,0.0365,70.89347707,
0.03652,1.174215238,0.03652,70.89347707,
0.03654,1.174215238,0.03654,70.16261648,
0.03656,2.635936415,0.03656,70.16261648,
0.03658,0.4433546501,0.03658,70.52804678,
0.0366,1.905075827,0.0366,70.16261648,
0.03662,0.07792435593,0.03662,70.89347707,
0.03664,-1.018366527,0.03664,70.89347707,
0.03666,-0.2875059382,0.03666,70.16261648,
0.03668,-0.2875059382,0.03668,70.52804678,
0.0367,-0.6529362324,0.0367,70.52804678,
0.03672,-1.383796821,0.03672,70.89347707,
0.03674,-0.2875059382,0.03674,70.16261648,
0.03676,1.539645533,0.03676,70.16261648,
0.03678,0.4433546501,0.03678,70.16261648,
0.0368,-0.6529362324,0.0368,70.52804678,
0.03682,0.4433546501,0.03682,69.43175589,
0.03684,-1.749227115,0.03684,70.16261648,
0.03686,-3.210948292,0.03686,70.16261648,
0.03688,-2.480087703,0.03688,70.16261648,
0.0369,0.4433546501,0.0369,69.79718619,
0.03692,-3.576378586,0.03692,70.52804678,
0.03694,-3.576378586,0.03694,69.43175589,
0.03696,-2.114657409,0.03696,71.25890736,
0.03698,-1.383796821,0.03698,70.52804678,
0.037,-0.6529362324,0.037,70.16261648,
0.03702,-0.6529362324,0.03702,70.89347707,
0.03704,-3.210948292,0.03704,70.16261648,
0.03706,-1.018366527,0.03706,70.16261648,
0.03708,-1.383796821,0.03708,70.89347707,
0.0371,-1.018366527,0.0371,70.89347707,
0.03712,-0.6529362324,0.03712,70.52804678,
0.03714,-2.114657409,0.03714,70.89347707,
0.03716,-1.749227115,0.03716,70.52804678,
0.03718,0.07792435593,0.03718,70.52804678,
0.0372,-0.2875059382,0.0372,70.52804678,
0.03722,-0.6529362324,0.03722,70.52804678,
0.03724,1.539645533,0.03724,70.52804678,
0.03726,0.07792435593,0.03726,70.89347707,
0.03728,-0.6529362324,0.03728,70.52804678,
0.0373,0.07792435593,0.0373,70.52804678,
0.03732,1.174215238,0.03732,70.89347707,
0.03734,1.174215238,0.03734,70.52804678,
0.03736,0.4433546501,0.03736,70.52804678,
0.03738,0.8087849443,0.03738,70.52804678,
0.0374,-0.2875059382,0.0374,70.52804678,
0.03742,-0.2875059382,0.03742,70.52804678,
0.03744,0.07792435593,0.03744,70.89347707,
0.03746,-0.6529362324,0.03746,70.52804678,
0.03748,0.8087849443,0.03748,70.52804678,
0.0375,1.174215238,0.0375,70.89347707,
0.03752,0.07792435593,0.03752,70.52804678,
0.03754,1.174215238,0.03754,70.16261648,
0.03756,0.8087849443,0.03756,70.89347707,
0.03758,1.905075827,0.03758,70.89347707,
0.0376,1.174215238,0.0376,70.52804678,
0.03762,0.07792435593,0.03762,70.89347707,
0.03764,-0.2875059382,0.03764,70.52804678,
0.03766,0.07792435593,0.03766,70.16261648,
0.03768,-0.6529362324,0.03768,70.89347707,
0.0377,-1.749227115,0.0377,70.52804678,
0.03772,1.905075827,0.03772,70.52804678,
0.03774,0.07792435593,0.03774,70.89347707,
0.03776,0.07792435593,0.03776,70.89347707,
0.03778,0.8087849443,0.03778,70.89347707,
0.0378,0.8087849443,0.0378,71.25890736,
0.03782,-0.2875059382,0.03782,70.89347707,
0.03784,0.4433546501,0.03784,69.43175589,
0.03786,-0.2875059382,0.03786,69.79718619,
0.03788,-2.114657409,0.03788,70.89347707,
0.0379,-3.210948292,0.0379,70.16261648,
0.03792,-2.114657409,0.03792,70.89347707,
0.03794,-2.480087703,0.03794,69.43175589,
0.03796,-0.6529362324,0.03796,70.52804678,
0.03798,0.4433546501,0.03798,70.52804678,
0.038,-0.6529362324,0.038,70.52804678,
0.03802,-1.018366527,0.03802,70.52804678,
0.03804,-1.749227115,0.03804,71.25890736,
0.03806,-1.383796821,0.03806,70.89347707,
0.03808,-0.6529362324,0.03808,70.16261648,
0.0381,-1.018366527,0.0381,70.52804678,
0.03812,-2.114657409,0.03812,70.52804678,
0.03814,0.07792435593,0.03814,70.52804678,
0.03816,-1.018366527,0.03816,70.89347707,
0.03818,-0.2875059382,0.03818,70.52804678,
0.0382,-0.2875059382,0.0382,70.52804678,
0.03822,0.07792435593,0.03822,70.89347707,
0.03824,-1.749227115,0.03824,70.52804678,
0.03826,1.174215238,0.03826,70.52804678,
0.03828,0.4433546501,0.03828,70.52804678,
0.0383,-1.018366527,0.0383,70.52804678,
0.03832,0.4433546501,0.03832,70.89347707,
0.03834,0.4433546501,0.03834,70.89347707,
0.03836,0.07792435593,0.03836,70.52804678,
0.03838,0.4433546501,0.03838,70.16261648,
0.0384,0.8087849443,0.0384,70.89347707,
0.03842,0.07792435593,0.03842,70.52804678,
0.03844,0.4433546501,0.03844,70.52804678,
0.03846,1.174215238,0.03846,70.89347707,
0.03848,0.4433546501,0.03848,70.52804678,
0.0385,1.905075827,0.0385,70.16261648,
0.03852,1.905075827,0.03852,70.89347707,
0.03854,0.4433546501,0.03854,70.16261648,
0.03856,1.174215238,0.03856,70.52804678,
0.03858,-0.2875059382,0.03858,70.89347707,
0.0386,0.07792435593,0.0386,69.79718619,
0.03862,-0.2875059382,0.03862,70.16261648,
0.03864,-1.018366527,0.03864,70.52804678,
0.03866,0.07792435593,0.03866,69.79718619,
0.03868,-1.018366527,0.03868,70.52804678,
0.0387,-0.2875059382,0.0387,70.52804678,
0.03872,-0.2875059382,0.03872,69.79718619,
0.03874,1.539645533,0.03874,70.16261648,
0.03876,1.539645533,0.03876,69.79718619,
0.03878,-0.6529362324,0.03878,69.43175589,
0.0388,-2.114657409,0.0388,70.89347707,
0.03882,-0.6529362324,0.03882,70.89347707,
0.03884,-0.6529362324,0.03884,68.7008953,
0.03886,0.4433546501,0.03886,70.16261648,
0.03888,-2.114657409,0.03888,69.79718619,
0.0389,-3.210948292,0.0389,69.79718619,
0.03892,-1.383796821,0.03892,69.79718619,
0.03894,0.07792435593,0.03894,70.16261648,
0.03896,0.07792435593,0.03896,70.16261648,
0.03898,0.4433546501,0.03898,70.16261648,
0.039,-1.018366527,0.039,69.43175589,
0.03902,-0.6529362324,0.03902,70.16261648,
0.03904,-0.2875059382,0.03904,70.16261648,
0.03906,-1.018366527,0.03906,70.52804678,
0.03908,-1.383796821,0.03908,70.16261648,
0.0391,0.07792435593,0.0391,70.52804678,
0.03912,-1.383796821,0.03912,70.16261648,
0.03914,-1.018366527,0.03914,70.16261648,
0.03916,0.07792435593,0.03916,70.52804678,
0.03918,-0.2875059382,0.03918,70.52804678,
0.0392,0.8087849443,0.0392,70.16261648,
0.03922,0.8087849443,0.03922,70.16261648,
0.03924,-0.6529362324,0.03924,70.52804678,
0.03926,0.07792435593,0.03926,69.79718619,
0.03928,0.8087849443,0.03928,70.52804678,
0.0393,0.8087849443,0.0393,70.16261648,
0.03932,-0.6529362324,0.03932,69.79718619,
0.03934,0.4433546501,0.03934,70.52804678,
0.03936,0.8087849443,0.03936,70.16261648,
0.03938,0.07792435593,0.03938,69.79718619,
0.0394,0.4433546501,0.0394,70.52804678,
0.03942,0.07792435593,0.03942,70.52804678,
0.03944,1.539645533,0.03944,69.79718619,
0.03946,1.174215238,0.03946,70.52804678,
0.03948,1.905075827,0.03948,70.52804678,
0.0395,1.174215238,0.0395,69.79718619,
0.03952,0.8087849443,0.03952,70.52804678,
0.03954,0.8087849443,0.03954,70.16261648,
0.03956,-0.2875059382,0.03956,70.16261648,
0.03958,0.4433546501,0.03958,70.52804678,
0.0396,-0.6529362324,0.0396,70.16261648,
0.03962,-1.383796821,0.03962,70.16261648,
0.03964,-0.2875059382,0.03964,70.52804678,
0.03966,0.07792435593,0.03966,70.52804678,
0.03968,0.4433546501,0.03968,69.79718619,
0.0397,0.8087849443,0.0397,70.89347707,
0.03972,1.539645533,0.03972,69.79718619,
0.03974,0.8087849443,0.03974,70.16261648,
0.03976,-0.2875059382,0.03976,70.16261648,
0.03978,-2.114657409,0.03978,71.25890736,
0.0398,-0.2875059382,0.0398,69.43175589,
0.03982,0.8087849443,0.03982,70.89347707,
0.03984,-2.114657409,0.03984,70.89347707,
0.03986,-2.114657409,0.03986,70.52804678,
0.03988,-0.2875059382,0.03988,70.52804678,
0.0399,-1.018366527,0.0399,69.79718619,
0.03992,-2.114657409,0.03992,70.16261648,
0.03994,0.4433546501,0.03994,70.52804678,
0.03996,-1.018366527,0.03996,70.52804678,
0.03998,-1.383796821,0.03998,69.79718619,
0.04,0.07792435593,0.04,70.16261648,
0.04002,-2.480087703,0.04002,70.52804678,
0.04004,-1.383796821,0.04004,69.79718619,
0.04006,-1.383796821,0.04006,70.16261648,
0.04008,-1.749227115,0.04008,70.52804678,
0.0401,-1.383796821,0.0401,70.16261648,
0.04012,0.4433546501,0.04012,70.16261648,
0.04014,0.07792435593,0.04014,70.52804678,
0.04016,0.07792435593,0.04016,69.79718619,
0.04018,1.174215238,0.04018,69.79718619,
0.0402,0.8087849443,0.0402,70.52804678,
0.04022,-0.2875059382,0.04022,69.79718619,
0.04024,1.174215238,0.04024,70.52804678,
0.04026,0.07792435593,0.04026,70.52804678,
0.04028,-0.2875059382,0.04028,69.79718619,
0.0403,1.539645533,0.0403,69.79718619,
0.04032,0.4433546501,0.04032,70.16261648,
0.04034,-0.2875059382,0.04034,69.79718619,
0.04036,0.4433546501,0.04036,70.52804678,
0.04038,0.07792435593,0.04038,70.52804678,
0.0404,0.4433546501,0.0404,69.79718619,
0.04042,0.8087849443,0.04042,70.16261648,
0.04044,1.539645533,0.04044,70.52804678,
0.04046,0.8087849443,0.04046,69.43175589,
0.04048,1.539645533,0.04048,70.16261648,
0.0405,0.8087849443,0.0405,70.52804678,
0.04052,0.8087849443,0.04052,70.89347707,
0.04054,0.4433546501,0.04054,70.52804678,
0.04056,-0.6529362324,0.04056,69.79718619,
0.04058,-1.018366527,0.04058,70.52804678,
0.0406,-1.383796821,0.0406,70.16261648,
0.04062,-0.2875059382,0.04062,70.16261648,
0.04064,-0.2875059382,0.04064,70.16261648,
0.04066,0.4433546501,0.04066,70.52804678,
0.04068,-0.6529362324,0.04068,70.52804678,
0.0407,0.4433546501,0.0407,70.52804678,
0.04072,0.07792435593,0.04072,70.16261648,
0.04074,1.174215238,0.04074,70.16261648,
0.04076,1.539645533,0.04076,70.52804678,
0.04078,-1.018366527,0.04078,71.62433766,
0.0408,-3.576378586,0.0408,69.79718619,
0.04082,-2.480087703,0.04082,69.79718619,
0.04084,-1.749227115,0.04084,70.16261648,
0.04086,-1.383796821,0.04086,70.52804678,
0.04088,-2.845517997,0.04088,70.89347707,
0.0409,0.07792435593,0.0409,70.16261648,
0.04092,-0.2875059382,0.04092,70.89347707,
0.04094,-0.2875059382,0.04094,70.16261648,
0.04096,-1.018366527,0.04096,70.16261648,
0.04098,0.4433546501,0.04098,70.89347707,
0.041,-1.383796821,0.041,70.52804678,
0.04102,-1.018366527,0.04102,70.52804678,
0.04104,0.07792435593,0.04104,70.89347707,
0.04106,-1.749227115,0.04106,70.52804678,
0.04108,-1.383796821,0.04108,70.16261648,
0.0411,-0.2875059382,0.0411,70.89347707,
0.04112,-1.018366527,0.04112,70.16261648,
0.04114,0.8087849443,0.04114,70.16261648,
0.04116,0.07792435593,0.04116,70.52804678,
0.04118,0.8087849443,0.04118,70.52804678,
0.0412,1.174215238,0.0412,70.52804678,
0.04122,0.8087849443,0.04122,70.89347707,
0.04124,0.8087849443,0.04124,70.89347707,
0.04126,0.8087849443,0.04126,70.52804678,
0.04128,0.4433546501,0.04128,70.52804678,
0.0413,0.07792435593,0.0413,70.52804678,
0.04132,0.4433546501,0.04132,70.16261648,
0.04134,0.07792435593,0.04134,70.16261648,
0.04136,-0.6529362324,0.04136,71.25890736,
0.04138,1.174215238,0.04138,70.52804678,
0.0414,0.8087849443,0.0414,70.89347707,
0.04142,1.174215238,0.04142,70.89347707,
0.04144,1.905075827,0.04144,70.89347707,
0.04146,1.905075827,0.04146,70.16261648,
0.04148,-1.018366527,0.04148,70.16261648,
0.0415,1.539645533,0.0415,70.52804678,
0.04152,0.4433546501,0.04152,70.89347707,
0.04154,-1.018366527,0.04154,70.16261648,
0.04156,0.4433546501,0.04156,70.52804678,
0.04158,-1.018366527,0.04158,70.52804678,
0.0416,-1.383796821,0.0416,70.16261648,
0.04162,0.8087849443,0.04162,70.52804678,
0.04164,-0.6529362324,0.04164,70.16261648,
0.04166,0.8087849443,0.04166,69.43175589,
0.04168,1.539645533,0.04168,70.16261648,
0.0417,0.07792435593,0.0417,69.79718619,
0.04172,-1.383796821,0.04172,69.79718619,
0.04174,0.8087849443,0.04174,70.89347707,
0.04176,-2.114657409,0.04176,70.89347707,
0.04178,-3.576378586,0.04178,70.16261648,
0.0418,-2.480087703,0.0418,70.89347707,
0.04182,-1.018366527,0.04182,69.43175589,
0.04184,-0.2875059382,0.04184,70.52804678,
0.04186,-1.018366527,0.04186,70.16261648,
0.04188,-0.2875059382,0.04188,69.79718619,
0.0419,-2.114657409,0.0419,70.16261648,
0.04192,0.8087849443,0.04192,69.79718619,
0.04194,-1.383796821,0.04194,70.52804678,
0.04196,-1.018366527,0.04196,69.79718619,
0.04198,-0.6529362324,0.04198,70.16261648,
0.042,-0.6529362324,0.042,70.16261648,
0.04202,-1.749227115,0.04202,70.16261648,
0.04204,-1.749227115,0.04204,70.52804678,
0.04206,-0.6529362324,0.04206,70.52804678,
0.04208,-0.6529362324,0.04208,70.16261648,
0.0421,0.4433546501,0.0421,70.52804678,
0.04212,0.4433546501,0.04212,70.16261648,
0.04214,0.07792435593,0.04214,69.79718619,
0.04216,1.539645533,0.04216,70.52804678,
0.04218,0.4433546501,0.04218,70.52804678,
0.0422,-0.2875059382,0.0422,70.16261648,
0.04222,0.07792435593,0.04222,70.16261648,
0.04224,0.8087849443,0.04224,70.52804678,
0.04226,0.4433546501,0.04226,69.79718619,
0.04228,0.07792435593,0.04228,70.52804678,
0.0423,0.8087849443,0.0423,70.52804678,
0.04232,-0.2875059382,0.04232,70.16261648,
0.04234,1.539645533,0.04234,70.52804678,
0.04236,0.8087849443,0.04236,70.52804678,
0.04238,0.8087849443,0.04238,70.16261648,
0.0424,2.635936415,0.0424,70.52804678,
0.04242,1.905075827,0.04242,70.16261648,
0.04244,1.174215238,0.04244,70.16261648,
0.04246,1.174215238,0.04246,70.16261648,
0.04248,1.905075827,0.04248,70.16261648,
0.0425,0.07792435593,0.0425,69.79718619,
0.04252,-0.6529362324,0.04252,70.52804678,
0.04254,-0.2875059382,0.04254,70.16261648,
0.04256,-1.018366527,0.04256,70.16261648,
0.04258,0.07792435593,0.04258,70.16261648,
0.0426,0.4433546501,0.0426,70.52804678,
0.04262,-0.2875059382,0.04262,70.16261648,
0.04264,1.539645533,0.04264,70.16261648,
0.04266,1.905075827,0.04266,70.16261648,
0.04268,-0.6529362324,0.04268,70.16261648,
0.0427,-0.6529362324,0.0427,69.79718619,
0.04272,-0.2875059382,0.04272,70.89347707,
0.04274,-2.480087703,0.04274,70.52804678,
0.04276,2.270506121,0.04276,70.52804678,
0.04278,-2.114657409,0.04278,70.16261648,
0.0428,-2.480087703,0.0428,70.16261648,
0.04282,0.07792435593,0.04282,70.89347707,
0.04284,-1.749227115,0.04284,70.89347707,
0.04286,-1.383796821,0.04286,69.79718619,
0.04288,0.4433546501,0.04288,70.52804678,
0.0429,0.8087849443,0.0429,70.16261648,
0.04292,-0.6529362324,0.04292,69.43175589,
0.04294,0.4433546501,0.04294,69.79718619,
0.04296,-1.018366527,0.04296,69.79718619,
0.04298,-1.018366527,0.04298,69.79718619,
0.043,-1.383796821,0.043,70.52804678,
0.04302,-1.018366527,0.04302,70.16261648,
0.04304,-0.6529362324,0.04304,70.16261648,
0.04306,0.8087849443,0.04306,70.16261648,
0.04308,0.8087849443,0.04308,70.16261648,
0.0431,1.174215238,0.0431,70.16261648,
0.04312,0.4433546501,0.04312,70.16261648,
0.04314,0.4433546501,0.04314,70.52804678,
0.04316,0.4433546501,0.04316,69.79718619,
0.04318,0.8087849443,0.04318,70.16261648,
0.0432,-0.2875059382,0.0432,70.52804678,
0.04322,0.07792435593,0.04322,69.79718619,
0.04324,0.4433546501,0.04324,70.16261648,
0.04326,0.07792435593,0.04326,70.16261648,
0.04328,-0.2875059382,0.04328,69.79718619,
0.0433,0.4433546501,0.0433,70.16261648,
0.04332,0.8087849443,0.04332,70.52804678,
0.04334,1.174215238,0.04334,69.79718619,
0.04336,1.539645533,0.04336,70.52804678,
0.04338,1.539645533,0.04338,70.52804678,
0.0434,2.270506121,0.0434,70.16261648,
0.04342,1.539645533,0.04342,70.89347707,
0.04344,0.8087849443,0.04344,69.79718619,
0.04346,-0.2875059382,0.04346,70.16261648,
0.04348,0.07792435593,0.04348,70.52804678,
0.0435,-0.6529362324,0.0435,70.52804678,
0.04352,-0.6529362324,0.04352,69.79718619,
0.04354,-0.6529362324,0.04354,70.89347707,
0.04356,-0.6529362324,0.04356,70.52804678,
0.04358,-0.2875059382,0.04358,70.16261648,
0.0436,0.8087849443,0.0436,70.16261648,
0.04362,0.4433546501,0.04362,70.16261648,
0.04364,0.8087849443,0.04364,69.79718619,
0.04366,-1.383796821,0.04366,69.43175589,
0.04368,-2.845517997,0.04368,69.0663256,
0.0437,-2.114657409,0.0437,69.0663256,
0.04372,0.07792435593,0.04372,69.79718619,
0.04374,-3.94180888,0.04374,70.16261648,
0.04376,-2.845517997,0.04376,70.89347707,
0.04378,-1.749227115,0.04378,70.89347707,
0.0438,0.07792435593,0.0438,70.52804678,
0.04382,-2.114657409,0.04382,70.52804678,
0.04384,-1.383796821,0.04384,70.52804678,
0.04386,-1.018366527,0.04386,70.16261648,
0.04388,0.8087849443,0.04388,70.52804678,
0.0439,-1.018366527,0.0439,71.25890736,
0.04392,-2.114657409,0.04392,70.52804678,
0.04394,-1.018366527,0.04394,70.52804678,
0.04396,-1.018366527,0.04396,70.52804678,
0.04398,-2.114657409,0.04398,70.16261648,
0.044,-0.2875059382,0.044,70.16261648,
0.04402,-0.6529362324,0.04402,70.89347707,
0.04404,-0.6529362324,0.04404,70.16261648,
0.04406,0.4433546501,0.04406,70.52804678,
0.04408,-0.2875059382,0.04408,70.52804678,
0.0441,1.174215238,0.0441,70.52804678,
0.04412,1.539645533,0.04412,70.16261648,
0.04414,1.174215238,0.04414,70.52804678,
0.04416,-0.2875059382,0.04416,70.16261648,
0.04418,0.4433546501,0.04418,70.52804678,
0.0442,0.4433546501,0.0442,70.89347707,
0.04422,-0.6529362324,0.04422,70.16261648,
0.04424,0.4433546501,0.04424,70.16261648,
0.04426,0.07792435593,0.04426,70.89347707,
0.04428,0.8087849443,0.04428,70.52804678,
0.0443,0.07792435593,0.0443,70.16261648,
0.04432,1.905075827,0.04432,70.89347707,
0.04434,1.905075827,0.04434,70.52804678,
0.04436,1.905075827,0.04436,70.16261648,
0.04438,1.539645533,0.04438,71.25890736,
0.0444,0.4433546501,0.0444,70.52804678,
0.04442,1.905075827,0.04442,70.52804678,
0.04444,0.4433546501,0.04444,71.25890736,
0.04446,-0.2875059382,0.04446,70.52804678,
0.04448,0.07792435593,0.04448,70.16261648,
0.0445,-0.2875059382,0.0445,70.89347707,
0.04452,-0.6529362324,0.04452,70.16261648,
0.04454,0.4433546501,0.04454,70.16261648,
0.04456,-0.6529362324,0.04456,70.52804678,
0.04458,0.07792435593,0.04458,70.16261648,
0.0446,-0.2875059382,0.0446,70.16261648,
0.04462,-0.2875059382,0.04462,70.89347707,
0.04464,-0.6529362324,0.04464,70.52804678,
0.04466,0.07792435593,0.04466,70.52804678,
0.04468,-1.018366527,0.04468,71.25890736,
0.0447,-1.383796821,0.0447,70.52804678,
0.04472,-1.018366527,0.04472,69.43175589,
0.04474,-0.6529362324,0.04474,70.89347707,
0.04476,-3.576378586,0.04476,70.89347707,
0.04478,-2.114657409,0.04478,69.79718619,
0.0448,-1.018366527,0.0448,70.16261648,
0.04482,-1.018366527,0.04482,69.79718619,
0.04484,-1.018366527,0.04484,70.52804678,
0.04486,-0.6529362324,0.04486,70.16261648,
0.04488,-0.2875059382,0.04488,69.79718619,
0.0449,-1.018366527,0.0449,70.16261648,
0.04492,-0.6529362324,0.04492,70.89347707,
0.04494,-1.749227115,0.04494,70.52804678,
0.04496,-1.749227115,0.04496,70.16261648,
0.04498,-1.383796821,0.04498,70.89347707,
0.045,-0.6529362324,0.045,70.16261648,
0.04502,0.07792435593,0.04502,70.16261648,
0.04504,0.07792435593,0.04504,70.16261648,
0.04506,-0.2875059382,0.04506,70.16261648,
0.04508,0.4433546501,0.04508,70.16261648,
0.0451,0.07792435593,0.0451,70.16261648,
0.04512,0.07792435593,0.04512,70.52804678,
0.04514,-0.2875059382,0.04514,70.16261648,
0.04516,1.539645533,0.04516,70.89347707,
0.04518,-0.2875059382,0.04518,70.16261648,
0.0452,0.07792435593,0.0452,70.16261648,
0.04522,0.4433546501,0.04522,70.89347707,
0.04524,0.4433546501,0.04524,70.52804678,
0.04526,0.4433546501,0.04526,70.89347707,
0.04528,0.07792435593,0.04528,70.52804678,
0.0453,1.174215238,0.0453,70.16261648,
0.04532,1.174215238,0.04532,70.52804678,
0.04534,0.8087849443,0.04534,70.52804678,
0.04536,3.001366709,0.04536,70.16261648,
0.04538,2.270506121,0.04538,70.89347707,
0.0454,0.07792435593,0.0454,70.16261648,
0.04542,1.174215238,0.04542,70.16261648,
0.04544,0.4433546501,0.04544,70.52804678,
0.04546,-1.018366527,0.04546,70.16261648,
0.04548,0.07792435593,0.04548,70.16261648,
0.0455,-0.2875059382,0.0455,70.52804678,
0.04552,-0.6529362324,0.04552,70.52804678,
0.04554,0.8087849443,0.04554,70.52804678,
0.04556,-0.6529362324,0.04556,70.52804678,
0.04558,-1.018366527,0.04558,70.52804678,
0.0456,-1.383796821,0.0456,70.16261648,
0.04562,2.270506121,0.04562,70.52804678,
0.04564,-1.383796821,0.04564,70.52804678,
0.04566,-0.2875059382,0.04566,69.79718619,
0.04568,-1.018366527,0.04568,71.25890736,
0.0457,-2.480087703,0.0457,71.25890736,
0.04572,0.8087849443,0.04572,70.89347707,
0.04574,-1.383796821,0.04574,70.89347707,
0.04576,-2.114657409,0.04576,70.16261648,
0.04578,-2.114657409,0.04578,70.52804678,
0.0458,-0.6529362324,0.0458,70.16261648,
0.04582,0.4433546501,0.04582,70.16261648,
0.04584,-1.383796821,0.04584,70.52804678,
0.04586,-2.114657409,0.04586,70.52804678,
0.04588,-0.6529362324,0.04588,70.52804678,
0.0459,-1.383796821,0.0459,70.52804678,
0.04592,-1.018366527,0.04592,70.16261648,
0.04594,-0.6529362324,0.04594,70.52804678,
0.04596,-1.018366527,0.04596,70.89347707,
0.04598,-0.6529362324,0.04598,70.52804678,
0.046,0.4433546501,0.046,70.89347707,
0.04602,0.4433546501,0.04602,70.89347707,
0.04604,0.8087849443,0.04604,70.52804678,
0.04606,1.539645533,0.04606,70.89347707,
0.04608,0.4433546501,0.04608,70.52804678,
0.0461,0.8087849443,0.0461,70.52804678,
0.04612,0.4433546501,0.04612,70.16261648,
0.04614,0.4433546501,0.04614,70.89347707,
0.04616,0.07792435593,0.04616,70.89347707,
0.04618,0.4433546501,0.04618,70.16261648,
0.0462,0.8087849443,0.0462,70.89347707,
0.04622,0.07792435593,0.04622,70.16261648,
0.04624,-0.6529362324,0.04624,70.89347707,
0.04626,-1.018366527,0.04626,70.52804678,
0.04628,1.174215238,0.04628,70.52804678,
0.0463,1.174215238,0.0463,70.89347707,
0.04632,0.8087849443,0.04632,70.16261648,
0.04634,0.8087849443,0.04634,70.16261648,
0.04636,0.8087849443,0.04636,70.89347707,
0.04638,0.8087849443,0.04638,70.16261648,
0.0464,0.4433546501,0.0464,70.52804678,
0.04642,0.8087849443,0.04642,70.52804678,
0.04644,-0.2875059382,0.04644,70.16261648,
0.04646,0.07792435593,0.04646,70.16261648,
0.04648,-0.6529362324,0.04648,70.89347707,
0.0465,-0.6529362324,0.0465,70.52804678,
0.04652,-0.6529362324,0.04652,70.52804678,
0.04654,0.07792435593,0.04654,71.25890736,
0.04656,0.8087849443,0.04656,69.79718619,
0.04658,3.366797003,0.04658,69.79718619,
0.0466,-1.383796821,0.0466,70.52804678,
0.04662,-1.383796821,0.04662,70.16261648,
0.04664,-1.383796821,0.04664,70.16261648,
0.04666,-2.845517997,0.04666,71.62433766,
0.04668,-0.2875059382,0.04668,70.89347707,
0.0467,-0.6529362324,0.0467,70.52804678,
0.04672,-2.845517997,0.04672,71.62433766,
0.04674,-2.480087703,0.04674,70.16261648,
0.04676,-2.845517997,0.04676,70.16261648,
0.04678,1.174215238,0.04678,70.52804678,
0.0468,-0.6529362324,0.0468,70.16261648,
0.04682,-1.018366527,0.04682,70.16261648,
0.04684,-0.2875059382,0.04684,70.89347707,
0.04686,-1.749227115,0.04686,70.16261648,
0.04688,-0.6529362324,0.04688,70.16261648,
0.0469,-1.749227115,0.0469,70.52804678,
0.04692,-1.749227115,0.04692,70.52804678,
0.04694,-1.383796821,0.04694,69.79718619,
0.04696,-0.6529362324,0.04696,70.89347707,
0.04698,-0.2875059382,0.04698,70.16261648,
0.047,0.8087849443,0.047,70.52804678,
0.04702,0.07792435593,0.04702,70.89347707,
0.04704,-0.2875059382,0.04704,70.16261648,
0.04706,-0.2875059382,0.04706,70.16261648,
0.04708,1.174215238,0.04708,70.52804678,
0.0471,0.4433546501,0.0471,70.16261648,
0.04712,-0.6529362324,0.04712,70.16261648,
0.04714,0.8087849443,0.04714,70.52804678,
0.04716,0.07792435593,0.04716,70.52804678,
0.04718,0.07792435593,0.04718,70.16261648,
0.0472,0.07792435593,0.0472,70.52804678,
0.04722,1.174215238,0.04722,70.16261648,
0.04724,-0.2875059382,0.04724,70.16261648,
0.04726,1.539645533,0.04726,70.89347707,
0.04728,1.539645533,0.04728,70.16261648,
0.0473,0.8087849443,0.0473,69.79718619,
0.04732,0.4433546501,0.04732,70.52804678,
0.04734,0.8087849443,0.04734,70.52804678,
0.04736,0.8087849443,0.04736,70.16261648,
0.04738,0.4433546501,0.04738,70.89347707,
0.0474,0.4433546501,0.0474,70.16261648,
0.04742,-0.2875059382,0.04742,70.16261648,
0.04744,-0.2875059382,0.04744,70.52804678,
0.04746,-1.383796821,0.04746,70.52804678,
0.04748,-0.6529362324,0.04748,70.16261648,
0.0475,0.8087849443,0.0475,70.89347707,
0.04752,-0.6529362324,0.04752,70.52804678,
0.04754,-0.6529362324,0.04754,70.16261648,
0.04756,0.07792435593,0.04756,70.52804678,
0.04758,-1.018366527,0.04758,70.89347707,
0.0476,-1.383796821,0.0476,69.79718619,
0.04762,-2.114657409,0.04762,69.43175589,
0.04764,-3.210948292,0.04764,69.0663256,
0.04766,-3.576378586,0.04766,70.52804678,
0.04768,-3.576378586,0.04768,70.89347707,
0.0477,-2.480087703,0.0477,70.16261648,
0.04772,-1.749227115,0.04772,70.52804678,
0.04774,-1.749227115,0.04774,70.52804678,
0.04776,-1.018366527,0.04776,70.89347707,
0.04778,-0.6529362324,0.04778,70.16261648,
0.0478,0.4433546501,0.0478,70.89347707,
0.04782,-0.2875059382,0.04782,70.52804678,
0.04784,-1.018366527,0.04784,70.89347707,
0.04786,-1.749227115,0.04786,70.89347707,
0.04788,-1.018366527,0.04788,70.16261648,
0.0479,-1.383796821,0.0479,70.16261648,
0.04792,-1.018366527,0.04792,70.89347707,
0.04794,-1.749227115,0.04794,70.16261648,
0.04796,-0.2875059382,0.04796,69.79718619,
0.04798,1.174215238,0.04798,71.25890736,
0.048,0.8087849443,0.048,70.16261648,
0.04802,1.539645533,0.04802,69.79718619,
0.04804,1.174215238,0.04804,70.52804678,
0.04806,0.07792435593,0.04806,70.16261648,
0.04808,-0.2875059382,0.04808,70.52804678,
0.0481,0.4433546501,0.0481,70.89347707,
0.04812,-1.383796821,0.04812,70.52804678,
0.04814,1.174215238,0.04814,70.16261648,
0.04816,0.4433546501,0.04816,70.89347707,
0.04818,-0.2875059382,0.04818,70.16261648,
0.0482,1.174215238,0.0482,70.52804678,
0.04822,0.8087849443,0.04822,70.89347707,
0.04824,1.539645533,0.04824,70.52804678,
0.04826,0.8087849443,0.04826,70.52804678,
0.04828,1.174215238,0.04828,70.89347707,
0.0483,1.905075827,0.0483,70.52804678,
0.04832,1.539645533,0.04832,70.52804678,
0.04834,0.07792435593,0.04834,71.25890736,
0.04836,-0.6529362324,0.04836,70.52804678,
0.04838,1.539645533,0.04838,70.16261648,
0.0484,-0.2875059382,0.0484,70.89347707,
0.04842,-0.6529362324,0.04842,70.16261648,
0.04844,-1.018366527,0.04844,69.79718619,
0.04846,0.07792435593,0.04846,70.52804678,
0.04848,0.07792435593,0.04848,70.52804678,
0.0485,0.07792435593,0.0485,70.16261648,
0.04852,0.4433546501,0.04852,70.89347707,
0.04854,0.4433546501,0.04854,70.52804678,
0.04856,1.905075827,0.04856,70.89347707,
0.04858,-0.6529362324,0.04858,70.89347707,
0.0486,-1.383796821,0.0486,70.52804678,
0.04862,-1.018366527,0.04862,69.79718619,
0.04864,-2.114657409,0.04864,70.52804678,
0.04866,-3.210948292,0.04866,70.52804678,
0.04868,-1.018366527,0.04868,70.16261648,
0.0487,-1.018366527,0.0487,71.25890736,
0.04872,-0.6529362324,0.04872,70.89347707,
0.04874,-1.383796821,0.04874,70.16261648,
0.04876,-0.6529362324,0.04876,70.52804678,
0.04878,-2.845517997,0.04878,70.52804678,
0.0488,-1.749227115,0.0488,70.89347707,
0.04882,-1.383796821,0.04882,70.52804678,
0.04884,-2.480087703,0.04884,70.16261648,
0.04886,-1.018366527,0.04886,69.79718619,
0.04888,-1.018366527,0.04888,70.52804678,
0.0489,-0.6529362324,0.0489,70.52804678,
0.04892,-0.2875059382,0.04892,70.16261648,
0.04894,-1.018366527,0.04894,70.52804678,
0.04896,-0.6529362324,0.04896,70.16261648,
0.04898,1.174215238,0.04898,70.16261648,
0.049,0.8087849443,0.049,70.52804678,
0.04902,0.4433546501,0.04902,70.52804678,
0.04904,1.174215238,0.04904,70.16261648,
0.04906,1.174215238,0.04906,70.52804678,
0.04908,-0.6529362324,0.04908,70.52804678,
0.0491,0.8087849443,0.0491,70.16261648,
0.04912,0.07792435593,0.04912,70.52804678,
0.04914,0.8087849443,0.04914,70.52804678,
0.04916,0.07792435593,0.04916,70.52804678,
0.04918,0.4433546501,0.04918,70.52804678,
0.0492,0.07792435593,0.0492,70.16261648,
0.04922,1.539645533,0.04922,69.79718619,
0.04924,1.905075827,0.04924,70.52804678,
0.04926,1.905075827,0.04926,70.16261648,
0.04928,1.905075827,0.04928,70.16261648,
0.0493,1.174215238,0.0493,70.89347707,
0.04932,0.8087849443,0.04932,70.52804678,
0.04934,0.07792435593,0.04934,70.52804678,
0.04936,0.4433546501,0.04936,70.89347707,
0.04938,-1.383796821,0.04938,70.16261648,
0.0494,-1.018366527,0.0494,70.52804678,
0.04942,0.07792435593,0.04942,70.89347707,
0.04944,-0.2875059382,0.04944,70.52804678,
0.04946,0.8087849443,0.04946,70.52804678,
0.04948,0.4433546501,0.04948,70.89347707,
0.0495,-0.2875059382,0.0495,70.16261648,
0.04952,0.4433546501,0.04952,70.52804678,
0.04954,0.07792435593,0.04954,70.89347707,
0.04956,-0.6529362324,0.04956,70.52804678,
0.04958,0.07792435593,0.04958,70.52804678,
0.0496,-2.845517997,0.0496,70.52804678,
0.04962,-3.210948292,0.04962,70.52804678,
0.04964,-2.480087703,0.04964,70.89347707,
0.04966,-2.845517997,0.04966,70.16261648,
0.04968,-1.749227115,0.04968,70.16261648,
0.0497,-0.6529362324,0.0497,70.16261648,
0.04972,-0.6529362324,0.04972,71.25890736,
0.04974,0.07792435593,0.04974,70.16261648,
0.04976,-0.6529362324,0.04976,70.52804678,
0.04978,-0.6529362324,0.04978,70.89347707,
0.0498,-2.480087703,0.0498,70.52804678,
0.04982,-1.749227115,0.04982,70.52804678,
0.04984,-1.383796821,0.04984,70.52804678,
0.04986,-2.114657409,0.04986,70.52804678,
0.04988,0.4433546501,0.04988,70.52804678,
0.0499,-1.383796821,0.0499,70.89347707,
0.04992,0.07792435593,0.04992,70.89347707,
0.04994,1.174215238,0.04994,70.52804678,
0.04996,1.539645533,0.04996,70.52804678,
0.04998,-0.2875059382,0.04998,70.52804678,
0.05,1.174215238,0.05,70.52804678,
0.05002,-0.2875059382,0.05002,69.79718619,
0.05004,0.4433546501,0.05004,70.52804678,
0.05006,0.07792435593,0.05006,70.16261648,
0.05008,0.07792435593,0.05008,69.43175589,
0.0501,0.4433546501,0.0501,70.16261648,
0.05012,-0.2875059382,0.05012,70.16261648,
0.05014,0.07792435593,0.05014,70.16261648,
0.05016,0.07792435593,0.05016,70.16261648,
0.05018,0.07792435593,0.05018,70.16261648,
0.0502,0.8087849443,0.0502,70.16261648,
0.05022,3.366797003,0.05022,70.16261648,
0.05024,2.635936415,0.05024,70.16261648,
0.05026,1.539645533,0.05026,70.16261648,
0.05028,1.174215238,0.05028,70.52804678,
0.0503,0.4433546501,0.0503,70.52804678,
0.05032,0.8087849443,0.05032,70.16261648,
0.05034,0.07792435593,0.05034,70.16261648,
0.05036,-1.018366527,0.05036,70.52804678,
0.05038,-1.018366527,0.05038,69.79718619,
0.0504,0.07792435593,0.0504,70.52804678,
0.05042,0.8087849443,0.05042,70.52804678,
0.05044,0.4433546501,0.05044,69.79718619,
0.05046,1.539645533,0.05046,70.16261648,
0.05048,0.4433546501,0.05048,70.52804678,
0.0505,0.4433546501,0.0505,69.0663256,
0.05052,-1.383796821,0.05052,70.52804678,
0.05054,-0.2875059382,0.05054,70.52804678,
0.05056,-2.114657409,0.05056,70.89347707,
0.05058,0.07792435593,0.05058,70.52804678,
0.0506,-2.480087703,0.0506,69.79718619,
0.05062,-2.480087703,0.05062,68.7008953,
0.05064,-2.480087703,0.05064,70.89347707,
0.05066,-1.383796821,0.05066,70.89347707,
0.05068,-0.2875059382,0.05068,70.16261648,
0.0507,1.174215238,0.0507,71.25890736,
0.05072,1.174215238,0.05072,69.79718619,
0.05074,-0.2875059382,0.05074,69.0663256,
0.05076,-0.6529362324,0.05076,70.16261648,
0.05078,-1.383796821,0.05078,70.16261648,
0.0508,-1.018366527,0.0508,69.79718619,
0.05082,-1.018366527,0.05082,70.16261648,
0.05084,-1.383796821,0.05084,70.52804678,
0.05086,-1.383796821,0.05086,69.43175589,
0.05088,0.07792435593,0.05088,70.89347707,
0.0509,-0.2875059382,0.0509,70.89347707,
0.05092,1.174215238,0.05092,70.52804678,
0.05094,0.4433546501,0.05094,70.89347707,
0.05096,1.174215238,0.05096,70.89347707,
0.05098,0.4433546501,0.05098,70.16261648,
0.051,1.539645533,0.051,70.16261648,
0.05102,0.8087849443,0.05102,70.16261648,
0.05104,-0.2875059382,0.05104,70.16261648,
0.05106,0.4433546501,0.05106,70.16261648,
0.05108,0.4433546501,0.05108,70.16261648,
0.0511,0.8087849443,0.0511,70.52804678,
0.05112,0.4433546501,0.05112,70.16261648,
0.05114,0.8087849443,0.05114,70.52804678,
0.05116,1.539645533,0.05116,70.16261648,
0.05118,1.174215238,0.05118,70.52804678,
0.0512,1.539645533,0.0512,70.52804678,
0.05122,1.539645533,0.05122,71.25890736,
0.05124,1.905075827,0.05124,70.52804678,
0.05126,0.8087849443,0.05126,70.52804678,
0.05128,1.174215238,0.05128,70.89347707,
0.0513,-0.6529362324,0.0513,70.89347707,
0.05132,-0.2875059382,0.05132,70.52804678,
0.05134,-1.749227115,0.05134,71.25890736,
0.05136,-1.383796821,0.05136,70.52804678,
0.05138,0.07792435593,0.05138,70.16261648,
0.0514,0.07792435593,0.0514,70.52804678,
0.05142,-1.018366527,0.05142,70.52804678,
0.05144,1.905075827,0.05144,69.43175589,
0.05146,-0.6529362324,0.05146,70.89347707,
0.05148,-1.383796821,0.05148,70.52804678,
0.0515,-0.2875059382,0.0515,70.16261648,
0.05152,-0.6529362324,0.05152,70.52804678,
0.05154,1.174215238,0.05154,69.43175589,
0.05156,0.07792435593,0.05156,70.52804678,
0.05158,-2.114657409,0.05158,70.16261648,
0.0516,-1.749227115,0.0516,70.16261648,
0.05162,-0.6529362324,0.05162,69.43175589,
0.05164,-1.018366527,0.05164,70.16261648,
0.05166,-1.749227115,0.05166,69.79718619,
0.05168,0.07792435593,0.05168,69.79718619,
0.0517,0.4433546501,0.0517,70.52804678,
0.05172,-0.6529362324,0.05172,69.79718619,
0.05174,0.07792435593,0.05174,70.16261648,
0.05176,-2.114657409,0.05176,70.52804678,
0.05178,-1.018366527,0.05178,70.52804678,
0.0518,-0.2875059382,0.0518,70.52804678,
0.05182,-1.018366527,0.05182,70.16261648,
0.05184,-1.018366527,0.05184,70.16261648,
0.05186,-0.2875059382,0.05186,70.16261648,
0.05188,0.4433546501,0.05188,70.89347707,
0.0519,-0.2875059382,0.0519,70.52804678,
0.05192,1.539645533,0.05192,70.16261648,
0.05194,0.07792435593,0.05194,70.89347707,
0.05196,0.4433546501,0.05196,70.16261648,
0.05198,1.174215238,0.05198,70.16261648,
0.052,0.8087849443,0.052,70.52804678,
0.05202,0.8087849443,0.05202,70.52804678,
0.05204,0.4433546501,0.05204,70.16261648,
0.05206,-0.2875059382,0.05206,70.89347707,
0.05208,0.4433546501,0.05208,70.52804678,
0.0521,1.174215238,0.0521,70.16261648,
0.05212,1.174215238,0.05212,70.89347707,
0.05214,-0.6529362324,0.05214,70.52804678,
0.05216,1.539645533,0.05216,70.16261648,
0.05218,1.174215238,0.05218,70.52804678,
0.0522,1.905075827,0.0522,70.89347707,
0.05222,1.905075827,0.05222,70.52804678,
0.05224,1.174215238,0.05224,70.89347707,
0.05226,-0.2875059382,0.05226,70.52804678,
0.05228,1.174215238,0.05228,69.79718619,
0.0523,0.07792435593,0.0523,70.52804678,
0.05232,0.4433546501,0.05232,70.52804678,
0.05234,0.8087849443,0.05234,70.52804678,
0.05236,-0.2875059382,0.05236,70.52804678,
0.05238,-0.2875059382,0.05238,70.52804678,
0.0524,0.4433546501,0.0524,70.16261648,
0.05242,0.4433546501,0.05242,69.79718619,
0.05244,-0.6529362324,0.05244,69.79718619,
0.05246,-1.018366527,0.05246,69.79718619,
0.05248,2.635936415,0.05248,70.52804678,
0.0525,-1.749227115,0.0525,71.62433766,
0.05252,-0.6529362324,0.05252,69.79718619,
0.05254,-1.749227115,0.05254,69.43175589,
0.05256,-2.845517997,0.05256,71.25890736,
0.05258,-0.2875059382,0.05258,70.16261648,
0.0526,-2.480087703,0.0526,70.89347707,
0.05262,-2.480087703,0.05262,70.52804678,
0.05264,0.4433546501,0.05264,70.89347707,
0.05266,-1.383796821,0.05266,70.89347707,
0.05268,-1.018366527,0.05268,70.89347707,
0.0527,-1.018366527,0.0527,70.16261648,
0.05272,0.8087849443,0.05272,70.89347707,
0.05274,-1.383796821,0.05274,70.52804678,
0.05276,-0.6529362324,0.05276,70.52804678,
0.05278,-1.018366527,0.05278,71.25890736,
0.0528,-1.018366527,0.0528,70.89347707,
0.05282,0.07792435593,0.05282,70.16261648,
0.05284,-0.2875059382,0.05284,70.89347707,
0.05286,0.07792435593,0.05286,70.16261648,
0.05288,1.539645533,0.05288,70.16261648,
0.0529,0.8087849443,0.0529,70.52804678,
0.05292,0.07792435593,0.05292,69.43175589,
0.05294,1.539645533,0.05294,70.16261648,
0.05296,0.8087849443,0.05296,70.52804678,
0.05298,0.07792435593,0.05298,69.79718619,
0.053,0.07792435593,0.053,70.16261648,
0.05302,1.174215238,0.05302,70.52804678,
0.05304,0.07792435593,0.05304,69.43175589,
0.05306,1.174215238,0.05306,70.52804678,
0.05308,1.174215238,0.05308,70.52804678,
0.0531,-0.2875059382,0.0531,70.16261648,
0.05312,1.905075827,0.05312,70.16261648,
0.05314,1.905075827,0.05314,70.16261648,
0.05316,0.4433546501,0.05316,69.79718619,
0.05318,1.905075827,0.05318,70.52804678,
0.0532,0.8087849443,0.0532,70.16261648,
0.05322,1.174215238,0.05322,69.79718619,
0.05324,1.905075827,0.05324,70.52804678,
0.05326,0.8087849443,0.05326,70.52804678,
0.05328,-0.2875059382,0.05328,69.79718619,
0.0533,-0.2875059382,0.0533,70.52804678,
0.05332,-0.6529362324,0.05332,70.16261648,
0.05334,0.4433546501,0.05334,69.43175589,
0.05336,1.174215238,0.05336,70.16261648,
0.05338,0.07792435593,0.05338,70.16261648,
0.0534,0.4433546501,0.0534,70.16261648,
0.05342,1.539645533,0.05342,70.52804678,
0.05344,-0.2875059382,0.05344,70.89347707,
0.05346,-0.6529362324,0.05346,69.0663256,
0.05348,-0.2875059382,0.05348,70.16261648,
0.0535,0.07792435593,0.0535,70.89347707,
0.05352,-2.480087703,0.05352,70.89347707,
0.05354,0.07792435593,0.05354,70.52804678,
0.05356,-1.383796821,0.05356,69.43175589,
0.05358,-1.018366527,0.05358,69.0663256,
0.0536,0.07792435593,0.0536,70.52804678,
0.05362,-1.749227115,0.05362,70.89347707,
0.05364,-0.6529362324,0.05364,70.16261648,
0.05366,0.8087849443,0.05366,70.16261648,
0.05368,-0.6529362324,0.05368,70.52804678,
0.0537,0.07792435593,0.0537,69.79718619,
0.05372,0.07792435593,0.05372,70.52804678,
0.05374,-1.018366527,0.05374,70.52804678,
0.05376,0.07792435593,0.05376,69.43175589,
0.05378,-0.2875059382,0.05378,70.16261648,
0.0538,0.4433546501,0.0538,70.52804678,
0.05382,-0.2875059382,0.05382,70.16261648,
0.05384,1.174215238,0.05384,70.52804678,
0.05386,0.8087849443,0.05386,70.52804678,
0.05388,0.4433546501,0.05388,69.79718619,
0.0539,0.4433546501,0.0539,70.52804678,
0.05392,0.07792435593,0.05392,70.16261648,
0.05394,1.174215238,0.05394,69.79718619,
0.05396,0.8087849443,0.05396,70.16261648,
0.05398,1.905075827,0.05398,70.16261648,
0.054,0.8087849443,0.054,69.43175589,
0.05402,0.4433546501,0.05402,70.16261648,
0.05404,0.4433546501,0.05404,70.16261648,
0.05406,0.07792435593,0.05406,70.16261648,
0.05408,-0.2875059382,0.05408,70.52804678,
0.0541,0.4433546501,0.0541,70.16261648,
0.05412,0.4433546501,0.05412,70.16261648,
0.05414,1.905075827,0.05414,70.16261648,
0.05416,1.905075827,0.05416,70.16261648,
0.05418,0.8087849443,0.05418,70.16261648,
0.0542,1.174215238,0.0542,70.16261648,
0.05422,1.174215238,0.05422,70.16261648,
0.05424,0.07792435593,0.05424,69.79718619,
0.05426,0.4433546501,0.05426,70.16261648,
0.05428,2.270506121,0.05428,69.79718619,
0.0543,-0.6529362324,0.0543,69.43175589,
0.05432,0.8087849443,0.05432,70.52804678,
0.05434,0.4433546501,0.05434,70.16261648,
0.05436,0.4433546501,0.05436,69.79718619,
0.05438,1.539645533,0.05438,70.16261648,
0.0544,1.174215238,0.0544,69.79718619,
0.05442,-0.6529362324,0.05442,69.0663256,
0.05444,-1.383796821,0.05444,70.52804678,
0.05446,-0.2875059382,0.05446,70.89347707,
0.05448,-1.383796821,0.05448,69.43175589,
0.0545,-3.576378586,0.0545,70.52804678,
0.05452,-3.94180888,0.05452,71.25890736,
0.05454,-3.210948292,0.05454,70.52804678,
0.05456,-1.749227115,0.05456,70.89347707,
0.05458,-1.383796821,0.05458,69.79718619,
0.0546,-0.6529362324,0.0546,70.52804678,
0.05462,-1.018366527,0.05462,70.89347707,
0.05464,0.8087849443,0.05464,70.89347707,
0.05466,0.4433546501,0.05466,69.79718619,
0.05468,-1.018366527,0.05468,70.52804678,
0.0547,-0.6529362324,0.0547,70.16261648,
0.05472,-1.018366527,0.05472,70.16261648,
0.05474,-0.2875059382,0.05474,70.52804678,
0.05476,-0.6529362324,0.05476,70.16261648,
0.05478,-1.749227115,0.05478,70.16261648,
0.0548,-0.2875059382,0.0548,70.52804678,
0.05482,0.07792435593,0.05482,70.16261648,
0.05484,0.8087849443,0.05484,70.52804678,
0.05486,0.4433546501,0.05486,70.16261648,
0.05488,1.539645533,0.05488,70.16261648,
0.0549,1.174215238,0.0549,70.89347707,
0.05492,-1.383796821,0.05492,70.52804678,
0.05494,0.4433546501,0.05494,69.79718619,
0.05496,0.07792435593,0.05496,70.89347707,
0.05498,-0.6529362324,0.05498,70.52804678,
0.055,0.8087849443,0.055,70.16261648,
0.05502,0.4433546501,0.05502,70.52804678,
0.05504,-0.6529362324,0.05504,70.16261648,
0.05506,0.4433546501,0.05506,70.52804678,
0.05508,0.07792435593,0.05508,70.89347707,
0.0551,0.8087849443,0.0551,70.16261648,
0.05512,1.539645533,0.05512,70.16261648,
0.05514,1.905075827,0.05514,70.89347707,
0.05516,1.174215238,0.05516,70.52804678,
0.05518,0.4433546501,0.05518,70.16261648,
0.0552,1.905075827,0.0552,70.89347707,
0.05522,0.8087849443,0.05522,70.52804678,
0.05524,-0.2875059382,0.05524,70.16261648,
0.05526,-1.018366527,0.05526,70.89347707,
0.05528,-0.2875059382,0.05528,69.79718619,
0.0553,-1.018366527,0.0553,70.16261648,
0.05532,-0.2875059382,0.05532,70.89347707,
0.05534,-0.2875059382,0.05534,70.52804678,
0.05536,-0.6529362324,0.05536,69.79718619,
0.05538,0.8087849443,0.05538,70.52804678,
0.0554,0.8087849443,0.0554,69.79718619,
0.05542,-0.2875059382,0.05542,70.52804678,
0.05544,-1.749227115,0.05544,69.79718619,
0.05546,-2.114657409,0.05546,69.79718619,
0.05548,-2.480087703,0.05548,70.16261648,
0.0555,-1.749227115,0.0555,70.52804678,
0.05552,-2.845517997,0.05552,70.52804678,
0.05554,-2.114657409,0.05554,70.52804678,
0.05556,0.07792435593,0.05556,70.16261648,
0.05558,-0.2875059382,0.05558,69.79718619,
0.0556,0.07792435593,0.0556,69.79718619,
0.05562,0.8087849443,0.05562,70.52804678,
0.05564,-0.6529362324,0.05564,70.52804678,
0.05566,-1.018366527,0.05566,70.16261648,
0.05568,0.4433546501,0.05568,70.89347707,
0.0557,-1.018366527,0.0557,70.16261648,
0.05572,-2.114657409,0.05572,70.16261648,
0.05574,-0.6529362324,0.05574,70.89347707,
0.05576,-1.383796821,0.05576,70.52804678,
0.05578,-0.2875059382,0.05578,70.16261648,
0.0558,1.174215238,0.0558,70.89347707,
0.05582,0.8087849443,0.05582,70.16261648,
0.05584,0.07792435593,0.05584,70.16261648,
0.05586,1.174215238,0.05586,70.89347707,
0.05588,-0.2875059382,0.05588,70.16261648,
0.0559,1.174215238,0.0559,70.16261648,
0.05592,1.905075827,0.05592,70.52804678,
0.05594,0.8087849443,0.05594,70.16261648,
0.05596,0.4433546501,0.05596,70.16261648,
0.05598,1.174215238,0.05598,70.52804678,
0.056,1.174215238,0.056,70.16261648,
0.05602,0.4433546501,0.05602,70.16261648,
0.05604,0.8087849443,0.05604,69.43175589,
0.05606,0.8087849443,0.05606,70.16261648,
0.05608,1.539645533,0.05608,70.52804678,
0.0561,1.905075827,0.0561,70.89347707,
0.05612,2.635936415,0.05612,70.52804678,
0.05614,1.539645533,0.05614,70.52804678,
0.05616,1.174215238,0.05616,70.89347707,
0.05618,1.905075827,0.05618,70.52804678,
0.0562,0.4433546501,0.0562,70.52804678,
0.05622,0.4433546501,0.05622,70.52804678,
0.05624,-1.018366527,0.05624,70.16261648,
0.05626,0.07792435593,0.05626,70.52804678,
0.05628,0.07792435593,0.05628,70.16261648,
0.0563,0.4433546501,0.0563,70.89347707,
0.05632,0.4433546501,0.05632,70.89347707,
0.05634,1.539645533,0.05634,71.25890736,
0.05636,-0.2875059382,0.05636,70.89347707,
0.05638,-0.6529362324,0.05638,70.52804678,
0.0564,0.4433546501,0.0564,70.52804678,
0.05642,-2.114657409,0.05642,70.89347707,
0.05644,-2.114657409,0.05644,70.16261648,
0.05646,1.905075827,0.05646,70.89347707,
0.05648,-3.210948292,0.05648,70.89347707,
0.0565,0.4433546501,0.0565,70.89347707,
0.05652,-1.749227115,0.05652,71.25890736,
0.05654,-2.480087703,0.05654,70.52804678,
0.05656,0.4433546501,0.05656,70.16261648,
0.05658,-0.6529362324,0.05658,70.52804678,
0.0566,0.8087849443,0.0566,70.89347707,
0.05662,0.4433546501,0.05662,70.16261648,
0.05664,-1.018366527,0.05664,70.89347707,
0.05666,-1.018366527,0.05666,69.79718619,
0.05668,-1.018366527,0.05668,70.52804678,
0.0567,-1.749227115,0.0567,70.16261648,
0.05672,-0.2875059382,0.05672,70.16261648,
0.05674,-0.6529362324,0.05674,70.52804678,
0.05676,0.4433546501,0.05676,70.52804678,
0.05678,1.174215238,0.05678,70.16261648,
0.0568,0.8087849443,0.0568,70.89347707,
0.05682,1.539645533,0.05682,70.52804678,
0.05684,1.174215238,0.05684,70.52804678,
0.05686,1.539645533,0.05686,70.16261648,
0.05688,1.905075827,0.05688,70.52804678,
0.0569,0.07792435593,0.0569,70.52804678,
0.05692,1.174215238,0.05692,70.89347707,
0.05694,1.539645533,0.05694,70.89347707,
0.05696,0.4433546501,0.05696,70.89347707,
0.05698,0.4433546501,0.05698,70.89347707,
0.057,0.8087849443,0.057,70.16261648,
0.05702,0.4433546501,0.05702,70.52804678,
0.05704,1.539645533,0.05704,70.89347707,
0.05706,2.270506121,0.05706,70.52804678,
0.05708,2.635936415,0.05708,70.52804678,
0.0571,2.270506121,0.0571,70.16261648,
0.05712,1.905075827,0.05712,70.52804678,
0.05714,1.539645533,0.05714,70.52804678,
0.05716,1.539645533,0.05716,70.52804678,
0.05718,-0.6529362324,0.05718,70.52804678,
0.0572,0.8087849443,0.0572,70.16261648,
0.05722,-1.018366527,0.05722,70.52804678,
0.05724,0.4433546501,0.05724,70.52804678,
0.05726,0.8087849443,0.05726,70.16261648,
0.05728,0.07792435593,0.05728,70.52804678,
0.0573,1.539645533,0.0573,70.16261648,
0.05732,0.8087849443,0.05732,70.89347707,
0.05734,0.4433546501,0.05734,70.52804678,
0.05736,0.4433546501,0.05736,70.16261648,
0.05738,-0.2875059382,0.05738,70.89347707,
0.0574,-2.114657409,0.0574,71.25890736,
0.05742,-2.114657409,0.05742,71.25890736,
0.05744,-2.114657409,0.05744,71.25890736,
0.05746,-2.845517997,0.05746,70.89347707,
0.05748,0.4433546501,0.05748,70.52804678,
