"A0_accX_x","A0_accX_y","A1_rmsX_x","A1_rmsX_y"
0,-0.1800401973,0,73.45148913,
2e-05,0.9162506852,2e-05,72.72062854,
4e-05,2.743402156,4e-05,73.81691942,
6e-05,0.1853900968,6e-05,73.45148913,
8e-05,0.1853900968,8e-05,73.81691942,
0.0001,1.281680979,0.0001,73.81691942,
0.00012,0.1853900968,0.00012,71.98976795,
0.00014,-0.1800401973,0.00014,73.45148913,
0.00016,-3.468912845,0.00016,73.81691942,
0.00018,-3.468912845,0.00018,73.08605883,
0.0002,-0.1800401973,0.0002,73.45148913,
0.00022,-3.103482551,0.00022,73.45148913,
0.00024,-2.738052257,0.00024,74.18234972,
0.00026,0.550820391,0.00026,72.35519825,
0.00028,-0.1800401973,0.00028,73.81691942,
0.0003,-0.9109007857,0.0003,73.81691942,
0.00032,0.1853900968,0.00032,73.08605883,
0.00034,-0.9109007857,0.00034,73.81691942,
0.00036,-0.5454704915,0.00036,73.45148913,
0.00038,-1.27633108,0.00038,73.08605883,
0.0004,-2.007191668,0.0004,73.08605883,
0.00042,-0.1800401973,0.00042,73.45148913,
0.00044,-1.27633108,0.00044,73.08605883,
0.00046,-0.9109007857,0.00046,72.35519825,
0.00048,1.281680979,0.00048,73.08605883,
0.0005,1.647111274,0.0005,73.08605883,
0.00052,0.1853900968,0.00052,72.72062854,
0.00054,0.9162506852,0.00054,73.45148913,
0.00056,2.743402156,0.00056,73.08605883,
0.00058,0.9162506852,0.00058,72.35519825,
0.0006,0.550820391,0.0006,73.45148913,
0.00062,0.1853900968,0.00062,73.45148913,
0.00064,0.550820391,0.00064,73.08605883,
0.00066,1.281680979,0.00066,73.08605883,
0.00068,0.1853900968,0.00068,73.45148913,
0.0007,-0.1800401973,0.0007,72.72062854,
0.00072,0.9162506852,0.00072,73.08605883,
0.00074,1.281680979,0.00074,73.08605883,
0.00076,1.281680979,0.00076,72.72062854,
0.00078,1.647111274,0.00078,73.08605883,
0.0008,1.647111274,0.0008,73.08605883,
0.00082,1.647111274,0.00082,72.72062854,
0.00084,1.647111274,0.00084,73.08605883,
0.00086,0.9162506852,0.00086,73.08605883,
0.00088,0.9162506852,0.00088,72.72062854,
0.0009,-0.1800401973,0.0009,73.08605883,
0.00092,-0.1800401973,0.00092,73.45148913,
0.00094,-0.9109007857,0.00094,72.72062854,
0.00096,-0.9109007857,0.00096,73.08605883,
0.00098,-0.1800401973,0.00098,73.08605883,
0.001,0.550820391,0.001,72.35519825,
0.00102,1.647111274,0.00102,73.45148913,
0.00104,0.550820391,0.00104,73.81691942,
0.00106,0.9162506852,0.00106,72.72062854,
0.00108,0.9162506852,0.00108,73.45148913,
0.0011,-3.103482551,0.0011,73.81691942,
0.00112,-2.738052257,0.00112,72.35519825,
0.00114,-0.9109007857,0.00114,73.45148913,
0.00116,-1.27633108,0.00116,73.08605883,
0.00118,0.550820391,0.00118,71.98976795,
0.0012,-3.103482551,0.0012,73.81691942,
0.00122,-0.5454704915,0.00122,73.45148913,
0.00124,-1.27633108,0.00124,73.45148913,
0.00126,1.281680979,0.00126,73.08605883,
0.00128,-0.5454704915,0.00128,73.08605883,
0.0013,-0.1800401973,0.0013,72.72062854,
0.00132,-0.1800401973,0.00132,72.72062854,
0.00134,-0.9109007857,0.00134,73.08605883,
0.00136,-1.27633108,0.00136,72.35519825,
0.00138,-0.1800401973,0.00138,73.08605883,
0.0014,-0.5454704915,0.0014,72.72062854,
0.00142,-0.1800401973,0.00142,72.35519825,
0.00144,0.550820391,0.00144,73.08605883,
0.00146,0.550820391,0.00146,72.72062854,
0.00148,0.550820391,0.00148,72.72062854,
0.0015,1.281680979,0.0015,73.45148913,
0.00152,1.647111274,0.00152,72.72062854,
0.00154,0.1853900968,0.00154,73.08605883,
0.00156,1.647111274,0.00156,73.08605883,
0.00158,2.012541568,0.00158,73.45148913,
0.0016,0.9162506852,0.0016,72.72062854,
0.00162,1.281680979,0.00162,73.45148913,
0.00164,0.1853900968,0.00164,73.45148913,
0.00166,-0.1800401973,0.00166,73.08605883,
0.00168,0.550820391,0.00168,73.45148913,
0.0017,0.550820391,0.0017,73.45148913,
0.00172,2.012541568,0.00172,73.45148913,
0.00174,1.647111274,0.00174,73.81691942,
0.00176,2.012541568,0.00176,73.45148913,
0.00178,2.377971862,0.00178,73.08605883,
0.0018,1.647111274,0.0018,73.45148913,
0.00182,0.550820391,0.00182,73.08605883,
0.00184,-0.5454704915,0.00184,73.81691942,
0.00186,0.9162506852,0.00186,73.45148913,
0.00188,0.1853900968,0.00188,73.45148913,
0.0019,0.1853900968,0.0019,73.08605883,
0.00192,-0.5454704915,0.00192,73.45148913,
0.00194,-0.5454704915,0.00194,73.45148913,
0.00196,0.9162506852,0.00196,73.08605883,
0.00198,0.9162506852,0.00198,73.45148913,
0.002,-0.5454704915,0.002,73.81691942,
0.00202,-0.1800401973,0.00202,72.72062854,
0.00204,-1.641761374,0.00204,72.35519825,
0.00206,-0.5454704915,0.00206,73.81691942,
0.00208,0.9162506852,0.00208,72.35519825,
0.0021,-2.372621962,0.0021,73.45148913,
0.00212,-2.738052257,0.00212,72.35519825,
0.00214,-3.834343139,0.00214,73.81691942,
0.00216,-3.468912845,0.00216,73.45148913,
0.00218,-2.738052257,0.00218,73.45148913,
0.0022,-2.372621962,0.0022,73.08605883,
0.00222,0.1853900968,0.00222,73.08605883,
0.00224,0.550820391,0.00224,73.81691942,
0.00226,0.550820391,0.00226,73.08605883,
0.00228,-1.27633108,0.00228,72.72062854,
0.0023,-0.1800401973,0.0023,73.81691942,
0.00232,-0.9109007857,0.00232,72.72062854,
0.00234,-1.641761374,0.00234,73.08605883,
0.00236,0.1853900968,0.00236,73.45148913,
0.00238,-1.27633108,0.00238,73.45148913,
0.0024,-0.9109007857,0.0024,72.35519825,
0.00242,0.1853900968,0.00242,73.08605883,
0.00244,0.550820391,0.00244,72.72062854,
0.00246,2.377971862,0.00246,72.72062854,
0.00248,0.550820391,0.00248,74.18234972,
0.0025,0.550820391,0.0025,73.08605883,
0.00252,0.1853900968,0.00252,72.35519825,
0.00254,0.550820391,0.00254,73.45148913,
0.00256,-0.5454704915,0.00256,73.45148913,
0.00258,0.9162506852,0.00258,73.08605883,
0.0026,0.1853900968,0.0026,73.45148913,
0.00262,0.550820391,0.00262,72.72062854,
0.00264,-0.5454704915,0.00264,73.45148913,
0.00266,0.550820391,0.00266,73.45148913,
0.00268,-0.5454704915,0.00268,73.08605883,
0.0027,1.281680979,0.0027,72.72062854,
0.00272,2.012541568,0.00272,73.81691942,
0.00274,0.9162506852,0.00274,73.08605883,
0.00276,1.647111274,0.00276,72.72062854,
0.00278,2.012541568,0.00278,73.45148913,
0.0028,0.9162506852,0.0028,73.08605883,
0.00282,0.1853900968,0.00282,72.72062854,
0.00284,0.1853900968,0.00284,73.45148913,
0.00286,-0.5454704915,0.00286,73.08605883,
0.00288,-0.5454704915,0.00288,73.08605883,
0.0029,-0.9109007857,0.0029,73.81691942,
0.00292,-0.5454704915,0.00292,73.08605883,
0.00294,0.550820391,0.00294,72.35519825,
0.00296,1.281680979,0.00296,73.81691942,
0.00298,2.012541568,0.00298,72.72062854,
0.003,1.281680979,0.003,73.45148913,
0.00302,0.550820391,0.00302,73.81691942,
0.00304,-0.1800401973,0.00304,72.72062854,
0.00306,0.1853900968,0.00306,73.45148913,
0.00308,-3.468912845,0.00308,73.08605883,
0.0031,-1.27633108,0.0031,74.18234972,
0.00312,-2.372621962,0.00312,73.08605883,
0.00314,-2.738052257,0.00314,73.81691942,
0.00316,-1.641761374,0.00316,73.08605883,
0.00318,-2.007191668,0.00318,73.08605883,
0.0032,0.550820391,0.0032,73.81691942,
0.00322,0.550820391,0.00322,73.45148913,
0.00324,-0.1800401973,0.00324,73.08605883,
0.00326,-0.5454704915,0.00326,73.45148913,
0.00328,-0.5454704915,0.00328,73.08605883,
0.0033,-0.9109007857,0.0033,73.08605883,
0.00332,-0.9109007857,0.00332,73.45148913,
0.00334,-2.372621962,0.00334,73.45148913,
0.00336,-0.5454704915,0.00336,73.08605883,
0.00338,-0.1800401973,0.00338,73.45148913,
0.0034,-0.9109007857,0.0034,73.08605883,
0.00342,0.9162506852,0.00342,72.72062854,
0.00344,0.1853900968,0.00344,73.45148913,
0.00346,0.9162506852,0.00346,72.72062854,
0.00348,1.281680979,0.00348,73.08605883,
0.0035,0.9162506852,0.0035,73.81691942,
0.00352,0.550820391,0.00352,73.45148913,
0.00354,1.281680979,0.00354,73.08605883,
0.00356,0.1853900968,0.00356,73.45148913,
0.00358,0.1853900968,0.00358,73.45148913,
0.0036,-0.5454704915,0.0036,72.72062854,
0.00362,-0.1800401973,0.00362,73.81691942,
0.00364,0.550820391,0.00364,73.45148913,
0.00366,0.550820391,0.00366,73.45148913,
0.00368,0.9162506852,0.00368,73.45148913,
0.0037,1.281680979,0.0037,73.08605883,
0.00372,2.377971862,0.00372,73.08605883,
0.00374,2.012541568,0.00374,73.81691942,
0.00376,1.647111274,0.00376,72.72062854,
0.00378,1.281680979,0.00378,72.72062854,
0.0038,0.1853900968,0.0038,73.81691942,
0.00382,0.1853900968,0.00382,73.08605883,
0.00384,-0.1800401973,0.00384,72.35519825,
0.00386,-0.9109007857,0.00386,73.81691942,
0.00388,-1.27633108,0.00388,73.08605883,
0.0039,-0.5454704915,0.0039,72.72062854,
0.00392,1.647111274,0.00392,73.45148913,
0.00394,0.9162506852,0.00394,72.72062854,
0.00396,2.012541568,0.00396,73.45148913,
0.00398,-0.5454704915,0.00398,73.81691942,
0.004,-0.9109007857,0.004,72.35519825,
0.00402,-0.5454704915,0.00402,73.08605883,
0.00404,1.647111274,0.00404,74.18234972,
0.00406,-2.372621962,0.00406,73.81691942,
0.00408,-1.641761374,0.00408,72.35519825,
0.0041,-3.103482551,0.0041,74.54778001,
0.00412,-3.468912845,0.00412,72.72062854,
0.00414,0.9162506852,0.00414,73.08605883,
0.00416,-2.372621962,0.00416,73.08605883,
0.00418,0.550820391,0.00418,73.08605883,
0.0042,0.550820391,0.0042,73.08605883,
0.00422,0.550820391,0.00422,73.45148913,
0.00424,-1.27633108,0.00424,73.08605883,
0.00426,-0.1800401973,0.00426,73.08605883,
0.00428,-1.641761374,0.00428,73.81691942,
0.0043,0.1853900968,0.0043,73.45148913,
0.00432,0.1853900968,0.00432,73.08605883,
0.00434,0.550820391,0.00434,73.08605883,
0.00436,-0.9109007857,0.00436,73.08605883,
0.00438,0.1853900968,0.00438,73.08605883,
0.0044,0.9162506852,0.0044,73.45148913,
0.00442,1.647111274,0.00442,73.08605883,
0.00444,1.647111274,0.00444,73.08605883,
0.00446,1.647111274,0.00446,73.45148913,
0.00448,-0.1800401973,0.00448,73.45148913,
0.0045,0.9162506852,0.0045,73.08605883,
0.00452,0.9162506852,0.00452,73.81691942,
0.00454,0.1853900968,0.00454,73.08605883,
0.00456,0.550820391,0.00456,73.08605883,
0.00458,0.1853900968,0.00458,73.45148913,
0.0046,-0.5454704915,0.0046,73.45148913,
0.00462,-0.5454704915,0.00462,73.08605883,
0.00464,1.281680979,0.00464,73.45148913,
0.00466,1.281680979,0.00466,73.08605883,
0.00468,2.743402156,0.00468,72.72062854,
0.0047,3.10883245,0.0047,73.45148913,
0.00472,0.550820391,0.00472,73.45148913,
0.00474,0.550820391,0.00474,73.45148913,
0.00476,0.1853900968,0.00476,73.81691942,
0.00478,0.1853900968,0.00478,73.45148913,
0.0048,0.550820391,0.0048,73.08605883,
0.00482,0.1853900968,0.00482,73.45148913,
0.00484,-1.27633108,0.00484,73.08605883,
0.00486,-0.1800401973,0.00486,73.08605883,
0.00488,0.1853900968,0.00488,73.81691942,
0.0049,0.9162506852,0.0049,73.45148913,
0.00492,1.647111274,0.00492,72.72062854,
0.00494,1.281680979,0.00494,74.18234972,
0.00496,-1.641761374,0.00496,73.45148913,
0.00498,-0.1800401973,0.00498,72.72062854,
0.005,1.647111274,0.005,72.72062854,
0.00502,-1.27633108,0.00502,73.08605883,
0.00504,0.1853900968,0.00504,72.35519825,
0.00506,0.1853900968,0.00506,73.81691942,
0.00508,-2.738052257,0.00508,72.35519825,
0.0051,-2.738052257,0.0051,71.98976795,
0.00512,-0.9109007857,0.00512,72.35519825,
0.00514,-0.1800401973,0.00514,72.72062854,
0.00516,1.281680979,0.00516,73.08605883,
0.00518,0.550820391,0.00518,72.72062854,
0.0052,-0.1800401973,0.0052,73.08605883,
0.00522,-1.641761374,0.00522,73.45148913,
0.00524,-0.9109007857,0.00524,73.08605883,
0.00526,-2.007191668,0.00526,73.45148913,
0.00528,-0.1800401973,0.00528,73.08605883,
0.0053,-0.5454704915,0.0053,73.81691942,
0.00532,-0.1800401973,0.00532,73.08605883,
0.00534,0.9162506852,0.00534,73.08605883,
0.00536,1.647111274,0.00536,73.08605883,
0.00538,0.550820391,0.00538,73.08605883,
0.0054,0.9162506852,0.0054,72.72062854,
0.00542,1.281680979,0.00542,73.45148913,
0.00544,0.550820391,0.00544,73.08605883,
0.00546,1.647111274,0.00546,73.08605883,
0.00548,0.550820391,0.00548,73.45148913,
0.0055,-0.9109007857,0.0055,73.45148913,
0.00552,0.550820391,0.00552,73.08605883,
0.00554,1.281680979,0.00554,73.08605883,
0.00556,-0.1800401973,0.00556,73.08605883,
0.00558,0.550820391,0.00558,72.72062854,
0.0056,0.1853900968,0.0056,72.72062854,
0.00562,-0.1800401973,0.00562,73.08605883,
0.00564,0.9162506852,0.00564,73.45148913,
0.00566,2.377971862,0.00566,73.81691942,
0.00568,1.281680979,0.00568,72.72062854,
0.0057,2.012541568,0.0057,73.08605883,
0.00572,0.550820391,0.00572,73.45148913,
0.00574,0.9162506852,0.00574,73.08605883,
0.00576,0.550820391,0.00576,73.08605883,
0.00578,-0.9109007857,0.00578,73.81691942,
0.0058,-1.641761374,0.0058,73.08605883,
0.00582,-0.9109007857,0.00582,73.45148913,
0.00584,-0.1800401973,0.00584,73.08605883,
0.00586,0.1853900968,0.00586,73.08605883,
0.00588,0.9162506852,0.00588,73.45148913,
0.0059,0.9162506852,0.0059,72.35519825,
0.00592,-0.5454704915,0.00592,73.45148913,
0.00594,0.1853900968,0.00594,73.81691942,
0.00596,-2.007191668,0.00596,73.08605883,
0.00598,-2.372621962,0.00598,72.35519825,
0.006,-0.5454704915,0.006,72.35519825,
0.00602,1.281680979,0.00602,74.18234972,
0.00604,-0.9109007857,0.00604,74.18234972,
0.00606,0.9162506852,0.00606,72.72062854,
0.00608,-2.372621962,0.00608,73.81691942,
0.0061,-0.1800401973,0.0061,72.35519825,
0.00612,0.550820391,0.00612,73.08605883,
0.00614,0.1853900968,0.00614,72.72062854,
0.00616,1.281680979,0.00616,73.45148913,
0.00618,0.1853900968,0.00618,73.08605883,
0.0062,-0.5454704915,0.0062,72.72062854,
0.00622,-0.5454704915,0.00622,72.72062854,
0.00624,-0.1800401973,0.00624,72.72062854,
0.00626,-0.5454704915,0.00626,72.72062854,
0.00628,0.1853900968,0.00628,72.72062854,
0.0063,-0.5454704915,0.0063,73.08605883,
0.00632,-0.1800401973,0.00632,72.72062854,
0.00634,0.9162506852,0.00634,73.45148913,
0.00636,1.281680979,0.00636,73.08605883,
0.00638,0.550820391,0.00638,72.35519825,
0.0064,0.9162506852,0.0064,73.08605883,
0.00642,1.281680979,0.00642,73.45148913,
0.00644,-0.1800401973,0.00644,72.72062854,
0.00646,-0.1800401973,0.00646,72.72062854,
0.00648,0.9162506852,0.00648,73.45148913,
0.0065,0.1853900968,0.0065,73.08605883,
0.00652,1.281680979,0.00652,73.08605883,
0.00654,0.1853900968,0.00654,73.08605883,
0.00656,0.1853900968,0.00656,72.72062854,
0.00658,1.647111274,0.00658,73.08605883,
0.0066,0.9162506852,0.0066,73.45148913,
0.00662,2.377971862,0.00662,72.72062854,
0.00664,1.281680979,0.00664,73.08605883,
0.00666,1.281680979,0.00666,72.72062854,
0.00668,0.9162506852,0.00668,72.72062854,
0.0067,1.647111274,0.0067,73.08605883,
0.00672,0.9162506852,0.00672,73.08605883,
0.00674,0.9162506852,0.00674,73.08605883,
0.00676,0.9162506852,0.00676,73.08605883,
0.00678,-0.5454704915,0.00678,73.45148913,
0.0068,-0.1800401973,0.0068,73.08605883,
0.00682,0.1853900968,0.00682,72.72062854,
0.00684,0.550820391,0.00684,73.08605883,
0.00686,1.281680979,0.00686,73.45148913,
0.00688,1.281680979,0.00688,73.45148913,
0.0069,0.1853900968,0.0069,73.08605883,
0.00692,-1.641761374,0.00692,72.72062854,
0.00694,2.012541568,0.00694,73.08605883,
0.00696,-2.007191668,0.00696,74.18234972,
0.00698,-3.103482551,0.00698,72.35519825,
0.007,0.550820391,0.007,74.18234972,
0.00702,-0.9109007857,0.00702,73.81691942,
0.00704,0.1853900968,0.00704,72.72062854,
0.00706,-2.738052257,0.00706,73.45148913,
0.00708,3.474262744,0.00708,73.45148913,
0.0071,-0.9109007857,0.0071,72.72062854,
0.00712,-0.5454704915,0.00712,72.35519825,
0.00714,0.550820391,0.00714,73.08605883,
0.00716,1.281680979,0.00716,73.08605883,
0.00718,-0.1800401973,0.00718,72.35519825,
0.0072,0.1853900968,0.0072,72.72062854,
0.00722,-0.5454704915,0.00722,73.08605883,
0.00724,-0.9109007857,0.00724,72.35519825,
0.00726,0.1853900968,0.00726,73.08605883,
0.00728,-0.1800401973,0.00728,73.45148913,
0.0073,-0.1800401973,0.0073,72.35519825,
0.00732,0.9162506852,0.00732,73.45148913,
0.00734,1.281680979,0.00734,73.08605883,
0.00736,1.281680979,0.00736,73.08605883,
0.00738,1.281680979,0.00738,73.45148913,
0.0074,1.281680979,0.0074,73.45148913,
0.00742,0.550820391,0.00742,72.72062854,
0.00744,1.281680979,0.00744,73.08605883,
0.00746,0.550820391,0.00746,72.72062854,
0.00748,0.1853900968,0.00748,72.72062854,
0.0075,2.012541568,0.0075,72.72062854,
0.00752,0.9162506852,0.00752,72.72062854,
0.00754,0.550820391,0.00754,72.72062854,
0.00756,0.550820391,0.00756,72.72062854,
0.00758,2.012541568,0.00758,73.08605883,
0.0076,1.647111274,0.0076,72.35519825,
0.00762,3.10883245,0.00762,73.08605883,
0.00764,1.647111274,0.00764,72.72062854,
0.00766,2.012541568,0.00766,72.72062854,
0.00768,1.647111274,0.00768,73.08605883,
0.0077,1.281680979,0.0077,73.08605883,
0.00772,1.281680979,0.00772,72.72062854,
0.00774,0.9162506852,0.00774,73.08605883,
0.00776,-0.1800401973,0.00776,73.45148913,
0.00778,-0.5454704915,0.00778,72.35519825,
0.0078,0.550820391,0.0078,73.08605883,
0.00782,-0.1800401973,0.00782,72.72062854,
0.00784,1.281680979,0.00784,72.35519825,
0.00786,0.9162506852,0.00786,73.08605883,
0.00788,2.743402156,0.00788,73.08605883,
0.0079,0.550820391,0.0079,72.35519825,
0.00792,-0.9109007857,0.00792,73.08605883,
0.00794,-0.9109007857,0.00794,72.35519825,
0.00796,-3.103482551,0.00796,72.35519825,
0.00798,0.9162506852,0.00798,72.35519825,
0.008,-3.834343139,0.008,73.81691942,
0.00802,-3.468912845,0.00802,73.08605883,
0.00804,0.1853900968,0.00804,73.08605883,
0.00806,-0.5454704915,0.00806,72.35519825,
0.00808,0.1853900968,0.00808,73.81691942,
0.0081,0.550820391,0.0081,73.81691942,
0.00812,0.1853900968,0.00812,73.08605883,
0.00814,-0.1800401973,0.00814,72.72062854,
0.00816,-0.9109007857,0.00816,73.45148913,
0.00818,-1.641761374,0.00818,73.08605883,
0.0082,-1.27633108,0.0082,72.35519825,
0.00822,-0.1800401973,0.00822,73.08605883,
0.00824,-1.641761374,0.00824,73.08605883,
0.00826,-0.9109007857,0.00826,73.08605883,
0.00828,0.1853900968,0.00828,73.08605883,
0.0083,0.1853900968,0.0083,73.08605883,
0.00832,2.012541568,0.00832,72.72062854,
0.00834,1.647111274,0.00834,73.08605883,
0.00836,-0.1800401973,0.00836,73.08605883,
0.00838,0.550820391,0.00838,72.72062854,
0.0084,1.281680979,0.0084,73.45148913,
0.00842,-0.1800401973,0.00842,73.08605883,
0.00844,0.1853900968,0.00844,73.08605883,
0.00846,1.281680979,0.00846,73.81691942,
0.00848,-1.27633108,0.00848,73.45148913,
0.0085,0.1853900968,0.0085,72.35519825,
0.00852,1.647111274,0.00852,73.45148913,
0.00854,0.9162506852,0.00854,72.72062854,
0.00856,1.647111274,0.00856,72.72062854,
0.00858,2.012541568,0.00858,73.81691942,
0.0086,1.281680979,0.0086,73.08605883,
0.00862,2.012541568,0.00862,72.72062854,
0.00864,0.550820391,0.00864,73.45148913,
0.00866,1.647111274,0.00866,73.08605883,
0.00868,1.281680979,0.00868,73.08605883,
0.0087,1.281680979,0.0087,73.81691942,
0.00872,-0.1800401973,0.00872,73.08605883,
0.00874,-0.9109007857,0.00874,73.08605883,
0.00876,-0.9109007857,0.00876,73.45148913,
0.00878,0.1853900968,0.00878,72.72062854,
0.0088,0.9162506852,0.0088,73.08605883,
0.00882,0.550820391,0.00882,73.81691942,
0.00884,-0.5454704915,0.00884,73.08605883,
0.00886,0.9162506852,0.00886,73.81691942,
0.00888,-1.27633108,0.00888,73.45148913,
0.0089,-1.641761374,0.0089,71.98976795,
0.00892,-3.468912845,0.00892,73.81691942,
0.00894,-1.641761374,0.00894,73.81691942,
0.00896,-3.834343139,0.00896,73.81691942,
0.00898,-3.468912845,0.00898,73.08605883,
0.009,-3.834343139,0.009,73.45148913,
0.00902,-2.372621962,0.00902,73.81691942,
0.00904,-0.5454704915,0.00904,73.45148913,
0.00906,0.550820391,0.00906,73.81691942,
0.00908,-0.5454704915,0.00908,73.45148913,
0.0091,-0.9109007857,0.0091,72.35519825,
0.00912,0.1853900968,0.00912,73.45148913,
0.00914,-0.9109007857,0.00914,73.45148913,
0.00916,-0.9109007857,0.00916,72.35519825,
0.00918,-0.1800401973,0.00918,73.45148913,
0.0092,-0.5454704915,0.0092,73.08605883,
0.00922,-0.9109007857,0.00922,73.45148913,
0.00924,0.550820391,0.00924,73.45148913,
0.00926,-0.1800401973,0.00926,73.45148913,
0.00928,-0.1800401973,0.00928,72.35519825,
0.0093,1.281680979,0.0093,73.81691942,
0.00932,0.9162506852,0.00932,73.08605883,
0.00934,0.9162506852,0.00934,72.72062854,
0.00936,0.1853900968,0.00936,73.45148913,
0.00938,-0.1800401973,0.00938,73.08605883,
0.0094,0.9162506852,0.0094,72.72062854,
0.00942,0.1853900968,0.00942,73.81691942,
0.00944,-0.1800401973,0.00944,73.45148913,
0.00946,1.647111274,0.00946,72.72062854,
0.00948,-0.9109007857,0.00948,73.45148913,
0.0095,-0.1800401973,0.0095,73.08605883,
0.00952,1.281680979,0.00952,73.08605883,
0.00954,1.647111274,0.00954,73.45148913,
0.00956,1.281680979,0.00956,73.45148913,
0.00958,1.281680979,0.00958,72.72062854,
0.0096,2.377971862,0.0096,73.45148913,
0.00962,0.1853900968,0.00962,73.08605883,
0.00964,0.1853900968,0.00964,72.35519825,
0.00966,0.550820391,0.00966,73.45148913,
0.00968,0.550820391,0.00968,72.72062854,
0.0097,-0.1800401973,0.0097,72.72062854,
0.00972,-0.5454704915,0.00972,73.45148913,
0.00974,-0.5454704915,0.00974,73.45148913,
0.00976,-0.5454704915,0.00976,72.72062854,
0.00978,1.281680979,0.00978,73.45148913,
0.0098,1.647111274,0.0098,73.08605883,
0.00982,3.10883245,0.00982,72.35519825,
0.00984,0.9162506852,0.00984,73.81691942,
0.00986,-2.007191668,0.00986,73.45148913,
0.00988,-2.372621962,0.00988,73.08605883,
0.0099,0.1853900968,0.0099,74.18234972,
0.00992,1.281680979,0.00992,72.35519825,
0.00994,-3.103482551,0.00994,72.72062854,
0.00996,-2.738052257,0.00996,72.72062854,
0.00998,-1.641761374,0.00998,71.98976795,
0.01,-0.1800401973,0.01,72.35519825,
0.01002,0.1853900968,0.01002,73.08605883,
0.01004,0.550820391,0.01004,73.08605883,
0.01006,1.281680979,0.01006,72.72062854,
0.01008,-0.5454704915,0.01008,73.45148913,
0.0101,-0.5454704915,0.0101,73.08605883,
0.01012,0.1853900968,0.01012,72.72062854,
0.01014,-1.641761374,0.01014,73.81691942,
0.01016,-0.9109007857,0.01016,73.45148913,
0.01018,-0.1800401973,0.01018,73.08605883,
0.0102,-0.9109007857,0.0102,73.45148913,
0.01022,-0.9109007857,0.01022,73.08605883,
0.01024,0.550820391,0.01024,73.45148913,
0.01026,1.281680979,0.01026,73.45148913,
0.01028,0.9162506852,0.01028,73.45148913,
0.0103,1.281680979,0.0103,72.35519825,
0.01032,1.281680979,0.01032,73.08605883,
0.01034,0.550820391,0.01034,73.45148913,
0.01036,2.377971862,0.01036,73.08605883,
0.01038,1.281680979,0.01038,73.45148913,
0.0104,-0.5454704915,0.0104,73.45148913,
0.01042,0.1853900968,0.01042,73.08605883,
0.01044,0.1853900968,0.01044,73.81691942,
0.01046,0.1853900968,0.01046,73.45148913,
0.01048,2.012541568,0.01048,73.08605883,
0.0105,1.647111274,0.0105,73.45148913,
0.01052,1.647111274,0.01052,72.72062854,
0.01054,3.10883245,0.01054,73.45148913,
0.01056,1.647111274,0.01056,73.08605883,
0.01058,1.281680979,0.01058,73.08605883,
0.0106,2.377971862,0.0106,73.45148913,
0.01062,0.9162506852,0.01062,73.45148913,
0.01064,0.550820391,0.01064,72.72062854,
0.01066,1.647111274,0.01066,73.45148913,
0.01068,-0.5454704915,0.01068,73.08605883,
0.0107,-1.641761374,0.0107,73.45148913,
0.01072,-0.9109007857,0.01072,73.08605883,
0.01074,0.550820391,0.01074,73.45148913,
0.01076,0.550820391,0.01076,72.72062854,
0.01078,0.9162506852,0.01078,73.08605883,
0.0108,1.281680979,0.0108,73.81691942,
0.01082,1.647111274,0.01082,73.08605883,
0.01084,-0.9109007857,0.01084,72.72062854,
0.01086,0.550820391,0.01086,73.81691942,
0.01088,-2.007191668,0.01088,72.72062854,
0.0109,-1.27633108,0.0109,71.98976795,
0.01092,-2.372621962,0.01092,74.18234972,
0.01094,-3.468912845,0.01094,73.81691942,
0.01096,-2.738052257,0.01096,73.45148913,
0.01098,-0.5454704915,0.01098,73.45148913,
0.011,-0.5454704915,0.011,73.08605883,
0.01102,0.550820391,0.01102,73.81691942,
0.01104,0.550820391,0.01104,73.45148913,
0.01106,-0.5454704915,0.01106,73.45148913,
0.01108,-0.1800401973,0.01108,73.45148913,
0.0111,-0.5454704915,0.0111,73.08605883,
0.01112,-1.27633108,0.01112,73.45148913,
0.01114,-0.1800401973,0.01114,72.72062854,
0.01116,-0.9109007857,0.01116,73.81691942,
0.01118,-1.641761374,0.01118,73.08605883,
0.0112,0.1853900968,0.0112,73.08605883,
0.01122,-0.1800401973,0.01122,73.45148913,
0.01124,0.550820391,0.01124,73.08605883,
0.01126,1.647111274,0.01126,73.08605883,
0.01128,1.281680979,0.01128,74.18234972,
0.0113,0.9162506852,0.0113,73.08605883,
0.01132,2.012541568,0.01132,73.08605883,
0.01134,0.9162506852,0.01134,73.45148913,
0.01136,-0.5454704915,0.01136,73.45148913,
0.01138,0.550820391,0.01138,73.45148913,
0.0114,0.550820391,0.0114,73.08605883,
0.01142,-0.1800401973,0.01142,73.08605883,
0.01144,0.9162506852,0.01144,73.08605883,
0.01146,-0.1800401973,0.01146,73.81691942,
0.01148,0.550820391,0.01148,73.45148913,
0.0115,2.743402156,0.0115,72.72062854,
0.01152,2.012541568,0.01152,73.45148913,
0.01154,1.647111274,0.01154,73.08605883,
0.01156,1.647111274,0.01156,73.08605883,
0.01158,2.012541568,0.01158,73.45148913,
0.0116,1.281680979,0.0116,72.72062854,
0.01162,0.9162506852,0.01162,73.45148913,
0.01164,-0.1800401973,0.01164,73.45148913,
0.01166,-1.641761374,0.01166,73.08605883,
0.01168,-0.1800401973,0.01168,73.08605883,
0.0117,-0.1800401973,0.0117,73.45148913,
0.01172,-0.1800401973,0.01172,73.45148913,
0.01174,0.9162506852,0.01174,73.45148913,
0.01176,2.012541568,0.01176,72.72062854,
0.01178,-0.1800401973,0.01178,73.81691942,
0.0118,1.647111274,0.0118,73.45148913,
0.01182,-0.1800401973,0.01182,72.72062854,
0.01184,-1.27633108,0.01184,72.72062854,
0.01186,-0.1800401973,0.01186,72.72062854,
0.01188,-0.9109007857,0.01188,72.35519825,
0.0119,-3.468912845,0.0119,72.35519825,
0.01192,-3.103482551,0.01192,73.08605883,
0.01194,-2.372621962,0.01194,73.08605883,
0.01196,-1.641761374,0.01196,73.08605883,
0.01198,0.9162506852,0.01198,73.81691942,
0.012,1.281680979,0.012,72.72062854,
0.01202,0.550820391,0.01202,73.45148913,
0.01204,-0.1800401973,0.01204,72.72062854,
0.01206,0.1853900968,0.01206,73.08605883,
0.01208,-0.9109007857,0.01208,73.08605883,
0.0121,-0.1800401973,0.0121,73.08605883,
0.01212,-0.5454704915,0.01212,73.08605883,
0.01214,-0.9109007857,0.01214,73.45148913,
0.01216,-0.1800401973,0.01216,73.08605883,
0.01218,-0.1800401973,0.01218,73.45148913,
0.0122,-0.1800401973,0.0122,73.45148913,
0.01222,0.1853900968,0.01222,73.08605883,
0.01224,0.9162506852,0.01224,73.08605883,
0.01226,1.281680979,0.01226,72.72062854,
0.01228,0.9162506852,0.01228,72.72062854,
0.0123,0.9162506852,0.0123,73.45148913,
0.01232,0.550820391,0.01232,73.08605883,
0.01234,0.1853900968,0.01234,72.72062854,
0.01236,0.550820391,0.01236,73.45148913,
0.01238,-0.5454704915,0.01238,73.08605883,
0.0124,0.1853900968,0.0124,73.08605883,
0.01242,1.281680979,0.01242,73.81691942,
0.01244,0.550820391,0.01244,72.72062854,
0.01246,1.281680979,0.01246,73.08605883,
0.01248,2.012541568,0.01248,73.81691942,
0.0125,1.281680979,0.0125,73.45148913,
0.01252,0.9162506852,0.01252,72.72062854,
0.01254,2.743402156,0.01254,73.45148913,
0.01256,0.9162506852,0.01256,72.72062854,
0.01258,1.281680979,0.01258,72.72062854,
0.0126,0.550820391,0.0126,73.45148913,
0.01262,0.1853900968,0.01262,73.08605883,
0.01264,0.1853900968,0.01264,73.08605883,
0.01266,-0.5454704915,0.01266,73.45148913,
0.01268,-1.27633108,0.01268,73.08605883,
0.0127,0.9162506852,0.0127,73.08605883,
0.01272,1.647111274,0.01272,74.18234972,
0.01274,0.9162506852,0.01274,73.08605883,
0.01276,-0.1800401973,0.01276,73.08605883,
0.01278,-0.9109007857,0.01278,73.08605883,
0.0128,-1.641761374,0.0128,74.54778001,
0.01282,0.550820391,0.01282,74.54778001,
0.01284,-1.641761374,0.01284,73.45148913,
0.01286,-1.641761374,0.01286,73.45148913,
0.01288,-2.372621962,0.01288,74.18234972,
0.0129,-0.5454704915,0.0129,72.72062854,
0.01292,-0.9109007857,0.01292,73.45148913,
0.01294,-1.27633108,0.01294,72.35519825,
0.01296,0.1853900968,0.01296,73.81691942,
0.01298,-0.1800401973,0.01298,73.45148913,
0.013,1.647111274,0.013,73.08605883,
0.01302,-1.641761374,0.01302,73.81691942,
0.01304,-0.9109007857,0.01304,73.08605883,
0.01306,-0.1800401973,0.01306,72.72062854,
0.01308,-1.27633108,0.01308,73.08605883,
0.0131,-0.9109007857,0.0131,73.08605883,
0.01312,-0.1800401973,0.01312,73.08605883,
0.01314,0.1853900968,0.01314,73.81691942,
0.01316,-0.1800401973,0.01316,73.08605883,
0.01318,2.012541568,0.01318,73.08605883,
0.0132,1.281680979,0.0132,73.08605883,
0.01322,2.012541568,0.01322,73.08605883,
0.01324,1.281680979,0.01324,72.35519825,
0.01326,1.281680979,0.01326,73.08605883,
0.01328,-0.1800401973,0.01328,72.72062854,
0.0133,0.9162506852,0.0133,73.08605883,
0.01332,0.9162506852,0.01332,73.08605883,
0.01334,0.1853900968,0.01334,73.08605883,
0.01336,0.1853900968,0.01336,72.72062854,
0.01338,-0.1800401973,0.01338,73.45148913,
0.0134,-0.1800401973,0.0134,72.72062854,
0.01342,2.012541568,0.01342,73.08605883,
0.01344,1.647111274,0.01344,73.08605883,
0.01346,3.10883245,0.01346,73.08605883,
0.01348,2.743402156,0.01348,73.08605883,
0.0135,2.377971862,0.0135,73.08605883,
0.01352,1.281680979,0.01352,73.08605883,
0.01354,1.647111274,0.01354,73.08605883,
0.01356,2.012541568,0.01356,73.45148913,
0.01358,-0.1800401973,0.01358,73.08605883,
0.0136,0.9162506852,0.0136,73.08605883,
0.01362,-0.1800401973,0.01362,73.08605883,
0.01364,-1.641761374,0.01364,73.45148913,
0.01366,0.1853900968,0.01366,73.08605883,
0.01368,1.647111274,0.01368,73.45148913,
0.0137,0.550820391,0.0137,72.72062854,
0.01372,1.647111274,0.01372,73.08605883,
0.01374,1.281680979,0.01374,73.45148913,
0.01376,-1.641761374,0.01376,72.35519825,
0.01378,-2.372621962,0.01378,72.35519825,
0.0138,-0.5454704915,0.0138,73.81691942,
0.01382,-1.27633108,0.01382,73.45148913,
0.01384,-1.641761374,0.01384,74.54778001,
0.01386,-1.641761374,0.01386,73.08605883,
0.01388,0.9162506852,0.01388,73.08605883,
0.0139,-0.5454704915,0.0139,73.08605883,
0.01392,0.1853900968,0.01392,74.18234972,
0.01394,-0.1800401973,0.01394,73.45148913,
0.01396,0.550820391,0.01396,72.72062854,
0.01398,-1.27633108,0.01398,73.45148913,
0.014,-0.5454704915,0.014,72.72062854,
0.01402,-0.1800401973,0.01402,73.08605883,
0.01404,-0.9109007857,0.01404,73.08605883,
0.01406,-0.5454704915,0.01406,73.08605883,
0.01408,0.1853900968,0.01408,72.72062854,
0.0141,0.1853900968,0.0141,73.08605883,
0.01412,-0.5454704915,0.01412,73.45148913,
0.01414,0.550820391,0.01414,73.45148913,
0.01416,1.647111274,0.01416,73.08605883,
0.01418,0.550820391,0.01418,73.45148913,
0.0142,1.647111274,0.0142,73.08605883,
0.01422,2.012541568,0.01422,73.45148913,
0.01424,0.550820391,0.01424,73.08605883,
0.01426,2.012541568,0.01426,73.08605883,
0.01428,1.647111274,0.01428,73.08605883,
0.0143,0.1853900968,0.0143,73.45148913,
0.01432,1.281680979,0.01432,73.08605883,
0.01434,0.9162506852,0.01434,73.81691942,
0.01436,0.1853900968,0.01436,73.45148913,
0.01438,0.9162506852,0.01438,73.45148913,
0.0144,0.550820391,0.0144,73.08605883,
0.01442,1.281680979,0.01442,73.45148913,
0.01444,2.743402156,0.01444,73.45148913,
0.01446,2.377971862,0.01446,73.08605883,
0.01448,1.647111274,0.01448,73.45148913,
0.0145,3.10883245,0.0145,73.45148913,
0.01452,1.647111274,0.01452,73.81691942,
0.01454,0.550820391,0.01454,73.08605883,
0.01456,0.9162506852,0.01456,73.45148913,
0.01458,-0.1800401973,0.01458,73.45148913,
0.0146,-0.5454704915,0.0146,73.08605883,
0.01462,-0.1800401973,0.01462,73.45148913,
0.01464,-0.1800401973,0.01464,73.08605883,
0.01466,-1.27633108,0.01466,72.72062854,
0.01468,0.550820391,0.01468,73.08605883,
0.0147,1.281680979,0.0147,73.45148913,
0.01472,0.1853900968,0.01472,71.98976795,
0.01474,0.1853900968,0.01474,71.98976795,
0.01476,0.9162506852,0.01476,73.08605883,
0.01478,0.1853900968,0.01478,70.89347707,
0.0148,-4.199773433,0.0148,73.45148913,
0.01482,-3.834343139,0.01482,73.81691942,
0.01484,-3.103482551,0.01484,71.62433766,
0.01486,-3.103482551,0.01486,73.08605883,
0.01488,-3.103482551,0.01488,71.98976795,
0.0149,2.012541568,0.0149,73.08605883,
0.01492,0.1853900968,0.01492,72.72062854,
0.01494,0.1853900968,0.01494,73.08605883,
0.01496,-1.641761374,0.01496,73.08605883,
0.01498,1.281680979,0.01498,73.08605883,
0.015,-0.9109007857,0.015,73.08605883,
0.01502,-1.27633108,0.01502,72.72062854,
0.01504,-1.27633108,0.01504,72.72062854,
0.01506,-0.5454704915,0.01506,72.72062854,
0.01508,0.1853900968,0.01508,72.72062854,
0.0151,0.550820391,0.0151,72.72062854,
0.01512,0.1853900968,0.01512,73.08605883,
0.01514,2.012541568,0.01514,71.98976795,
0.01516,2.012541568,0.01516,72.72062854,
0.01518,1.647111274,0.01518,73.08605883,
0.0152,2.377971862,0.0152,72.35519825,
0.01522,1.281680979,0.01522,73.08605883,
0.01524,0.9162506852,0.01524,73.08605883,
0.01526,1.281680979,0.01526,72.72062854,
0.01528,0.9162506852,0.01528,73.08605883,
0.0153,0.1853900968,0.0153,73.08605883,
0.01532,0.1853900968,0.01532,72.72062854,
0.01534,1.281680979,0.01534,73.08605883,
0.01536,0.1853900968,0.01536,73.45148913,
0.01538,0.550820391,0.01538,72.35519825,
0.0154,1.281680979,0.0154,73.08605883,
0.01542,1.647111274,0.01542,73.08605883,
0.01544,2.743402156,0.01544,72.72062854,
0.01546,2.377971862,0.01546,72.72062854,
0.01548,2.012541568,0.01548,73.08605883,
0.0155,1.281680979,0.0155,72.72062854,
0.01552,2.012541568,0.01552,72.72062854,
0.01554,0.550820391,0.01554,73.08605883,
0.01556,-0.9109007857,0.01556,72.35519825,
0.01558,0.550820391,0.01558,73.08605883,
0.0156,0.9162506852,0.0156,73.08605883,
0.01562,-0.5454704915,0.01562,72.72062854,
0.01564,2.012541568,0.01564,72.72062854,
0.01566,2.377971862,0.01566,73.45148913,
0.01568,0.1853900968,0.01568,72.35519825,
0.0157,0.1853900968,0.0157,73.08605883,
0.01572,-2.007191668,0.01572,73.08605883,
0.01574,1.647111274,0.01574,72.35519825,
0.01576,-0.9109007857,0.01576,73.81691942,
0.01578,-0.1800401973,0.01578,73.81691942,
0.0158,-3.103482551,0.0158,72.35519825,
0.01582,-0.5454704915,0.01582,73.08605883,
0.01584,-1.641761374,0.01584,73.81691942,
0.01586,-1.641761374,0.01586,72.72062854,
0.01588,1.281680979,0.01588,73.08605883,
0.0159,1.281680979,0.0159,73.08605883,
0.01592,-0.1800401973,0.01592,72.72062854,
0.01594,0.1853900968,0.01594,73.08605883,
0.01596,0.550820391,0.01596,73.08605883,
0.01598,-0.9109007857,0.01598,72.72062854,
0.016,-0.9109007857,0.016,73.45148913,
0.01602,-0.5454704915,0.01602,72.72062854,
0.01604,-1.27633108,0.01604,72.72062854,
0.01606,0.550820391,0.01606,73.08605883,
0.01608,0.1853900968,0.01608,73.08605883,
0.0161,-0.1800401973,0.0161,72.72062854,
0.01612,1.281680979,0.01612,73.08605883,
0.01614,2.012541568,0.01614,73.08605883,
0.01616,1.647111274,0.01616,72.72062854,
0.01618,2.377971862,0.01618,72.72062854,
0.0162,0.550820391,0.0162,72.72062854,
0.01622,0.550820391,0.01622,73.08605883,
0.01624,1.281680979,0.01624,72.35519825,
0.01626,1.647111274,0.01626,73.45148913,
0.01628,0.550820391,0.01628,72.35519825,
0.0163,0.9162506852,0.0163,73.08605883,
0.01632,0.1853900968,0.01632,73.08605883,
0.01634,0.550820391,0.01634,72.72062854,
0.01636,1.281680979,0.01636,73.08605883,
0.01638,1.281680979,0.01638,73.08605883,
0.0164,2.743402156,0.0164,72.35519825,
0.01642,2.743402156,0.01642,73.08605883,
0.01644,0.9162506852,0.01644,73.08605883,
0.01646,2.012541568,0.01646,72.35519825,
0.01648,2.012541568,0.01648,72.72062854,
0.0165,0.1853900968,0.0165,72.72062854,
0.01652,0.1853900968,0.01652,72.72062854,
0.01654,-0.1800401973,0.01654,72.72062854,
0.01656,-0.9109007857,0.01656,73.08605883,
0.01658,-0.1800401973,0.01658,73.08605883,
0.0166,-0.9109007857,0.0166,73.08605883,
0.01662,1.281680979,0.01662,72.72062854,
0.01664,0.9162506852,0.01664,73.45148913,
0.01666,2.012541568,0.01666,73.45148913,
0.01668,0.550820391,0.01668,71.62433766,
0.0167,0.550820391,0.0167,74.54778001,
0.01672,-2.007191668,0.01672,73.08605883,
0.01674,-0.9109007857,0.01674,73.08605883,
0.01676,0.550820391,0.01676,73.08605883,
0.01678,-0.9109007857,0.01678,73.45148913,
0.0168,-3.468912845,0.0168,73.81691942,
0.01682,-0.1800401973,0.01682,74.18234972,
0.01684,-3.468912845,0.01684,73.45148913,
0.01686,-0.1800401973,0.01686,72.35519825,
0.01688,1.647111274,0.01688,73.08605883,
0.0169,-0.1800401973,0.0169,73.08605883,
0.01692,-0.1800401973,0.01692,72.72062854,
0.01694,-0.9109007857,0.01694,73.45148913,
0.01696,-0.5454704915,0.01696,73.08605883,
0.01698,-0.9109007857,0.01698,72.72062854,
0.017,-0.1800401973,0.017,73.08605883,
0.01702,-0.9109007857,0.01702,73.08605883,
0.01704,0.1853900968,0.01704,73.45148913,
0.01706,1.281680979,0.01706,73.45148913,
0.01708,1.281680979,0.01708,73.08605883,
0.0171,1.647111274,0.0171,73.08605883,
0.01712,1.281680979,0.01712,73.45148913,
0.01714,3.474262744,0.01714,73.08605883,
0.01716,0.550820391,0.01716,73.45148913,
0.01718,1.281680979,0.01718,72.72062854,
0.0172,1.281680979,0.0172,72.72062854,
0.01722,0.9162506852,0.01722,73.08605883,
0.01724,0.9162506852,0.01724,73.08605883,
0.01726,1.647111274,0.01726,73.45148913,
0.01728,-0.1800401973,0.01728,73.08605883,
0.0173,0.9162506852,0.0173,73.45148913,
0.01732,1.281680979,0.01732,73.08605883,
0.01734,1.281680979,0.01734,73.08605883,
0.01736,2.012541568,0.01736,72.72062854,
0.01738,2.012541568,0.01738,73.08605883,
0.0174,2.012541568,0.0174,73.08605883,
0.01742,2.012541568,0.01742,73.45148913,
0.01744,1.647111274,0.01744,72.72062854,
0.01746,1.281680979,0.01746,72.35519825,
0.01748,0.1853900968,0.01748,73.45148913,
0.0175,-1.27633108,0.0175,73.08605883,
0.01752,0.550820391,0.01752,73.08605883,
0.01754,-0.1800401973,0.01754,73.45148913,
0.01756,-0.1800401973,0.01756,72.35519825,
0.01758,0.1853900968,0.01758,72.72062854,
0.0176,0.9162506852,0.0176,73.45148913,
0.01762,2.377971862,0.01762,72.72062854,
0.01764,2.743402156,0.01764,73.08605883,
0.01766,-0.5454704915,0.01766,72.72062854,
0.01768,-1.27633108,0.01768,73.45148913,
0.0177,-2.372621962,0.0177,74.18234972,
0.01772,-2.738052257,0.01772,73.81691942,
0.01774,-1.27633108,0.01774,73.81691942,
0.01776,-2.007191668,0.01776,73.81691942,
0.01778,-2.372621962,0.01778,72.72062854,
0.0178,-3.103482551,0.0178,73.08605883,
0.01782,-0.9109007857,0.01782,71.98976795,
0.01784,0.9162506852,0.01784,73.08605883,
0.01786,-0.5454704915,0.01786,72.72062854,
0.01788,-0.1800401973,0.01788,73.08605883,
0.0179,0.9162506852,0.0179,72.72062854,
0.01792,-0.9109007857,0.01792,72.72062854,
0.01794,-0.5454704915,0.01794,72.72062854,
0.01796,-0.1800401973,0.01796,73.08605883,
0.01798,-0.9109007857,0.01798,72.72062854,
0.018,-0.1800401973,0.018,73.45148913,
0.01802,-0.5454704915,0.01802,72.35519825,
0.01804,-0.1800401973,0.01804,73.08605883,
0.01806,1.281680979,0.01806,72.72062854,
0.01808,0.1853900968,0.01808,73.45148913,
0.0181,0.9162506852,0.0181,72.35519825,
0.01812,1.647111274,0.01812,72.72062854,
0.01814,1.281680979,0.01814,73.08605883,
0.01816,0.550820391,0.01816,72.72062854,
0.01818,1.281680979,0.01818,73.08605883,
0.0182,1.647111274,0.0182,73.08605883,
0.01822,0.9162506852,0.01822,72.72062854,
0.01824,0.9162506852,0.01824,73.08605883,
0.01826,1.281680979,0.01826,73.08605883,
0.01828,0.1853900968,0.01828,72.35519825,
0.0183,0.550820391,0.0183,73.08605883,
0.01832,1.647111274,0.01832,73.45148913,
0.01834,1.281680979,0.01834,71.98976795,
0.01836,2.377971862,0.01836,73.08605883,
0.01838,2.012541568,0.01838,73.08605883,
0.0184,2.012541568,0.0184,72.72062854,
0.01842,2.012541568,0.01842,73.08605883,
0.01844,2.012541568,0.01844,73.08605883,
0.01846,-1.641761374,0.01846,72.35519825,
0.01848,0.1853900968,0.01848,73.08605883,
0.0185,-0.9109007857,0.0185,73.08605883,
0.01852,-0.9109007857,0.01852,72.35519825,
0.01854,0.1853900968,0.01854,72.72062854,
0.01856,0.550820391,0.01856,73.08605883,
0.01858,0.9162506852,0.01858,72.35519825,
0.0186,0.550820391,0.0186,72.35519825,
0.01862,2.743402156,0.01862,73.45148913,
0.01864,-0.9109007857,0.01864,71.98976795,
0.01866,0.550820391,0.01866,72.72062854,
0.01868,-2.372621962,0.01868,73.08605883,
0.0187,-1.27633108,0.0187,73.08605883,
0.01872,-1.641761374,0.01872,73.81691942,
0.01874,-0.5454704915,0.01874,74.18234972,
0.01876,-0.9109007857,0.01876,72.35519825,
0.01878,-2.372621962,0.01878,73.45148913,
0.0188,-0.9109007857,0.0188,73.08605883,
0.01882,-0.5454704915,0.01882,72.72062854,
0.01884,1.281680979,0.01884,72.72062854,
0.01886,-0.5454704915,0.01886,72.72062854,
0.01888,-0.9109007857,0.01888,71.98976795,
0.0189,0.1853900968,0.0189,73.08605883,
0.01892,-0.9109007857,0.01892,73.08605883,
0.01894,-0.9109007857,0.01894,72.35519825,
0.01896,-0.1800401973,0.01896,73.08605883,
0.01898,0.1853900968,0.01898,72.72062854,
0.019,0.550820391,0.019,72.72062854,
0.01902,1.281680979,0.01902,72.72062854,
0.01904,-0.1800401973,0.01904,73.08605883,
0.01906,0.9162506852,0.01906,72.72062854,
0.01908,1.647111274,0.01908,72.72062854,
0.0191,1.647111274,0.0191,72.72062854,
0.01912,1.647111274,0.01912,71.98976795,
0.01914,2.012541568,0.01914,73.08605883,
0.01916,1.647111274,0.01916,72.72062854,
0.01918,1.647111274,0.01918,73.08605883,
0.0192,0.550820391,0.0192,73.08605883,
0.01922,0.550820391,0.01922,73.08605883,
0.01924,0.550820391,0.01924,72.72062854,
0.01926,0.550820391,0.01926,73.08605883,
0.01928,2.012541568,0.01928,73.08605883,
0.0193,0.550820391,0.0193,72.72062854,
0.01932,2.012541568,0.01932,72.72062854,
0.01934,3.474262744,0.01934,73.45148913,
0.01936,0.550820391,0.01936,72.35519825,
0.01938,1.281680979,0.01938,72.72062854,
0.0194,0.9162506852,0.0194,73.45148913,
0.01942,0.9162506852,0.01942,73.08605883,
0.01944,0.550820391,0.01944,73.45148913,
0.01946,-0.5454704915,0.01946,73.08605883,
0.01948,-0.1800401973,0.01948,73.45148913,
0.0195,-0.1800401973,0.0195,72.72062854,
0.01952,0.1853900968,0.01952,72.72062854,
0.01954,0.9162506852,0.01954,73.45148913,
0.01956,-0.1800401973,0.01956,73.45148913,
0.01958,0.550820391,0.01958,72.72062854,
0.0196,0.1853900968,0.0196,72.35519825,
0.01962,-0.9109007857,0.01962,72.72062854,
0.01964,0.9162506852,0.01964,72.72062854,
0.01966,1.647111274,0.01966,74.91321031,
0.01968,-3.468912845,0.01968,72.72062854,
0.0197,-2.372621962,0.0197,72.72062854,
0.01972,-3.103482551,0.01972,73.81691942,
0.01974,-2.007191668,0.01974,73.45148913,
0.01976,-0.5454704915,0.01976,73.45148913,
0.01978,-0.1800401973,0.01978,74.54778001,
0.0198,-0.1800401973,0.0198,72.72062854,
0.01982,-0.1800401973,0.01982,72.35519825,
0.01984,1.647111274,0.01984,73.45148913,
0.01986,-2.007191668,0.01986,72.72062854,
0.01988,-0.9109007857,0.01988,72.72062854,
0.0199,-0.5454704915,0.0199,73.45148913,
0.01992,-0.5454704915,0.01992,73.08605883,
0.01994,-0.5454704915,0.01994,72.72062854,
0.01996,-0.1800401973,0.01996,73.45148913,
0.01998,-1.27633108,0.01998,73.08605883,
0.02,0.550820391,0.02,73.08605883,
0.02002,1.647111274,0.02002,73.08605883,
0.02004,1.281680979,0.02004,73.08605883,
0.02006,0.9162506852,0.02006,72.35519825,
0.02008,1.647111274,0.02008,73.08605883,
0.0201,0.9162506852,0.0201,72.72062854,
0.02012,0.550820391,0.02012,73.08605883,
0.02014,0.9162506852,0.02014,73.08605883,
0.02016,0.9162506852,0.02016,72.72062854,
0.02018,-0.1800401973,0.02018,72.72062854,
0.0202,0.9162506852,0.0202,73.08605883,
0.02022,-0.5454704915,0.02022,73.08605883,
0.02024,0.9162506852,0.02024,72.72062854,
0.02026,1.281680979,0.02026,73.81691942,
0.02028,1.647111274,0.02028,73.08605883,
0.0203,1.281680979,0.0203,72.72062854,
0.02032,1.647111274,0.02032,73.45148913,
0.02034,1.281680979,0.02034,73.08605883,
0.02036,1.281680979,0.02036,72.72062854,
0.02038,1.647111274,0.02038,73.08605883,
0.0204,1.281680979,0.0204,72.72062854,
0.02042,1.281680979,0.02042,72.35519825,
0.02044,-0.1800401973,0.02044,73.45148913,
0.02046,-0.9109007857,0.02046,72.72062854,
0.02048,0.1853900968,0.02048,73.08605883,
0.0205,0.550820391,0.0205,73.45148913,
0.02052,0.9162506852,0.02052,72.72062854,
0.02054,0.550820391,0.02054,72.72062854,
0.02056,0.1853900968,0.02056,73.81691942,
0.02058,-0.5454704915,0.02058,73.08605883,
0.0206,-0.9109007857,0.0206,73.08605883,
0.02062,0.9162506852,0.02062,73.81691942,
0.02064,-0.9109007857,0.02064,73.08605883,
0.02066,-0.9109007857,0.02066,72.35519825,
0.02068,-2.738052257,0.02068,73.81691942,
0.0207,-4.199773433,0.0207,72.35519825,
0.02072,-2.372621962,0.02072,73.81691942,
0.02074,-1.641761374,0.02074,73.45148913,
0.02076,-3.103482551,0.02076,73.08605883,
0.02078,0.1853900968,0.02078,73.45148913,
0.0208,0.1853900968,0.0208,73.45148913,
0.02082,-0.1800401973,0.02082,73.45148913,
0.02084,-0.1800401973,0.02084,72.72062854,
0.02086,-0.5454704915,0.02086,73.45148913,
0.02088,-1.641761374,0.02088,72.72062854,
0.0209,-0.9109007857,0.0209,72.35519825,
0.02092,-0.9109007857,0.02092,73.45148913,
0.02094,-0.1800401973,0.02094,72.72062854,
0.02096,-0.5454704915,0.02096,72.72062854,
0.02098,1.281680979,0.02098,73.08605883,
0.021,0.1853900968,0.021,72.72062854,
0.02102,2.012541568,0.02102,73.08605883,
0.02104,1.647111274,0.02104,73.45148913,
0.02106,2.012541568,0.02106,72.72062854,
0.02108,1.647111274,0.02108,73.08605883,
0.0211,0.9162506852,0.0211,73.45148913,
0.02112,-0.1800401973,0.02112,73.08605883,
0.02114,0.550820391,0.02114,72.72062854,
0.02116,-0.1800401973,0.02116,73.45148913,
0.02118,0.9162506852,0.02118,73.08605883,
0.0212,0.1853900968,0.0212,72.72062854,
0.02122,0.550820391,0.02122,73.81691942,
0.02124,-0.5454704915,0.02124,73.45148913,
0.02126,0.550820391,0.02126,72.72062854,
0.02128,3.474262744,0.02128,73.45148913,
0.0213,0.9162506852,0.0213,72.72062854,
0.02132,1.281680979,0.02132,73.81691942,
0.02134,1.281680979,0.02134,72.72062854,
0.02136,2.012541568,0.02136,73.08605883,
0.02138,0.9162506852,0.02138,73.08605883,
0.0214,0.1853900968,0.0214,73.08605883,
0.02142,-0.1800401973,0.02142,73.08605883,
0.02144,-0.5454704915,0.02144,73.08605883,
0.02146,-0.1800401973,0.02146,72.72062854,
0.02148,0.9162506852,0.02148,72.72062854,
0.0215,0.550820391,0.0215,73.45148913,
0.02152,0.1853900968,0.02152,73.08605883,
0.02154,2.377971862,0.02154,73.08605883,
0.02156,0.550820391,0.02156,73.08605883,
0.02158,-1.641761374,0.02158,72.35519825,
0.0216,-2.372621962,0.0216,71.25890736,
0.02162,-2.738052257,0.02162,74.18234972,
0.02164,-3.103482551,0.02164,72.72062854,
0.02166,-3.103482551,0.02166,73.08605883,
0.02168,-2.007191668,0.02168,73.81691942,
0.0217,-2.372621962,0.0217,73.45148913,
0.02172,1.647111274,0.02172,72.72062854,
0.02174,-2.007191668,0.02174,73.45148913,
0.02176,0.1853900968,0.02176,72.72062854,
0.02178,1.281680979,0.02178,72.72062854,
0.0218,0.1853900968,0.0218,73.45148913,
0.02182,-1.27633108,0.02182,73.08605883,
0.02184,0.1853900968,0.02184,72.72062854,
0.02186,-1.27633108,0.02186,73.08605883,
0.02188,-2.007191668,0.02188,72.72062854,
0.0219,-0.5454704915,0.0219,72.72062854,
0.02192,0.1853900968,0.02192,73.08605883,
0.02194,-0.5454704915,0.02194,72.35519825,
0.02196,0.1853900968,0.02196,73.08605883,
0.02198,2.012541568,0.02198,73.08605883,
0.022,1.647111274,0.022,73.81691942,
0.02202,2.377971862,0.02202,73.45148913,
0.02204,0.9162506852,0.02204,73.81691942,
0.02206,0.550820391,0.02206,72.72062854,
0.02208,0.550820391,0.02208,73.08605883,
0.0221,0.9162506852,0.0221,72.35519825,
0.02212,1.647111274,0.02212,72.72062854,
0.02214,1.281680979,0.02214,73.45148913,
0.02216,0.1853900968,0.02216,73.08605883,
0.02218,0.9162506852,0.02218,73.45148913,
0.0222,0.550820391,0.0222,72.72062854,
0.02222,2.012541568,0.02222,73.08605883,
0.02224,2.012541568,0.02224,73.08605883,
0.02226,2.377971862,0.02226,73.08605883,
0.02228,1.281680979,0.02228,73.45148913,
0.0223,2.012541568,0.0223,73.45148913,
0.02232,1.281680979,0.02232,73.08605883,
0.02234,0.550820391,0.02234,73.08605883,
0.02236,2.012541568,0.02236,73.08605883,
0.02238,0.9162506852,0.02238,73.45148913,
0.0224,1.281680979,0.0224,72.72062854,
0.02242,-1.27633108,0.02242,72.72062854,
0.02244,0.1853900968,0.02244,72.35519825,
0.02246,0.9162506852,0.02246,72.35519825,
0.02248,0.9162506852,0.02248,72.72062854,
0.0225,1.281680979,0.0225,72.35519825,
0.02252,1.281680979,0.02252,73.08605883,
0.02254,-1.27633108,0.02254,72.35519825,
0.02256,0.550820391,0.02256,73.45148913,
0.02258,-2.738052257,0.02258,73.08605883,
0.0226,-1.641761374,0.0226,72.72062854,
0.02262,0.550820391,0.02262,73.81691942,
0.02264,-3.103482551,0.02264,71.98976795,
0.02266,-2.372621962,0.02266,71.62433766,
0.02268,-1.641761374,0.02268,72.72062854,
0.0227,-0.5454704915,0.0227,72.35519825,
0.02272,0.550820391,0.02272,73.08605883,
0.02274,0.550820391,0.02274,72.35519825,
0.02276,0.9162506852,0.02276,72.72062854,
0.02278,1.281680979,0.02278,73.08605883,
0.0228,-0.5454704915,0.0228,72.35519825,
0.02282,-0.1800401973,0.02282,73.08605883,
0.02284,-0.9109007857,0.02284,72.72062854,
0.02286,-1.27633108,0.02286,71.98976795,
0.02288,0.550820391,0.02288,73.45148913,
0.0229,-0.9109007857,0.0229,72.72062854,
0.02292,0.550820391,0.02292,72.35519825,
0.02294,0.1853900968,0.02294,73.08605883,
0.02296,0.9162506852,0.02296,73.08605883,
0.02298,1.281680979,0.02298,72.35519825,
0.023,2.377971862,0.023,72.72062854,
0.02302,1.647111274,0.02302,72.72062854,
0.02304,0.1853900968,0.02304,72.35519825,
0.02306,0.9162506852,0.02306,73.08605883,
0.02308,0.550820391,0.02308,73.45148913,
0.0231,0.9162506852,0.0231,72.72062854,
0.02312,0.550820391,0.02312,72.35519825,
0.02314,-0.9109007857,0.02314,73.08605883,
0.02316,0.550820391,0.02316,72.72062854,
0.02318,1.281680979,0.02318,72.72062854,
0.0232,2.377971862,0.0232,73.08605883,
0.02322,2.012541568,0.02322,72.72062854,
0.02324,2.012541568,0.02324,72.72062854,
0.02326,1.647111274,0.02326,73.08605883,
0.02328,1.647111274,0.02328,72.72062854,
0.0233,2.012541568,0.0233,72.72062854,
0.02332,1.281680979,0.02332,73.08605883,
0.02334,0.550820391,0.02334,72.72062854,
0.02336,0.9162506852,0.02336,73.08605883,
0.02338,0.1853900968,0.02338,73.08605883,
0.0234,-0.5454704915,0.0234,72.35519825,
0.02342,-0.1800401973,0.02342,73.08605883,
0.02344,2.012541568,0.02344,72.72062854,
0.02346,2.377971862,0.02346,73.08605883,
0.02348,1.281680979,0.02348,73.08605883,
0.0235,1.647111274,0.0235,73.45148913,
0.02352,0.9162506852,0.02352,72.72062854,
0.02354,-0.5454704915,0.02354,72.35519825,
0.02356,-1.27633108,0.02356,71.25890736,
0.02358,0.1853900968,0.02358,73.08605883,
0.0236,0.550820391,0.0236,72.35519825,
0.02362,-3.468912845,0.02362,73.08605883,
0.02364,-3.103482551,0.02364,73.08605883,
0.02366,-1.641761374,0.02366,72.35519825,
0.02368,-1.27633108,0.02368,73.08605883,
0.0237,-1.27633108,0.0237,73.08605883,
0.02372,0.1853900968,0.02372,73.45148913,
0.02374,-0.9109007857,0.02374,73.08605883,
0.02376,1.281680979,0.02376,72.35519825,
0.02378,-0.5454704915,0.02378,72.72062854,
0.0238,-0.9109007857,0.0238,73.08605883,
0.02382,-1.27633108,0.02382,72.35519825,
0.02384,-0.1800401973,0.02384,73.08605883,
0.02386,-0.1800401973,0.02386,73.08605883,
0.02388,0.1853900968,0.02388,72.72062854,
0.0239,1.281680979,0.0239,73.08605883,
0.02392,0.9162506852,0.02392,72.72062854,
0.02394,0.9162506852,0.02394,72.35519825,
0.02396,0.9162506852,0.02396,72.72062854,
0.02398,1.647111274,0.02398,72.72062854,
0.024,1.281680979,0.024,72.72062854,
0.02402,0.550820391,0.02402,73.08605883,
0.02404,0.1853900968,0.02404,73.08605883,
0.02406,0.9162506852,0.02406,72.35519825,
0.02408,0.9162506852,0.02408,72.72062854,
0.0241,1.281680979,0.0241,73.45148913,
0.02412,0.1853900968,0.02412,72.72062854,
0.02414,1.647111274,0.02414,72.72062854,
0.02416,1.647111274,0.02416,72.72062854,
0.02418,0.9162506852,0.02418,72.35519825,
0.0242,2.377971862,0.0242,72.72062854,
0.02422,2.012541568,0.02422,73.08605883,
0.02424,2.743402156,0.02424,72.35519825,
0.02426,2.012541568,0.02426,72.72062854,
0.02428,0.550820391,0.02428,72.72062854,
0.0243,1.281680979,0.0243,72.72062854,
0.02432,0.9162506852,0.02432,72.72062854,
0.02434,-0.5454704915,0.02434,72.35519825,
0.02436,-0.9109007857,0.02436,72.72062854,
0.02438,-0.1800401973,0.02438,72.72062854,
0.0244,0.550820391,0.0244,72.72062854,
0.02442,1.647111274,0.02442,71.98976795,
0.02444,1.647111274,0.02444,72.72062854,
0.02446,1.281680979,0.02446,73.08605883,
0.02448,0.9162506852,0.02448,72.72062854,
0.0245,-0.5454704915,0.0245,72.35519825,
0.02452,-0.5454704915,0.02452,72.72062854,
0.02454,0.1853900968,0.02454,73.45148913,
0.02456,-1.27633108,0.02456,71.25890736,
0.02458,-3.103482551,0.02458,73.08605883,
0.0246,-3.103482551,0.0246,72.72062854,
0.02462,0.550820391,0.02462,72.35519825,
0.02464,2.012541568,0.02464,72.72062854,
0.02466,-0.9109007857,0.02466,72.35519825,
0.02468,-0.5454704915,0.02468,73.08605883,
0.0247,1.281680979,0.0247,72.72062854,
0.02472,1.647111274,0.02472,72.72062854,
0.02474,0.1853900968,0.02474,73.08605883,
0.02476,-0.9109007857,0.02476,73.08605883,
0.02478,-0.5454704915,0.02478,72.35519825,
0.0248,0.550820391,0.0248,72.72062854,
0.02482,-0.1800401973,0.02482,72.72062854,
0.02484,-0.1800401973,0.02484,72.35519825,
0.02486,0.550820391,0.02486,73.08605883,
0.02488,-0.1800401973,0.02488,73.08605883,
0.0249,1.281680979,0.0249,72.35519825,
0.02492,0.9162506852,0.02492,73.08605883,
0.02494,2.012541568,0.02494,72.72062854,
0.02496,2.012541568,0.02496,72.72062854,
0.02498,1.647111274,0.02498,73.08605883,
0.025,1.647111274,0.025,72.72062854,
0.02502,0.550820391,0.02502,72.35519825,
0.02504,0.9162506852,0.02504,73.45148913,
0.02506,-0.1800401973,0.02506,72.72062854,
0.02508,0.9162506852,0.02508,72.72062854,
0.0251,1.281680979,0.0251,72.72062854,
0.02512,0.9162506852,0.02512,72.72062854,
0.02514,0.9162506852,0.02514,73.08605883,
0.02516,2.012541568,0.02516,73.45148913,
0.02518,1.647111274,0.02518,73.45148913,
0.0252,2.377971862,0.0252,72.72062854,
0.02522,2.743402156,0.02522,73.45148913,
0.02524,1.281680979,0.02524,72.72062854,
0.02526,1.281680979,0.02526,72.35519825,
0.02528,0.1853900968,0.02528,73.45148913,
0.0253,0.1853900968,0.0253,72.72062854,
0.02532,0.1853900968,0.02532,72.35519825,
0.02534,-1.641761374,0.02534,73.45148913,
0.02536,-0.9109007857,0.02536,73.08605883,
0.02538,-0.1800401973,0.02538,73.08605883,
0.0254,1.281680979,0.0254,73.45148913,
0.02542,1.281680979,0.02542,73.45148913,
0.02544,2.012541568,0.02544,72.35519825,
0.02546,2.012541568,0.02546,73.08605883,
0.02548,-0.9109007857,0.02548,73.45148913,
0.0255,0.9162506852,0.0255,73.45148913,
0.02552,-0.9109007857,0.02552,71.62433766,
0.02554,-0.1800401973,0.02554,71.25890736,
0.02556,-2.372621962,0.02556,72.35519825,
0.02558,1.281680979,0.02558,74.54778001,
0.0256,-1.27633108,0.0256,72.35519825,
0.02562,-2.007191668,0.02562,72.72062854,
0.02564,1.647111274,0.02564,73.08605883,
0.02566,1.281680979,0.02566,73.08605883,
0.02568,0.550820391,0.02568,72.72062854,
0.0257,0.9162506852,0.0257,73.45148913,
0.02572,-0.9109007857,0.02572,72.72062854,
0.02574,0.1853900968,0.02574,73.08605883,
0.02576,-0.1800401973,0.02576,73.08605883,
0.02578,-1.641761374,0.02578,73.45148913,
0.0258,-1.641761374,0.0258,72.72062854,
0.02582,-0.1800401973,0.02582,73.45148913,
0.02584,-0.9109007857,0.02584,72.72062854,
0.02586,-0.5454704915,0.02586,72.72062854,
0.02588,1.281680979,0.02588,73.08605883,
0.0259,1.647111274,0.0259,72.72062854,
0.02592,2.012541568,0.02592,72.72062854,
0.02594,0.550820391,0.02594,73.45148913,
0.02596,2.012541568,0.02596,72.72062854,
0.02598,0.9162506852,0.02598,72.35519825,
0.026,0.550820391,0.026,73.08605883,
0.02602,0.550820391,0.02602,72.72062854,
0.02604,-0.1800401973,0.02604,72.72062854,
0.02606,0.550820391,0.02606,73.81691942,
0.02608,0.550820391,0.02608,73.08605883,
0.0261,0.550820391,0.0261,72.72062854,
0.02612,0.550820391,0.02612,73.08605883,
0.02614,1.647111274,0.02614,73.08605883,
0.02616,1.647111274,0.02616,72.35519825,
0.02618,1.281680979,0.02618,72.72062854,
0.0262,1.647111274,0.0262,72.72062854,
0.02622,1.281680979,0.02622,73.45148913,
0.02624,0.9162506852,0.02624,73.45148913,
0.02626,-0.1800401973,0.02626,72.72062854,
0.02628,0.550820391,0.02628,72.72062854,
0.0263,-0.5454704915,0.0263,73.45148913,
0.02632,-0.5454704915,0.02632,72.72062854,
0.02634,0.1853900968,0.02634,72.72062854,
0.02636,-0.1800401973,0.02636,73.08605883,
0.02638,-0.1800401973,0.02638,72.72062854,
0.0264,0.1853900968,0.0264,73.08605883,
0.02642,2.743402156,0.02642,73.81691942,
0.02644,-1.27633108,0.02644,72.72062854,
0.02646,0.1853900968,0.02646,71.98976795,
0.02648,-0.9109007857,0.02648,73.81691942,
0.0265,-2.007191668,0.0265,71.62433766,
0.02652,-2.372621962,0.02652,73.45148913,
0.02654,-1.27633108,0.02654,74.54778001,
0.02656,-0.5454704915,0.02656,72.72062854,
0.02658,-2.738052257,0.02658,72.72062854,
0.0266,-0.5454704915,0.0266,72.72062854,
0.02662,-0.9109007857,0.02662,72.35519825,
0.02664,1.647111274,0.02664,72.35519825,
0.02666,0.9162506852,0.02666,73.08605883,
0.02668,0.550820391,0.02668,73.45148913,
0.0267,0.1853900968,0.0267,72.35519825,
0.02672,-0.1800401973,0.02672,73.81691942,
0.02674,-0.9109007857,0.02674,72.72062854,
0.02676,-0.1800401973,0.02676,72.35519825,
0.02678,-0.9109007857,0.02678,73.45148913,
0.0268,-1.27633108,0.0268,73.08605883,
0.02682,-1.27633108,0.02682,73.45148913,
0.02684,-0.1800401973,0.02684,73.81691942,
0.02686,0.1853900968,0.02686,72.72062854,
0.02688,1.647111274,0.02688,72.72062854,
0.0269,1.647111274,0.0269,73.45148913,
0.02692,1.281680979,0.02692,72.72062854,
0.02694,1.281680979,0.02694,72.72062854,
0.02696,1.647111274,0.02696,73.45148913,
0.02698,-0.5454704915,0.02698,72.35519825,
0.027,-0.1800401973,0.027,73.08605883,
0.02702,-0.5454704915,0.02702,73.45148913,
0.02704,1.281680979,0.02704,73.08605883,
0.02706,0.9162506852,0.02706,73.45148913,
0.02708,-0.1800401973,0.02708,73.45148913,
0.0271,1.281680979,0.0271,72.72062854,
0.02712,1.281680979,0.02712,73.08605883,
0.02714,0.550820391,0.02714,73.45148913,
0.02716,2.012541568,0.02716,72.72062854,
0.02718,2.012541568,0.02718,73.45148913,
0.0272,1.281680979,0.0272,73.08605883,
0.02722,1.281680979,0.02722,73.08605883,
0.02724,0.550820391,0.02724,73.08605883,
0.02726,0.550820391,0.02726,73.08605883,
0.02728,0.9162506852,0.02728,73.08605883,
0.0273,-0.1800401973,0.0273,73.08605883,
0.02732,0.9162506852,0.02732,73.08605883,
0.02734,0.550820391,0.02734,73.08605883,
0.02736,1.647111274,0.02736,73.45148913,
0.02738,1.281680979,0.02738,73.45148913,
0.0274,3.474262744,0.0274,72.72062854,
0.02742,0.550820391,0.02742,73.45148913,
0.02744,-0.9109007857,0.02744,73.08605883,
0.02746,0.1853900968,0.02746,73.81691942,
0.02748,-1.27633108,0.02748,73.45148913,
0.0275,-0.9109007857,0.0275,73.45148913,
0.02752,-1.27633108,0.02752,72.72062854,
0.02754,-2.738052257,0.02754,73.08605883,
0.02756,-2.007191668,0.02756,73.45148913,
0.02758,-0.5454704915,0.02758,73.81691942,
0.0276,1.647111274,0.0276,73.45148913,
0.02762,1.281680979,0.02762,73.08605883,
0.02764,0.1853900968,0.02764,73.45148913,
0.02766,-0.1800401973,0.02766,73.08605883,
0.02768,-0.1800401973,0.02768,72.72062854,
0.0277,-0.1800401973,0.0277,73.45148913,
0.02772,-1.27633108,0.02772,72.72062854,
0.02774,-0.9109007857,0.02774,72.72062854,
0.02776,-1.641761374,0.02776,73.81691942,
0.02778,0.1853900968,0.02778,73.08605883,
0.0278,-0.5454704915,0.0278,72.35519825,
0.02782,0.1853900968,0.02782,73.08605883,
0.02784,0.550820391,0.02784,73.08605883,
0.02786,1.647111274,0.02786,72.72062854,
0.02788,1.647111274,0.02788,73.45148913,
0.0279,0.550820391,0.0279,73.45148913,
0.02792,0.550820391,0.02792,73.08605883,
0.02794,0.550820391,0.02794,73.45148913,
0.02796,0.550820391,0.02796,72.72062854,
0.02798,0.1853900968,0.02798,72.72062854,
0.028,0.9162506852,0.028,72.35519825,
0.02802,0.550820391,0.02802,72.72062854,
0.02804,0.550820391,0.02804,73.08605883,
0.02806,0.550820391,0.02806,72.72062854,
0.02808,0.9162506852,0.02808,73.08605883,
0.0281,2.012541568,0.0281,73.45148913,
0.02812,2.012541568,0.02812,73.08605883,
0.02814,1.647111274,0.02814,72.35519825,
0.02816,2.377971862,0.02816,73.45148913,
0.02818,0.9162506852,0.02818,72.72062854,
0.0282,0.9162506852,0.0282,72.72062854,
0.02822,0.550820391,0.02822,73.45148913,
0.02824,0.550820391,0.02824,72.72062854,
0.02826,-0.5454704915,0.02826,72.72062854,
0.02828,-0.1800401973,0.02828,73.08605883,
0.0283,-0.5454704915,0.0283,73.08605883,
0.02832,0.9162506852,0.02832,72.72062854,
0.02834,0.9162506852,0.02834,73.81691942,
0.02836,0.1853900968,0.02836,73.45148913,
0.02838,2.012541568,0.02838,73.08605883,
0.0284,-0.9109007857,0.0284,74.18234972,
0.02842,-1.641761374,0.02842,71.98976795,
0.02844,0.550820391,0.02844,72.35519825,
0.02846,-1.27633108,0.02846,72.35519825,
0.02848,-2.372621962,0.02848,72.35519825,
0.0285,-2.738052257,0.0285,71.62433766,
0.02852,-2.738052257,0.02852,73.81691942,
0.02854,-4.199773433,0.02854,72.35519825,
0.02856,-0.5454704915,0.02856,72.72062854,
0.02858,0.550820391,0.02858,74.18234972,
0.0286,-0.1800401973,0.0286,73.08605883,
0.02862,0.1853900968,0.02862,72.72062854,
0.02864,0.1853900968,0.02864,73.45148913,
0.02866,-2.007191668,0.02866,73.45148913,
0.02868,-1.641761374,0.02868,72.35519825,
0.0287,-0.5454704915,0.0287,73.45148913,
0.02872,-1.641761374,0.02872,72.72062854,
0.02874,-0.9109007857,0.02874,72.72062854,
0.02876,-0.1800401973,0.02876,72.72062854,
0.02878,-0.5454704915,0.02878,72.72062854,
0.0288,0.9162506852,0.0288,73.08605883,
0.02882,1.281680979,0.02882,73.08605883,
0.02884,1.281680979,0.02884,72.35519825,
0.02886,1.647111274,0.02886,72.72062854,
0.02888,2.012541568,0.02888,73.45148913,
0.0289,0.9162506852,0.0289,72.72062854,
0.02892,0.9162506852,0.02892,72.72062854,
0.02894,-0.1800401973,0.02894,73.08605883,
0.02896,0.550820391,0.02896,72.35519825,
0.02898,0.550820391,0.02898,72.72062854,
0.029,0.550820391,0.029,73.08605883,
0.02902,-0.1800401973,0.02902,72.72062854,
0.02904,-0.5454704915,0.02904,72.72062854,
0.02906,0.9162506852,0.02906,73.45148913,
0.02908,1.647111274,0.02908,73.08605883,
0.0291,2.377971862,0.0291,72.35519825,
0.02912,2.377971862,0.02912,73.45148913,
0.02914,1.647111274,0.02914,73.08605883,
0.02916,1.281680979,0.02916,72.35519825,
0.02918,0.550820391,0.02918,73.45148913,
0.0292,0.9162506852,0.0292,72.35519825,
0.02922,0.550820391,0.02922,73.08605883,
0.02924,0.550820391,0.02924,73.45148913,
0.02926,-1.27633108,0.02926,72.72062854,
0.02928,0.1853900968,0.02928,72.35519825,
0.0293,1.281680979,0.0293,73.45148913,
0.02932,0.9162506852,0.02932,73.45148913,
0.02934,1.281680979,0.02934,72.72062854,
0.02936,0.550820391,0.02936,73.08605883,
0.02938,0.1853900968,0.02938,71.62433766,
0.0294,-3.103482551,0.0294,72.72062854,
0.02942,2.377971862,0.02942,73.08605883,
0.02944,-0.9109007857,0.02944,70.89347707,
0.02946,-2.007191668,0.02946,73.45148913,
0.02948,-0.5454704915,0.02948,72.72062854,
0.0295,-3.103482551,0.0295,72.72062854,
0.02952,-1.27633108,0.02952,72.72062854,
0.02954,0.550820391,0.02954,73.45148913,
0.02956,-2.372621962,0.02956,73.08605883,
0.02958,0.550820391,0.02958,73.08605883,
0.0296,-0.1800401973,0.0296,73.45148913,
0.02962,-2.007191668,0.02962,73.08605883,
0.02964,-0.1800401973,0.02964,72.72062854,
0.02966,-0.9109007857,0.02966,73.81691942,
0.02968,-1.641761374,0.02968,72.72062854,
0.0297,-1.27633108,0.0297,72.72062854,
0.02972,0.550820391,0.02972,73.08605883,
0.02974,-0.9109007857,0.02974,73.08605883,
0.02976,-0.9109007857,0.02976,72.72062854,
0.02978,1.281680979,0.02978,73.45148913,
0.0298,-0.1800401973,0.0298,72.72062854,
0.02982,0.9162506852,0.02982,72.72062854,
0.02984,1.281680979,0.02984,73.45148913,
0.02986,0.550820391,0.02986,73.08605883,
0.02988,1.647111274,0.02988,72.72062854,
0.0299,0.550820391,0.0299,73.08605883,
0.02992,-0.5454704915,0.02992,73.08605883,
0.02994,1.281680979,0.02994,72.72062854,
0.02996,0.9162506852,0.02996,74.18234972,
0.02998,0.550820391,0.02998,73.08605883,
0.03,1.281680979,0.03,73.08605883,
0.03002,0.9162506852,0.03002,73.81691942,
0.03004,1.281680979,0.03004,72.72062854,
0.03006,1.647111274,0.03006,72.72062854,
0.03008,2.377971862,0.03008,73.81691942,
0.0301,0.9162506852,0.0301,72.72062854,
0.03012,2.377971862,0.03012,72.72062854,
0.03014,1.647111274,0.03014,73.45148913,
0.03016,0.550820391,0.03016,73.08605883,
0.03018,0.550820391,0.03018,72.72062854,
0.0302,-0.5454704915,0.0302,73.08605883,
0.03022,-0.1800401973,0.03022,73.08605883,
0.03024,0.1853900968,0.03024,72.72062854,
0.03026,-0.1800401973,0.03026,73.81691942,
0.03028,0.550820391,0.03028,73.08605883,
0.0303,0.550820391,0.0303,72.72062854,
0.03032,0.550820391,0.03032,74.18234972,
0.03034,0.9162506852,0.03034,72.72062854,
0.03036,1.647111274,0.03036,73.81691942,
0.03038,-1.641761374,0.03038,73.08605883,
0.0304,-0.9109007857,0.0304,73.45148913,
0.03042,2.743402156,0.03042,73.08605883,
0.03044,1.281680979,0.03044,73.45148913,
0.03046,-2.738052257,0.03046,73.81691942,
0.03048,1.281680979,0.03048,71.62433766,
0.0305,-1.27633108,0.0305,73.45148913,
0.03052,-2.007191668,0.03052,73.81691942,
0.03054,0.1853900968,0.03054,72.72062854,
0.03056,0.9162506852,0.03056,72.72062854,
0.03058,0.1853900968,0.03058,73.08605883,
0.0306,0.550820391,0.0306,72.72062854,
0.03062,-0.9109007857,0.03062,73.08605883,
0.03064,-0.9109007857,0.03064,73.08605883,
0.03066,-0.1800401973,0.03066,72.35519825,
0.03068,-0.5454704915,0.03068,73.45148913,
0.0307,-0.1800401973,0.0307,73.08605883,
0.03072,0.9162506852,0.03072,72.72062854,
0.03074,0.550820391,0.03074,73.08605883,
0.03076,0.1853900968,0.03076,73.45148913,
0.03078,1.281680979,0.03078,73.08605883,
0.0308,1.647111274,0.0308,72.72062854,
0.03082,1.647111274,0.03082,73.08605883,
0.03084,1.647111274,0.03084,73.08605883,
0.03086,0.550820391,0.03086,73.08605883,
0.03088,0.9162506852,0.03088,73.08605883,
0.0309,1.281680979,0.0309,72.35519825,
0.03092,1.281680979,0.03092,73.08605883,
0.03094,0.1853900968,0.03094,73.45148913,
0.03096,1.647111274,0.03096,72.72062854,
0.03098,0.9162506852,0.03098,73.45148913,
0.031,0.9162506852,0.031,72.72062854,
0.03102,0.9162506852,0.03102,73.08605883,
0.03104,2.377971862,0.03104,73.08605883,
0.03106,1.647111274,0.03106,73.08605883,
0.03108,1.281680979,0.03108,72.72062854,
0.0311,2.377971862,0.0311,73.81691942,
0.03112,1.647111274,0.03112,73.08605883,
0.03114,0.9162506852,0.03114,73.08605883,
0.03116,0.1853900968,0.03116,73.08605883,
0.03118,-0.1800401973,0.03118,73.45148913,
0.0312,-0.1800401973,0.0312,72.72062854,
0.03122,0.9162506852,0.03122,73.45148913,
0.03124,0.1853900968,0.03124,72.35519825,
0.03126,0.1853900968,0.03126,72.35519825,
0.03128,2.377971862,0.03128,73.45148913,
0.0313,-0.1800401973,0.0313,72.72062854,
0.03132,0.550820391,0.03132,73.08605883,
0.03134,1.281680979,0.03134,73.45148913,
0.03136,1.281680979,0.03136,72.72062854,
0.03138,-2.372621962,0.03138,71.98976795,
0.0314,0.1853900968,0.0314,73.08605883,
0.03142,-0.9109007857,0.03142,72.35519825,
0.03144,-3.103482551,0.03144,72.72062854,
0.03146,-1.27633108,0.03146,72.72062854,
0.03148,-0.1800401973,0.03148,73.45148913,
0.0315,-0.5454704915,0.0315,73.45148913,
0.03152,-0.5454704915,0.03152,73.45148913,
0.03154,-0.5454704915,0.03154,72.35519825,
0.03156,0.9162506852,0.03156,73.08605883,
0.03158,0.550820391,0.03158,73.08605883,
0.0316,-0.5454704915,0.0316,73.08605883,
0.03162,-0.1800401973,0.03162,72.35519825,
0.03164,-0.1800401973,0.03164,73.45148913,
0.03166,-1.27633108,0.03166,72.72062854,
0.03168,-0.1800401973,0.03168,72.72062854,
0.0317,0.9162506852,0.0317,73.45148913,
0.03172,-0.5454704915,0.03172,72.72062854,
0.03174,1.281680979,0.03174,73.08605883,
0.03176,0.550820391,0.03176,73.08605883,
0.03178,1.281680979,0.03178,73.08605883,
0.0318,1.281680979,0.0318,72.35519825,
0.03182,1.281680979,0.03182,72.35519825,
0.03184,2.012541568,0.03184,72.72062854,
0.03186,0.550820391,0.03186,73.45148913,
0.03188,-0.1800401973,0.03188,72.35519825,
0.0319,1.281680979,0.0319,73.08605883,
0.03192,0.1853900968,0.03192,73.08605883,
0.03194,-0.1800401973,0.03194,72.35519825,
0.03196,0.550820391,0.03196,73.08605883,
0.03198,0.550820391,0.03198,73.08605883,
0.032,1.281680979,0.032,72.35519825,
0.03202,2.377971862,0.03202,73.08605883,
0.03204,2.012541568,0.03204,73.08605883,
0.03206,1.647111274,0.03206,72.35519825,
0.03208,2.377971862,0.03208,73.08605883,
0.0321,1.647111274,0.0321,72.72062854,
0.03212,1.281680979,0.03212,72.35519825,
0.03214,0.9162506852,0.03214,73.08605883,
0.03216,0.550820391,0.03216,73.08605883,
0.03218,-1.27633108,0.03218,72.35519825,
0.0322,-0.1800401973,0.0322,72.72062854,
0.03222,0.550820391,0.03222,72.72062854,
0.03224,0.550820391,0.03224,72.35519825,
0.03226,1.647111274,0.03226,73.08605883,
0.03228,0.1853900968,0.03228,72.35519825,
0.0323,-0.1800401973,0.0323,72.35519825,
0.03232,2.743402156,0.03232,73.08605883,
0.03234,-2.372621962,0.03234,73.81691942,
0.03236,2.377971862,0.03236,72.72062854,
0.03238,-0.5454704915,0.03238,73.45148913,
0.0324,-2.007191668,0.0324,73.45148913,
0.03242,-2.738052257,0.03242,72.72062854,
0.03244,-0.5454704915,0.03244,72.35519825,
0.03246,-1.641761374,0.03246,73.45148913,
0.03248,0.550820391,0.03248,73.08605883,
0.0325,-1.27633108,0.0325,73.08605883,
0.03252,-0.1800401973,0.03252,73.08605883,
0.03254,-0.1800401973,0.03254,73.45148913,
0.03256,0.9162506852,0.03256,73.08605883,
0.03258,-0.5454704915,0.03258,72.35519825,
0.0326,-1.641761374,0.0326,73.45148913,
0.03262,-0.9109007857,0.03262,73.08605883,
0.03264,-1.27633108,0.03264,72.72062854,
0.03266,-0.5454704915,0.03266,73.45148913,
0.03268,-0.1800401973,0.03268,72.35519825,
0.0327,0.9162506852,0.0327,72.35519825,
0.03272,0.550820391,0.03272,73.08605883,
0.03274,0.9162506852,0.03274,72.72062854,
0.03276,1.281680979,0.03276,73.45148913,
0.03278,0.9162506852,0.03278,73.45148913,
0.0328,0.550820391,0.0328,73.08605883,
0.03282,1.281680979,0.03282,72.72062854,
0.03284,1.281680979,0.03284,73.08605883,
0.03286,0.1853900968,0.03286,73.08605883,
0.03288,2.012541568,0.03288,73.08605883,
0.0329,1.281680979,0.0329,73.45148913,
0.03292,0.1853900968,0.03292,73.08605883,
0.03294,0.9162506852,0.03294,73.08605883,
0.03296,1.281680979,0.03296,73.08605883,
0.03298,0.550820391,0.03298,73.08605883,
0.033,2.743402156,0.033,72.72062854,
0.03302,1.281680979,0.03302,73.08605883,
0.03304,2.377971862,0.03304,73.08605883,
0.03306,1.647111274,0.03306,72.72062854,
0.03308,2.012541568,0.03308,73.45148913,
0.0331,0.550820391,0.0331,73.08605883,
0.03312,0.9162506852,0.03312,72.72062854,
0.03314,0.1853900968,0.03314,73.45148913,
0.03316,-0.9109007857,0.03316,72.72062854,
0.03318,-0.1800401973,0.03318,72.72062854,
0.0332,-0.5454704915,0.0332,73.45148913,
0.03322,-1.27633108,0.03322,73.45148913,
0.03324,1.281680979,0.03324,72.72062854,
0.03326,0.550820391,0.03326,72.72062854,
0.03328,1.281680979,0.03328,71.98976795,
0.0333,-0.1800401973,0.0333,72.35519825,
0.03332,1.647111274,0.03332,73.45148913,
0.03334,-2.372621962,0.03334,73.81691942,
0.03336,-2.372621962,0.03336,73.81691942,
0.03338,-1.27633108,0.03338,74.18234972,
0.0334,-1.27633108,0.0334,73.08605883,
0.03342,-2.372621962,0.03342,71.98976795,
0.03344,-2.007191668,0.03344,73.81691942,
0.03346,-0.1800401973,0.03346,73.08605883,
0.03348,1.281680979,0.03348,73.08605883,
0.0335,1.647111274,0.0335,73.45148913,
0.03352,-0.1800401973,0.03352,73.08605883,
0.03354,-0.5454704915,0.03354,72.72062854,
0.03356,-0.5454704915,0.03356,73.08605883,
0.03358,-1.641761374,0.03358,73.08605883,
0.0336,0.9162506852,0.0336,73.08605883,
0.03362,-0.9109007857,0.03362,73.08605883,
0.03364,-1.27633108,0.03364,73.45148913,
0.03366,-0.5454704915,0.03366,72.72062854,
0.03368,1.281680979,0.03368,73.08605883,
0.0337,0.9162506852,0.0337,73.08605883,
0.03372,3.10883245,0.03372,73.08605883,
0.03374,0.550820391,0.03374,73.08605883,
0.03376,0.550820391,0.03376,73.08605883,
0.03378,0.9162506852,0.03378,73.08605883,
0.0338,0.550820391,0.0338,72.72062854,
0.03382,-0.5454704915,0.03382,73.08605883,
0.03384,0.9162506852,0.03384,73.08605883,
0.03386,-0.1800401973,0.03386,73.08605883,
0.03388,-0.1800401973,0.03388,72.72062854,
0.0339,0.1853900968,0.0339,73.08605883,
0.03392,0.9162506852,0.03392,73.08605883,
0.03394,0.1853900968,0.03394,73.08605883,
0.03396,2.377971862,0.03396,72.72062854,
0.03398,2.743402156,0.03398,73.45148913,
0.034,0.550820391,0.034,73.08605883,
0.03402,1.281680979,0.03402,73.08605883,
0.03404,0.9162506852,0.03404,73.45148913,
0.03406,0.1853900968,0.03406,73.08605883,
0.03408,1.281680979,0.03408,72.72062854,
0.0341,-0.5454704915,0.0341,73.45148913,
0.03412,-0.5454704915,0.03412,72.72062854,
0.03414,0.1853900968,0.03414,72.35519825,
0.03416,0.550820391,0.03416,73.45148913,
0.03418,-0.5454704915,0.03418,73.08605883,
0.0342,0.9162506852,0.0342,72.72062854,
0.03422,1.647111274,0.03422,72.72062854,
0.03424,-0.9109007857,0.03424,72.35519825,
0.03426,-0.9109007857,0.03426,73.45148913,
0.03428,0.9162506852,0.03428,72.72062854,
0.0343,-2.372621962,0.0343,73.45148913,
0.03432,-0.5454704915,0.03432,73.08605883,
0.03434,0.550820391,0.03434,74.18234972,
0.03436,-2.007191668,0.03436,73.08605883,
0.03438,-3.103482551,0.03438,72.72062854,
0.0344,-0.5454704915,0.0344,73.81691942,
0.03442,-0.9109007857,0.03442,73.08605883,
0.03444,-0.1800401973,0.03444,72.72062854,
0.03446,-0.1800401973,0.03446,73.08605883,
0.03448,-0.5454704915,0.03448,72.72062854,
0.0345,0.1853900968,0.0345,73.08605883,
0.03452,-0.9109007857,0.03452,73.08605883,
0.03454,-0.9109007857,0.03454,72.72062854,
0.03456,-1.27633108,0.03456,72.72062854,
0.03458,-2.007191668,0.03458,72.72062854,
0.0346,-0.5454704915,0.0346,73.08605883,
0.03462,-0.1800401973,0.03462,73.08605883,
0.03464,0.9162506852,0.03464,73.08605883,
0.03466,-0.1800401973,0.03466,72.35519825,
0.03468,1.281680979,0.03468,73.08605883,
0.0347,0.9162506852,0.0347,72.35519825,
0.03472,1.281680979,0.03472,72.72062854,
0.03474,0.550820391,0.03474,72.72062854,
0.03476,2.012541568,0.03476,73.08605883,
0.03478,0.550820391,0.03478,72.72062854,
0.0348,-0.1800401973,0.0348,72.72062854,
0.03482,0.550820391,0.03482,73.08605883,
0.03484,-0.9109007857,0.03484,72.72062854,
0.03486,0.550820391,0.03486,73.08605883,
0.03488,0.9162506852,0.03488,73.08605883,
0.0349,0.1853900968,0.0349,72.72062854,
0.03492,1.281680979,0.03492,72.72062854,
0.03494,2.012541568,0.03494,73.08605883,
0.03496,1.647111274,0.03496,72.72062854,
0.03498,2.743402156,0.03498,72.72062854,
0.035,1.647111274,0.035,72.72062854,
0.03502,0.550820391,0.03502,72.35519825,
0.03504,2.012541568,0.03504,73.08605883,
0.03506,0.1853900968,0.03506,72.72062854,
0.03508,0.1853900968,0.03508,72.35519825,
0.0351,-0.5454704915,0.0351,72.72062854,
0.03512,0.1853900968,0.03512,72.72062854,
0.03514,-0.5454704915,0.03514,72.35519825,
0.03516,-0.1800401973,0.03516,73.45148913,
0.03518,1.647111274,0.03518,73.08605883,
0.0352,0.550820391,0.0352,73.81691942,
0.03522,-0.5454704915,0.03522,73.08605883,
0.03524,0.550820391,0.03524,72.72062854,
0.03526,-1.641761374,0.03526,72.35519825,
0.03528,-2.738052257,0.03528,71.62433766,
0.0353,-3.103482551,0.0353,73.08605883,
0.03532,-0.9109007857,0.03532,72.35519825,
0.03534,-0.5454704915,0.03534,71.62433766,
0.03536,-1.27633108,0.03536,73.81691942,
0.03538,-1.27633108,0.03538,72.35519825,
0.0354,-0.5454704915,0.0354,73.08605883,
0.03542,0.9162506852,0.03542,72.35519825,
0.03544,0.1853900968,0.03544,71.98976795,
0.03546,1.281680979,0.03546,73.08605883,
0.03548,-0.9109007857,0.03548,73.45148913,
0.0355,-0.1800401973,0.0355,71.98976795,
0.03552,-0.9109007857,0.03552,72.72062854,
0.03554,0.1853900968,0.03554,72.35519825,
0.03556,-1.27633108,0.03556,72.35519825,
0.03558,-0.1800401973,0.03558,72.35519825,
0.0356,-0.1800401973,0.0356,73.08605883,
0.03562,0.1853900968,0.03562,72.35519825,
0.03564,0.9162506852,0.03564,72.72062854,
0.03566,0.9162506852,0.03566,72.72062854,
0.03568,2.377971862,0.03568,72.72062854,
0.0357,1.647111274,0.0357,73.08605883,
0.03572,0.550820391,0.03572,73.08605883,
0.03574,0.1853900968,0.03574,72.72062854,
0.03576,2.012541568,0.03576,72.72062854,
0.03578,0.9162506852,0.03578,73.08605883,
0.0358,1.647111274,0.0358,72.35519825,
0.03582,1.281680979,0.03582,73.08605883,
0.03584,0.1853900968,0.03584,72.72062854,
0.03586,0.1853900968,0.03586,72.72062854,
0.03588,1.647111274,0.03588,73.08605883,
0.0359,2.377971862,0.0359,72.72062854,
0.03592,1.647111274,0.03592,72.72062854,
0.03594,2.012541568,0.03594,72.72062854,
0.03596,2.377971862,0.03596,73.08605883,
0.03598,2.012541568,0.03598,72.35519825,
0.036,1.281680979,0.036,73.08605883,
0.03602,0.1853900968,0.03602,73.08605883,
0.03604,0.1853900968,0.03604,72.35519825,
0.03606,0.550820391,0.03606,73.08605883,
0.03608,-0.9109007857,0.03608,72.72062854,
0.0361,-0.1800401973,0.0361,72.72062854,
0.03612,0.550820391,0.03612,73.08605883,
0.03614,1.281680979,0.03614,73.08605883,
0.03616,1.281680979,0.03616,72.35519825,
0.03618,1.281680979,0.03618,72.72062854,
0.0362,0.550820391,0.0362,71.98976795,
0.03622,-2.007191668,0.03622,73.45148913,
0.03624,-0.5454704915,0.03624,72.72062854,
0.03626,-2.007191668,0.03626,72.72062854,
0.03628,0.1853900968,0.03628,73.81691942,
0.0363,-2.372621962,0.0363,72.72062854,
0.03632,-1.641761374,0.03632,73.45148913,
0.03634,-1.641761374,0.03634,73.08605883,
0.03636,-2.007191668,0.03636,72.35519825,
0.03638,1.647111274,0.03638,73.08605883,
0.0364,-0.1800401973,0.0364,71.98976795,
0.03642,2.012541568,0.03642,72.35519825,
0.03644,0.1853900968,0.03644,72.72062854,
0.03646,-1.27633108,0.03646,72.72062854,
0.03648,-0.5454704915,0.03648,73.08605883,
0.0365,-0.1800401973,0.0365,72.72062854,
0.03652,-1.27633108,0.03652,73.08605883,
0.03654,-0.1800401973,0.03654,73.08605883,
0.03656,-0.5454704915,0.03656,72.35519825,
0.03658,0.1853900968,0.03658,73.81691942,
0.0366,-1.27633108,0.0366,73.08605883,
0.03662,-0.1800401973,0.03662,72.72062854,
0.03664,1.281680979,0.03664,73.45148913,
0.03666,0.550820391,0.03666,73.08605883,
0.03668,0.9162506852,0.03668,72.35519825,
0.0367,0.550820391,0.0367,73.81691942,
0.03672,0.550820391,0.03672,73.08605883,
0.03674,-0.1800401973,0.03674,73.08605883,
0.03676,1.281680979,0.03676,73.45148913,
0.03678,-0.1800401973,0.03678,73.08605883,
0.0368,0.1853900968,0.0368,72.72062854,
0.03682,1.647111274,0.03682,73.08605883,
0.03684,0.9162506852,0.03684,73.08605883,
0.03686,1.281680979,0.03686,72.72062854,
0.03688,1.647111274,0.03688,73.08605883,
0.0369,0.9162506852,0.0369,73.08605883,
0.03692,0.9162506852,0.03692,72.35519825,
0.03694,1.647111274,0.03694,73.08605883,
0.03696,0.1853900968,0.03696,72.72062854,
0.03698,1.281680979,0.03698,72.35519825,
0.037,1.281680979,0.037,73.45148913,
0.03702,-0.5454704915,0.03702,72.35519825,
0.03704,-0.5454704915,0.03704,72.35519825,
0.03706,-0.5454704915,0.03706,73.08605883,
0.03708,-0.9109007857,0.03708,73.08605883,
0.0371,0.1853900968,0.0371,72.35519825,
0.03712,1.281680979,0.03712,73.45148913,
0.03714,1.647111274,0.03714,72.35519825,
0.03716,2.377971862,0.03716,71.25890736,
0.03718,0.1853900968,0.03718,73.81691942,
0.0372,-2.372621962,0.0372,72.72062854,
0.03722,1.281680979,0.03722,72.72062854,
0.03724,-3.103482551,0.03724,72.72062854,
0.03726,-4.565203727,0.03726,71.98976795,
0.03728,-1.641761374,0.03728,73.45148913,
0.0373,-1.641761374,0.0373,73.45148913,
0.03732,-2.738052257,0.03732,72.72062854,
0.03734,0.550820391,0.03734,72.72062854,
0.03736,-1.641761374,0.03736,73.08605883,
0.03738,-0.5454704915,0.03738,72.72062854,
0.0374,-0.5454704915,0.0374,72.72062854,
0.03742,0.1853900968,0.03742,73.08605883,
0.03744,-0.1800401973,0.03744,72.35519825,
0.03746,-0.1800401973,0.03746,72.72062854,
0.03748,-1.27633108,0.03748,72.72062854,
0.0375,0.1853900968,0.0375,72.72062854,
0.03752,-0.5454704915,0.03752,73.08605883,
0.03754,-0.9109007857,0.03754,73.08605883,
0.03756,0.550820391,0.03756,73.08605883,
0.03758,-0.1800401973,0.03758,73.08605883,
0.0376,0.1853900968,0.0376,72.72062854,
0.03762,1.647111274,0.03762,73.08605883,
0.03764,2.377971862,0.03764,73.08605883,
0.03766,2.012541568,0.03766,73.08605883,
0.03768,0.550820391,0.03768,73.08605883,
0.0377,-0.1800401973,0.0377,72.72062854,
0.03772,1.281680979,0.03772,73.08605883,
0.03774,0.1853900968,0.03774,73.08605883,
0.03776,0.9162506852,0.03776,72.72062854,
0.03778,1.281680979,0.03778,72.72062854,
0.0378,0.1853900968,0.0378,72.35519825,
0.03782,1.281680979,0.03782,73.08605883,
0.03784,1.647111274,0.03784,73.08605883,
0.03786,2.012541568,0.03786,72.35519825,
0.03788,2.377971862,0.03788,73.08605883,
0.0379,2.377971862,0.0379,72.72062854,
0.03792,1.281680979,0.03792,72.72062854,
0.03794,0.9162506852,0.03794,73.08605883,
0.03796,0.550820391,0.03796,72.72062854,
0.03798,0.9162506852,0.03798,72.35519825,
0.038,1.281680979,0.038,72.72062854,
0.03802,-0.1800401973,0.03802,72.72062854,
0.03804,-0.5454704915,0.03804,72.35519825,
0.03806,0.9162506852,0.03806,72.35519825,
0.03808,2.012541568,0.03808,72.72062854,
0.0381,1.281680979,0.0381,72.72062854,
0.03812,1.281680979,0.03812,73.08605883,
0.03814,1.281680979,0.03814,73.08605883,
0.03816,0.9162506852,0.03816,72.35519825,
0.03818,1.281680979,0.03818,73.08605883,
0.0382,1.647111274,0.0382,72.35519825,
0.03822,-2.738052257,0.03822,73.08605883,
0.03824,-3.834343139,0.03824,73.45148913,
0.03826,-0.1800401973,0.03826,73.08605883,
0.03828,-1.641761374,0.03828,72.72062854,
0.0383,-1.27633108,0.0383,73.81691942,
0.03832,-0.9109007857,0.03832,73.08605883,
0.03834,-0.1800401973,0.03834,72.35519825,
0.03836,-0.1800401973,0.03836,73.45148913,
0.03838,0.1853900968,0.03838,72.72062854,
0.0384,-0.1800401973,0.0384,72.72062854,
0.03842,-0.5454704915,0.03842,72.72062854,
0.03844,0.1853900968,0.03844,72.72062854,
0.03846,-1.27633108,0.03846,72.35519825,
0.03848,-0.1800401973,0.03848,72.72062854,
0.0385,-0.1800401973,0.0385,72.72062854,
0.03852,-0.5454704915,0.03852,72.72062854,
0.03854,-0.1800401973,0.03854,72.72062854,
0.03856,0.9162506852,0.03856,72.72062854,
0.03858,0.9162506852,0.03858,72.72062854,
0.0386,1.281680979,0.0386,72.35519825,
0.03862,0.550820391,0.03862,73.08605883,
0.03864,2.377971862,0.03864,72.35519825,
0.03866,1.647111274,0.03866,72.72062854,
0.03868,0.1853900968,0.03868,72.72062854,
0.0387,0.9162506852,0.0387,71.98976795,
0.03872,2.012541568,0.03872,73.08605883,
0.03874,0.550820391,0.03874,72.72062854,
0.03876,0.550820391,0.03876,71.98976795,
0.03878,1.647111274,0.03878,73.45148913,
0.0388,0.550820391,0.0388,72.72062854,
0.03882,1.281680979,0.03882,72.72062854,
0.03884,1.647111274,0.03884,73.08605883,
0.03886,2.012541568,0.03886,73.08605883,
0.03888,3.10883245,0.03888,72.35519825,
0.0389,1.647111274,0.0389,72.72062854,
0.03892,2.377971862,0.03892,73.08605883,
0.03894,1.281680979,0.03894,72.72062854,
0.03896,2.012541568,0.03896,72.72062854,
0.03898,0.9162506852,0.03898,72.72062854,
0.039,0.1853900968,0.039,72.72062854,
0.03902,-0.1800401973,0.03902,72.72062854,
0.03904,-0.1800401973,0.03904,72.35519825,
0.03906,-1.27633108,0.03906,72.35519825,
0.03908,1.281680979,0.03908,73.08605883,
0.0391,0.1853900968,0.0391,71.98976795,
0.03912,1.647111274,0.03912,72.35519825,
0.03914,0.550820391,0.03914,73.08605883,
0.03916,-2.372621962,0.03916,73.81691942,
0.03918,-1.641761374,0.03918,71.98976795,
0.0392,-2.738052257,0.0392,72.72062854,
0.03922,0.550820391,0.03922,74.18234972,
0.03924,-3.834343139,0.03924,71.98976795,
0.03926,0.550820391,0.03926,73.45148913,
0.03928,-2.007191668,0.03928,72.72062854,
0.0393,0.1853900968,0.0393,72.35519825,
0.03932,-0.1800401973,0.03932,73.45148913,
0.03934,0.550820391,0.03934,72.72062854,
0.03936,-0.1800401973,0.03936,72.35519825,
0.03938,0.1853900968,0.03938,73.08605883,
0.0394,-0.1800401973,0.0394,72.35519825,
0.03942,-1.27633108,0.03942,72.72062854,
0.03944,-0.9109007857,0.03944,72.72062854,
0.03946,-1.27633108,0.03946,72.35519825,
0.03948,0.1853900968,0.03948,72.72062854,
0.0395,-1.641761374,0.0395,72.72062854,
0.03952,0.1853900968,0.03952,73.08605883,
0.03954,-0.1800401973,0.03954,73.08605883,
0.03956,0.9162506852,0.03956,72.72062854,
0.03958,-0.1800401973,0.03958,72.72062854,
0.0396,0.9162506852,0.0396,73.45148913,
0.03962,0.9162506852,0.03962,73.08605883,
0.03964,-0.5454704915,0.03964,72.72062854,
0.03966,1.281680979,0.03966,73.45148913,
0.03968,0.1853900968,0.03968,73.08605883,
0.0397,0.9162506852,0.0397,72.72062854,
0.03972,1.281680979,0.03972,73.45148913,
0.03974,0.550820391,0.03974,73.08605883,
0.03976,-0.1800401973,0.03976,73.08605883,
0.03978,0.550820391,0.03978,73.45148913,
0.0398,1.281680979,0.0398,72.72062854,
0.03982,1.281680979,0.03982,72.72062854,
0.03984,2.377971862,0.03984,73.45148913,
0.03986,1.281680979,0.03986,72.35519825,
0.03988,1.647111274,0.03988,72.35519825,
0.0399,0.9162506852,0.0399,73.45148913,
0.03992,0.9162506852,0.03992,72.35519825,
0.03994,0.550820391,0.03994,72.72062854,
0.03996,-0.9109007857,0.03996,73.45148913,
0.03998,-0.9109007857,0.03998,72.72062854,
0.04,-1.27633108,0.04,72.72062854,
0.04002,-1.641761374,0.04002,73.08605883,
0.04004,0.550820391,0.04004,72.72062854,
0.04006,1.281680979,0.04006,72.72062854,
0.04008,0.9162506852,0.04008,73.81691942,
0.0401,0.550820391,0.0401,73.45148913,
0.04012,-0.9109007857,0.04012,72.35519825,
0.04014,-2.007191668,0.04014,72.72062854,
0.04016,-1.27633108,0.04016,73.45148913,
0.04018,-4.930634022,0.04018,71.62433766,
0.0402,-2.738052257,0.0402,74.18234972,
0.04022,-4.565203727,0.04022,73.45148913,
0.04024,0.1853900968,0.04024,72.35519825,
0.04026,-2.372621962,0.04026,73.45148913,
0.04028,1.281680979,0.04028,73.08605883,
0.0403,-0.1800401973,0.0403,72.35519825,
0.04032,0.1853900968,0.04032,73.45148913,
0.04034,0.1853900968,0.04034,72.72062854,
0.04036,-0.5454704915,0.04036,72.72062854,
0.04038,-0.5454704915,0.04038,73.45148913,
0.0404,-0.9109007857,0.0404,72.72062854,
0.04042,-1.641761374,0.04042,72.72062854,
0.04044,-0.1800401973,0.04044,73.45148913,
0.04046,-2.007191668,0.04046,73.08605883,
0.04048,-0.9109007857,0.04048,73.08605883,
0.0405,-0.1800401973,0.0405,73.08605883,
0.04052,0.1853900968,0.04052,73.08605883,
0.04054,0.9162506852,0.04054,72.72062854,
0.04056,1.647111274,0.04056,73.08605883,
0.04058,0.9162506852,0.04058,72.72062854,
0.0406,0.9162506852,0.0406,72.35519825,
0.04062,1.281680979,0.04062,73.08605883,
0.04064,0.550820391,0.04064,73.08605883,
0.04066,0.1853900968,0.04066,72.35519825,
0.04068,0.550820391,0.04068,73.45148913,
0.0407,0.1853900968,0.0407,73.08605883,
0.04072,-0.1800401973,0.04072,72.35519825,
0.04074,0.1853900968,0.04074,72.72062854,
0.04076,0.1853900968,0.04076,72.72062854,
0.04078,1.281680979,0.04078,72.35519825,
0.0408,3.474262744,0.0408,73.08605883,
0.04082,1.281680979,0.04082,73.08605883,
0.04084,2.012541568,0.04084,72.35519825,
0.04086,1.647111274,0.04086,73.08605883,
0.04088,-0.1800401973,0.04088,72.72062854,
0.0409,0.1853900968,0.0409,72.72062854,
0.04092,0.9162506852,0.04092,73.08605883,
0.04094,-0.5454704915,0.04094,72.72062854,
0.04096,-2.007191668,0.04096,72.35519825,
0.04098,-0.5454704915,0.04098,72.72062854,
0.041,-0.1800401973,0.041,72.72062854,
0.04102,0.9162506852,0.04102,72.72062854,
0.04104,1.647111274,0.04104,72.72062854,
0.04106,0.550820391,0.04106,72.72062854,
0.04108,0.1853900968,0.04108,72.72062854,
0.0411,0.9162506852,0.0411,73.08605883,
0.04112,-2.738052257,0.04112,72.72062854,
0.04114,-3.103482551,0.04114,73.45148913,
0.04116,0.550820391,0.04116,71.98976795,
0.04118,-0.1800401973,0.04118,73.08605883,
0.0412,-0.9109007857,0.0412,72.72062854,
0.04122,-3.468912845,0.04122,73.08605883,
0.04124,-0.9109007857,0.04124,73.08605883,
0.04126,-1.641761374,0.04126,72.72062854,
0.04128,-0.1800401973,0.04128,73.08605883,
0.0413,-0.1800401973,0.0413,72.72062854,
0.04132,-2.007191668,0.04132,73.45148913,
0.04134,-0.9109007857,0.04134,73.08605883,
0.04136,-0.1800401973,0.04136,72.72062854,
0.04138,-0.5454704915,0.04138,73.45148913,
0.0414,-1.641761374,0.0414,72.72062854,
0.04142,-0.5454704915,0.04142,73.08605883,
0.04144,-0.9109007857,0.04144,73.45148913,
0.04146,-0.9109007857,0.04146,73.08605883,
0.04148,-0.1800401973,0.04148,73.08605883,
0.0415,1.647111274,0.0415,73.45148913,
0.04152,2.012541568,0.04152,73.45148913,
0.04154,1.647111274,0.04154,72.35519825,
0.04156,1.281680979,0.04156,73.08605883,
0.04158,0.9162506852,0.04158,73.08605883,
0.0416,0.550820391,0.0416,72.35519825,
0.04162,0.9162506852,0.04162,73.45148913,
0.04164,0.550820391,0.04164,73.08605883,
0.04166,-0.1800401973,0.04166,73.08605883,
0.04168,0.9162506852,0.04168,73.08605883,
0.0417,-0.9109007857,0.0417,72.72062854,
0.04172,0.9162506852,0.04172,73.08605883,
0.04174,0.1853900968,0.04174,73.45148913,
0.04176,1.647111274,0.04176,72.72062854,
0.04178,2.743402156,0.04178,72.72062854,
0.0418,2.377971862,0.0418,73.08605883,
0.04182,2.012541568,0.04182,73.45148913,
0.04184,1.281680979,0.04184,72.72062854,
0.04186,1.281680979,0.04186,73.45148913,
0.04188,1.281680979,0.04188,72.72062854,
0.0419,0.550820391,0.0419,72.72062854,
0.04192,-0.9109007857,0.04192,73.45148913,
0.04194,-0.9109007857,0.04194,73.08605883,
0.04196,0.550820391,0.04196,73.08605883,
0.04198,-0.9109007857,0.04198,73.45148913,
0.042,-0.1800401973,0.042,73.45148913,
0.04202,0.550820391,0.04202,72.72062854,
0.04204,-0.1800401973,0.04204,73.08605883,
0.04206,2.377971862,0.04206,73.08605883,
0.04208,0.550820391,0.04208,71.98976795,
0.0421,-3.103482551,0.0421,71.98976795,
0.04212,-0.5454704915,0.04212,72.72062854,
0.04214,-2.007191668,0.04214,71.25890736,
0.04216,-0.5454704915,0.04216,73.45148913,
0.04218,-1.641761374,0.04218,71.62433766,
0.0422,-1.641761374,0.0422,72.72062854,
0.04222,0.1853900968,0.04222,72.72062854,
0.04224,-0.1800401973,0.04224,72.35519825,
0.04226,0.550820391,0.04226,72.35519825,
0.04228,0.1853900968,0.04228,73.45148913,
0.0423,-0.9109007857,0.0423,73.45148913,
0.04232,-0.1800401973,0.04232,73.08605883,
0.04234,-0.9109007857,0.04234,73.08605883,
0.04236,-2.372621962,0.04236,72.72062854,
0.04238,-0.1800401973,0.04238,72.72062854,
0.0424,-2.007191668,0.0424,73.45148913,
0.04242,-2.007191668,0.04242,73.45148913,
0.04244,0.9162506852,0.04244,72.35519825,
0.04246,-0.1800401973,0.04246,73.45148913,
0.04248,0.9162506852,0.04248,72.72062854,
0.0425,0.550820391,0.0425,72.72062854,
0.04252,2.377971862,0.04252,73.45148913,
0.04254,0.9162506852,0.04254,73.08605883,
0.04256,0.9162506852,0.04256,72.72062854,
0.04258,1.281680979,0.04258,72.35519825,
0.0426,1.281680979,0.0426,72.35519825,
0.04262,0.9162506852,0.04262,72.72062854,
0.04264,0.550820391,0.04264,73.08605883,
0.04266,-0.1800401973,0.04266,72.72062854,
0.04268,1.281680979,0.04268,72.72062854,
0.0427,1.647111274,0.0427,73.08605883,
0.04272,0.550820391,0.04272,73.08605883,
0.04274,2.012541568,0.04274,72.72062854,
0.04276,2.377971862,0.04276,73.08605883,
0.04278,1.281680979,0.04278,73.08605883,
0.0428,2.012541568,0.0428,72.72062854,
0.04282,1.647111274,0.04282,73.08605883,
0.04284,1.647111274,0.04284,73.08605883,
0.04286,0.9162506852,0.04286,73.08605883,
0.04288,0.550820391,0.04288,73.08605883,
0.0429,0.9162506852,0.0429,73.45148913,
0.04292,-2.007191668,0.04292,72.72062854,
0.04294,-0.5454704915,0.04294,73.08605883,
0.04296,0.1853900968,0.04296,73.08605883,
0.04298,0.9162506852,0.04298,73.08605883,
0.043,1.647111274,0.043,73.08605883,
0.04302,0.9162506852,0.04302,73.45148913,
0.04304,0.9162506852,0.04304,73.08605883,
0.04306,0.1853900968,0.04306,72.72062854,
0.04308,0.1853900968,0.04308,73.81691942,
0.0431,-2.372621962,0.0431,73.45148913,
0.04312,-1.27633108,0.04312,73.08605883,
0.04314,-2.372621962,0.04314,73.08605883,
0.04316,-1.641761374,0.04316,73.81691942,
0.04318,0.1853900968,0.04318,71.98976795,
0.0432,1.281680979,0.0432,73.08605883,
0.04322,-0.9109007857,0.04322,73.08605883,
0.04324,1.281680979,0.04324,72.72062854,
0.04326,0.550820391,0.04326,72.72062854,
0.04328,-1.27633108,0.04328,73.08605883,
0.0433,0.1853900968,0.0433,72.72062854,
0.04332,-0.9109007857,0.04332,72.72062854,
0.04334,-1.641761374,0.04334,72.72062854,
0.04336,-0.1800401973,0.04336,72.72062854,
0.04338,0.1853900968,0.04338,72.72062854,
0.0434,-1.27633108,0.0434,71.98976795,
0.04342,0.550820391,0.04342,72.35519825,
0.04344,0.9162506852,0.04344,72.72062854,
0.04346,-0.1800401973,0.04346,72.72062854,
0.04348,1.281680979,0.04348,73.08605883,
0.0435,1.281680979,0.0435,73.08605883,
0.04352,1.647111274,0.04352,71.98976795,
0.04354,1.281680979,0.04354,72.72062854,
0.04356,1.281680979,0.04356,73.08605883,
0.04358,2.012541568,0.04358,72.35519825,
0.0436,0.550820391,0.0436,73.08605883,
0.04362,-0.9109007857,0.04362,72.72062854,
0.04364,0.1853900968,0.04364,71.98976795,
0.04366,-0.1800401973,0.04366,73.08605883,
0.04368,0.9162506852,0.04368,72.72062854,
0.0437,1.281680979,0.0437,71.98976795,
0.04372,2.012541568,0.04372,72.72062854,
0.04374,3.474262744,0.04374,72.72062854,
0.04376,2.012541568,0.04376,71.98976795,
0.04378,0.9162506852,0.04378,73.08605883,
0.0438,1.281680979,0.0438,72.72062854,
0.04382,0.9162506852,0.04382,72.72062854,
0.04384,0.9162506852,0.04384,72.72062854,
0.04386,0.9162506852,0.04386,72.72062854,
0.04388,0.1853900968,0.04388,72.35519825,
0.0439,-1.27633108,0.0439,72.72062854,
0.04392,-0.1800401973,0.04392,73.08605883,
0.04394,-0.5454704915,0.04394,71.98976795,
0.04396,2.012541568,0.04396,72.35519825,
0.04398,0.9162506852,0.04398,72.72062854,
0.044,1.281680979,0.044,72.72062854,
0.04402,2.743402156,0.04402,72.72062854,
0.04404,0.550820391,0.04404,73.08605883,
0.04406,0.1853900968,0.04406,73.45148913,
0.04408,-2.372621962,0.04408,72.35519825,
0.0441,-2.007191668,0.0441,72.35519825,
0.04412,-1.641761374,0.04412,73.81691942,
0.04414,-2.372621962,0.04414,72.72062854,
0.04416,-1.641761374,0.04416,73.08605883,
0.04418,-2.007191668,0.04418,72.72062854,
0.0442,0.550820391,0.0442,72.72062854,
0.04422,-0.1800401973,0.04422,73.08605883,
0.04424,-0.1800401973,0.04424,72.72062854,
0.04426,-0.1800401973,0.04426,72.72062854,
0.04428,-0.1800401973,0.04428,72.72062854,
0.0443,-1.641761374,0.0443,72.72062854,
0.04432,-0.9109007857,0.04432,73.08605883,
0.04434,-1.27633108,0.04434,73.08605883,
0.04436,-2.007191668,0.04436,72.72062854,
0.04438,0.1853900968,0.04438,73.08605883,
0.0444,0.1853900968,0.0444,73.08605883,
0.04442,-0.1800401973,0.04442,72.35519825,
0.04444,1.647111274,0.04444,72.72062854,
0.04446,0.550820391,0.04446,73.08605883,
0.04448,0.550820391,0.04448,72.35519825,
0.0445,0.9162506852,0.0445,73.08605883,
0.04452,0.550820391,0.04452,72.72062854,
0.04454,0.550820391,0.04454,72.72062854,
0.04456,0.550820391,0.04456,72.72062854,
0.04458,0.9162506852,0.04458,72.72062854,
0.0446,-0.5454704915,0.0446,72.72062854,
0.04462,0.9162506852,0.04462,73.08605883,
0.04464,0.1853900968,0.04464,73.08605883,
0.04466,0.1853900968,0.04466,71.98976795,
0.04468,2.012541568,0.04468,73.08605883,
0.0447,2.012541568,0.0447,72.72062854,
0.04472,2.743402156,0.04472,72.35519825,
0.04474,1.647111274,0.04474,72.72062854,
0.04476,1.647111274,0.04476,72.72062854,
0.04478,0.550820391,0.04478,71.98976795,
0.0448,0.550820391,0.0448,72.72062854,
0.04482,0.550820391,0.04482,72.72062854,
0.04484,-0.5454704915,0.04484,72.35519825,
0.04486,0.550820391,0.04486,72.72062854,
0.04488,-0.1800401973,0.04488,73.45148913,
0.0449,0.550820391,0.0449,72.35519825,
0.04492,1.647111274,0.04492,72.35519825,
0.04494,0.9162506852,0.04494,72.72062854,
0.04496,0.1853900968,0.04496,72.35519825,
0.04498,2.012541568,0.04498,72.72062854,
0.045,-0.5454704915,0.045,73.08605883,
0.04502,-2.372621962,0.04502,73.45148913,
0.04504,-0.5454704915,0.04504,73.08605883,
0.04506,-0.9109007857,0.04506,72.72062854,
0.04508,-3.834343139,0.04508,71.62433766,
0.0451,-2.738052257,0.0451,74.18234972,
0.04512,-1.641761374,0.04512,73.08605883,
0.04514,-3.834343139,0.04514,73.08605883,
0.04516,-1.641761374,0.04516,73.45148913,
0.04518,-1.641761374,0.04518,73.45148913,
0.0452,0.550820391,0.0452,72.72062854,
0.04522,-0.9109007857,0.04522,73.45148913,
0.04524,0.1853900968,0.04524,72.35519825,
0.04526,0.1853900968,0.04526,73.08605883,
0.04528,-0.9109007857,0.04528,73.81691942,
0.0453,-1.641761374,0.0453,72.35519825,
0.04532,-0.5454704915,0.04532,72.72062854,
0.04534,-1.27633108,0.04534,73.08605883,
0.04536,0.1853900968,0.04536,72.72062854,
0.04538,-0.9109007857,0.04538,73.08605883,
0.0454,0.550820391,0.0454,73.08605883,
0.04542,-0.5454704915,0.04542,72.72062854,
0.04544,0.550820391,0.04544,72.72062854,
0.04546,1.281680979,0.04546,73.08605883,
0.04548,0.550820391,0.04548,73.08605883,
0.0455,2.012541568,0.0455,72.35519825,
0.04552,0.1853900968,0.04552,73.08605883,
0.04554,-0.1800401973,0.04554,72.72062854,
0.04556,-0.1800401973,0.04556,72.35519825,
0.04558,-0.1800401973,0.04558,73.08605883,
0.0456,0.550820391,0.0456,72.72062854,
0.04562,-0.9109007857,0.04562,72.35519825,
0.04564,0.550820391,0.04564,73.45148913,
0.04566,2.012541568,0.04566,73.08605883,
0.04568,2.012541568,0.04568,72.35519825,
0.0457,2.012541568,0.0457,73.45148913,
0.04572,1.647111274,0.04572,73.08605883,
0.04574,1.647111274,0.04574,72.72062854,
0.04576,1.647111274,0.04576,73.81691942,
0.04578,0.9162506852,0.04578,72.72062854,
0.0458,-0.1800401973,0.0458,72.35519825,
0.04582,0.550820391,0.04582,73.08605883,
0.04584,-0.1800401973,0.04584,72.72062854,
0.04586,-0.9109007857,0.04586,72.72062854,
0.04588,0.1853900968,0.04588,73.08605883,
0.0459,-0.9109007857,0.0459,72.72062854,
0.04592,2.377971862,0.04592,73.08605883,
0.04594,0.550820391,0.04594,73.81691942,
0.04596,0.1853900968,0.04596,73.45148913,
0.04598,0.550820391,0.04598,71.98976795,
0.046,-1.27633108,0.046,74.18234972,
0.04602,0.9162506852,0.04602,72.72062854,
0.04604,1.281680979,0.04604,72.72062854,
0.04606,-1.27633108,0.04606,71.98976795,
0.04608,-2.372621962,0.04608,73.81691942,
0.0461,-3.103482551,0.0461,73.45148913,
0.04612,0.9162506852,0.04612,74.18234972,
0.04614,-1.641761374,0.04614,73.45148913,
0.04616,0.550820391,0.04616,71.98976795,
0.04618,0.550820391,0.04618,73.45148913,
0.0462,-0.1800401973,0.0462,72.72062854,
0.04622,0.550820391,0.04622,72.72062854,
0.04624,0.1853900968,0.04624,73.08605883,
0.04626,-1.641761374,0.04626,73.08605883,
0.04628,-1.641761374,0.04628,72.72062854,
0.0463,-0.9109007857,0.0463,73.45148913,
0.04632,-1.641761374,0.04632,72.35519825,
0.04634,-0.1800401973,0.04634,72.72062854,
0.04636,-0.1800401973,0.04636,73.08605883,
0.04638,-0.5454704915,0.04638,72.72062854,
0.0464,2.012541568,0.0464,72.72062854,
0.04642,1.647111274,0.04642,73.08605883,
0.04644,1.281680979,0.04644,72.72062854,
0.04646,0.9162506852,0.04646,72.35519825,
0.04648,0.550820391,0.04648,73.08605883,
0.0465,0.550820391,0.0465,72.72062854,
0.04652,0.9162506852,0.04652,72.72062854,
0.04654,0.1853900968,0.04654,72.72062854,
0.04656,0.1853900968,0.04656,72.35519825,
0.04658,0.1853900968,0.04658,72.35519825,
0.0466,0.550820391,0.0466,73.08605883,
0.04662,0.550820391,0.04662,72.72062854,
0.04664,1.281680979,0.04664,71.98976795,
0.04666,0.9162506852,0.04666,73.08605883,
0.04668,1.647111274,0.04668,73.08605883,
0.0467,1.281680979,0.0467,72.35519825,
0.04672,0.550820391,0.04672,73.45148913,
0.04674,-0.5454704915,0.04674,73.08605883,
0.04676,0.550820391,0.04676,72.72062854,
0.04678,1.281680979,0.04678,73.08605883,
0.0468,-0.1800401973,0.0468,73.08605883,
0.04682,-0.5454704915,0.04682,72.72062854,
0.04684,-1.27633108,0.04684,73.08605883,
0.04686,-0.5454704915,0.04686,72.35519825,
0.04688,1.281680979,0.04688,72.72062854,
0.0469,0.9162506852,0.0469,73.45148913,
0.04692,0.1853900968,0.04692,72.72062854,
0.04694,-1.27633108,0.04694,73.45148913,
0.04696,-0.9109007857,0.04696,73.81691942,
0.04698,-2.372621962,0.04698,73.08605883,
0.047,-0.5454704915,0.047,73.45148913,
0.04702,-1.27633108,0.04702,71.62433766,
0.04704,-2.007191668,0.04704,73.08605883,
0.04706,-3.834343139,0.04706,73.81691942,
0.04708,-1.641761374,0.04708,73.08605883,
0.0471,-0.5454704915,0.0471,73.08605883,
0.04712,1.281680979,0.04712,73.45148913,
0.04714,-0.1800401973,0.04714,73.45148913,
0.04716,-0.5454704915,0.04716,72.72062854,
0.04718,1.281680979,0.04718,73.08605883,
0.0472,-0.5454704915,0.0472,72.72062854,
0.04722,-0.9109007857,0.04722,72.72062854,
0.04724,-1.27633108,0.04724,73.45148913,
0.04726,-1.27633108,0.04726,72.72062854,
0.04728,-0.9109007857,0.04728,72.72062854,
0.0473,-2.007191668,0.0473,72.72062854,
0.04732,-1.27633108,0.04732,73.08605883,
0.04734,-0.1800401973,0.04734,73.08605883,
0.04736,0.550820391,0.04736,73.08605883,
0.04738,0.1853900968,0.04738,73.08605883,
0.0474,0.550820391,0.0474,72.72062854,
0.04742,0.1853900968,0.04742,73.45148913,
0.04744,0.9162506852,0.04744,72.72062854,
0.04746,1.281680979,0.04746,72.72062854,
0.04748,1.281680979,0.04748,73.45148913,
0.0475,0.1853900968,0.0475,73.08605883,
0.04752,1.647111274,0.04752,73.08605883,
0.04754,0.1853900968,0.04754,73.08605883,
0.04756,0.550820391,0.04756,73.08605883,
0.04758,-0.1800401973,0.04758,72.72062854,
0.0476,0.1853900968,0.0476,73.45148913,
0.04762,0.1853900968,0.04762,73.08605883,
0.04764,1.281680979,0.04764,72.72062854,
0.04766,0.9162506852,0.04766,73.45148913,
0.04768,1.281680979,0.04768,73.08605883,
0.0477,0.9162506852,0.0477,73.08605883,
0.04772,2.012541568,0.04772,73.08605883,
0.04774,0.1853900968,0.04774,72.72062854,
0.04776,0.9162506852,0.04776,73.08605883,
0.04778,-0.5454704915,0.04778,72.35519825,
0.0478,-0.9109007857,0.0478,72.72062854,
0.04782,0.550820391,0.04782,73.08605883,
0.04784,0.1853900968,0.04784,72.72062854,
0.04786,0.9162506852,0.04786,72.72062854,
0.04788,1.281680979,0.04788,72.35519825,
0.0479,2.377971862,0.0479,73.08605883,
0.04792,0.550820391,0.04792,73.45148913,
0.04794,0.550820391,0.04794,73.45148913,
0.04796,-2.007191668,0.04796,73.08605883,
0.04798,0.1853900968,0.04798,74.18234972,
0.048,-2.007191668,0.048,71.25890736,
0.04802,-4.199773433,0.04802,73.81691942,
0.04804,-2.007191668,0.04804,71.98976795,
0.04806,-1.27633108,0.04806,72.72062854,
0.04808,-1.27633108,0.04808,73.08605883,
0.0481,-0.1800401973,0.0481,72.72062854,
0.04812,-0.1800401973,0.04812,72.72062854,
0.04814,-0.1800401973,0.04814,72.72062854,
0.04816,-0.1800401973,0.04816,72.35519825,
0.04818,-0.1800401973,0.04818,72.72062854,
0.0482,-1.27633108,0.0482,73.08605883,
0.04822,-1.27633108,0.04822,72.35519825,
0.04824,0.1853900968,0.04824,72.72062854,
0.04826,-0.5454704915,0.04826,73.08605883,
0.04828,-2.007191668,0.04828,72.72062854,
0.0483,-0.5454704915,0.0483,72.72062854,
0.04832,-0.1800401973,0.04832,72.72062854,
0.04834,-0.1800401973,0.04834,72.35519825,
0.04836,1.281680979,0.04836,72.35519825,
0.04838,1.281680979,0.04838,72.72062854,
0.0484,0.550820391,0.0484,71.98976795,
0.04842,0.9162506852,0.04842,73.08605883,
0.04844,-0.1800401973,0.04844,72.72062854,
0.04846,0.1853900968,0.04846,72.35519825,
0.04848,1.647111274,0.04848,73.08605883,
0.0485,0.9162506852,0.0485,72.72062854,
0.04852,0.9162506852,0.04852,72.35519825,
0.04854,0.1853900968,0.04854,73.08605883,
0.04856,0.9162506852,0.04856,72.72062854,
0.04858,0.550820391,0.04858,72.35519825,
0.0486,2.012541568,0.0486,72.35519825,
0.04862,0.9162506852,0.04862,73.08605883,
0.04864,0.550820391,0.04864,72.35519825,
0.04866,1.281680979,0.04866,72.72062854,
0.04868,0.550820391,0.04868,73.08605883,
0.0487,0.1853900968,0.0487,72.35519825,
0.04872,0.9162506852,0.04872,73.08605883,
0.04874,-0.1800401973,0.04874,72.72062854,
0.04876,-1.641761374,0.04876,71.98976795,
0.04878,-0.9109007857,0.04878,72.72062854,
0.0488,-0.1800401973,0.0488,72.72062854,
0.04882,-0.9109007857,0.04882,72.72062854,
0.04884,-0.5454704915,0.04884,72.72062854,
0.04886,1.281680979,0.04886,72.72062854,
0.04888,-0.1800401973,0.04888,72.72062854,
0.0489,-0.5454704915,0.0489,72.72062854,
0.04892,2.377971862,0.04892,73.81691942,
0.04894,0.1853900968,0.04894,72.35519825,
0.04896,-3.103482551,0.04896,72.72062854,
0.04898,-2.738052257,0.04898,71.62433766,
0.049,-2.372621962,0.049,71.98976795,
0.04902,-2.007191668,0.04902,73.08605883,
0.04904,-2.372621962,0.04904,73.08605883,
0.04906,-0.5454704915,0.04906,73.08605883,
0.04908,-0.5454704915,0.04908,72.72062854,
0.0491,-0.5454704915,0.0491,72.72062854,
0.04912,0.9162506852,0.04912,72.72062854,
0.04914,1.281680979,0.04914,72.72062854,
0.04916,-0.5454704915,0.04916,73.08605883,
0.04918,-1.27633108,0.04918,72.72062854,
0.0492,-1.27633108,0.0492,73.08605883,
0.04922,-0.9109007857,0.04922,72.72062854,
0.04924,-1.27633108,0.04924,73.08605883,
0.04926,-0.5454704915,0.04926,72.72062854,
0.04928,0.9162506852,0.04928,73.08605883,
0.0493,0.550820391,0.0493,73.45148913,
0.04932,1.281680979,0.04932,73.08605883,
0.04934,1.647111274,0.04934,73.45148913,
0.04936,2.012541568,0.04936,73.08605883,
0.04938,0.550820391,0.04938,72.72062854,
0.0494,1.647111274,0.0494,73.08605883,
0.04942,0.1853900968,0.04942,73.08605883,
0.04944,-0.5454704915,0.04944,72.72062854,
0.04946,0.9162506852,0.04946,72.72062854,
0.04948,-0.1800401973,0.04948,73.08605883,
0.0495,-0.1800401973,0.0495,72.72062854,
0.04952,0.1853900968,0.04952,73.08605883,
0.04954,2.012541568,0.04954,73.08605883,
0.04956,1.281680979,0.04956,73.45148913,
0.04958,1.647111274,0.04958,73.08605883,
0.0496,0.9162506852,0.0496,73.08605883,
0.04962,1.281680979,0.04962,72.72062854,
0.04964,2.743402156,0.04964,73.08605883,
0.04966,0.550820391,0.04966,72.72062854,
0.04968,1.647111274,0.04968,72.72062854,
0.0497,0.9162506852,0.0497,72.72062854,
0.04972,0.550820391,0.04972,73.08605883,
0.04974,-0.5454704915,0.04974,73.45148913,
0.04976,0.1853900968,0.04976,72.72062854,
0.04978,-0.5454704915,0.04978,72.72062854,
0.0498,0.550820391,0.0498,73.08605883,
0.04982,0.1853900968,0.04982,73.08605883,
0.04984,0.550820391,0.04984,73.08605883,
0.04986,0.550820391,0.04986,72.72062854,
0.04988,-1.27633108,0.04988,73.81691942,
0.0499,1.281680979,0.0499,72.72062854,
0.04992,0.550820391,0.04992,73.45148913,
0.04994,-2.738052257,0.04994,74.18234972,
0.04996,-1.27633108,0.04996,71.98976795,
0.04998,-2.372621962,0.04998,72.72062854,
0.05,-2.372621962,0.05,73.45148913,
0.05002,-2.007191668,0.05002,72.72062854,
0.05004,0.550820391,0.05004,72.72062854,
0.05006,-0.9109007857,0.05006,73.08605883,
0.05008,-0.5454704915,0.05008,73.08605883,
0.0501,-0.5454704915,0.0501,72.72062854,
0.05012,0.1853900968,0.05012,73.45148913,
0.05014,-1.27633108,0.05014,73.08605883,
0.05016,-0.1800401973,0.05016,72.72062854,
0.05018,-0.9109007857,0.05018,73.45148913,
0.0502,-0.5454704915,0.0502,72.72062854,
0.05022,-0.1800401973,0.05022,72.72062854,
0.05024,-1.641761374,0.05024,73.45148913,
0.05026,0.1853900968,0.05026,73.08605883,
0.05028,0.550820391,0.05028,73.08605883,
0.0503,0.550820391,0.0503,73.45148913,
0.05032,0.9162506852,0.05032,73.08605883,
0.05034,1.281680979,0.05034,72.35519825,
0.05036,0.9162506852,0.05036,73.08605883,
0.05038,-0.5454704915,0.05038,73.08605883,
0.0504,0.550820391,0.0504,73.08605883,
0.05042,1.281680979,0.05042,73.45148913,
0.05044,0.550820391,0.05044,72.72062854,
0.05046,-0.1800401973,0.05046,72.35519825,
0.05048,-0.1800401973,0.05048,73.08605883,
0.0505,-0.9109007857,0.0505,72.35519825,
0.05052,1.647111274,0.05052,72.72062854,
0.05054,0.9162506852,0.05054,72.35519825,
0.05056,1.647111274,0.05056,73.08605883,
0.05058,2.012541568,0.05058,72.35519825,
0.0506,3.10883245,0.0506,73.45148913,
0.05062,0.9162506852,0.05062,72.72062854,
0.05064,1.647111274,0.05064,72.72062854,
0.05066,0.1853900968,0.05066,73.08605883,
0.05068,0.1853900968,0.05068,72.72062854,
0.0507,-0.5454704915,0.0507,72.72062854,
0.05072,0.1853900968,0.05072,72.72062854,
0.05074,-2.007191668,0.05074,72.72062854,
0.05076,0.1853900968,0.05076,73.08605883,
0.05078,0.1853900968,0.05078,73.45148913,
0.0508,0.1853900968,0.0508,72.72062854,
0.05082,0.1853900968,0.05082,71.62433766,
0.05084,-0.9109007857,0.05084,73.45148913,
0.05086,2.012541568,0.05086,72.35519825,
0.05088,0.550820391,0.05088,71.98976795,
0.0509,-0.1800401973,0.0509,74.18234972,
0.05092,-3.468912845,0.05092,73.08605883,
0.05094,-3.468912845,0.05094,72.72062854,
0.05096,-2.372621962,0.05096,73.81691942,
0.05098,-2.007191668,0.05098,73.08605883,
0.051,-2.372621962,0.051,71.98976795,
0.05102,0.1853900968,0.05102,73.45148913,
0.05104,-1.27633108,0.05104,72.72062854,
0.05106,0.1853900968,0.05106,72.72062854,
0.05108,-1.27633108,0.05108,73.45148913,
0.0511,-0.5454704915,0.0511,73.08605883,
0.05112,-0.5454704915,0.05112,73.08605883,
0.05114,-1.27633108,0.05114,73.08605883,
0.05116,-2.372621962,0.05116,73.08605883,
0.05118,-0.9109007857,0.05118,72.72062854,
0.0512,-1.641761374,0.0512,73.08605883,
0.05122,-2.372621962,0.05122,72.72062854,
0.05124,0.550820391,0.05124,72.72062854,
0.05126,0.550820391,0.05126,73.45148913,
0.05128,0.1853900968,0.05128,72.72062854,
0.0513,1.647111274,0.0513,73.08605883,
0.05132,1.281680979,0.05132,72.72062854,
0.05134,0.9162506852,0.05134,72.72062854,
0.05136,0.550820391,0.05136,72.72062854,
0.05138,-0.1800401973,0.05138,73.08605883,
0.0514,-0.1800401973,0.0514,72.72062854,
0.05142,0.1853900968,0.05142,72.35519825,
0.05144,0.550820391,0.05144,73.45148913,
0.05146,-0.1800401973,0.05146,73.08605883,
0.05148,0.550820391,0.05148,72.72062854,
0.0515,0.550820391,0.0515,73.08605883,
0.05152,1.647111274,0.05152,73.08605883,
0.05154,1.647111274,0.05154,72.35519825,
0.05156,1.647111274,0.05156,73.08605883,
0.05158,0.9162506852,0.05158,72.72062854,
0.0516,0.550820391,0.0516,72.72062854,
0.05162,0.9162506852,0.05162,73.08605883,
0.05164,0.9162506852,0.05164,72.35519825,
0.05166,0.1853900968,0.05166,73.08605883,
0.05168,1.281680979,0.05168,73.45148913,
0.0517,0.550820391,0.0517,72.72062854,
0.05172,-0.1800401973,0.05172,72.35519825,
0.05174,-0.5454704915,0.05174,73.45148913,
0.05176,-0.9109007857,0.05176,73.08605883,
0.05178,0.9162506852,0.05178,72.72062854,
0.0518,1.647111274,0.0518,73.08605883,
0.05182,-0.5454704915,0.05182,72.72062854,
0.05184,0.550820391,0.05184,72.72062854,
0.05186,-1.27633108,0.05186,73.45148913,
0.05188,-2.738052257,0.05188,72.72062854,
0.0519,-0.9109007857,0.0519,72.35519825,
0.05192,-3.468912845,0.05192,72.72062854,
0.05194,-2.738052257,0.05194,72.35519825,
0.05196,-2.007191668,0.05196,72.72062854,
0.05198,-1.641761374,0.05198,72.35519825,
0.052,-1.27633108,0.052,72.72062854,
0.05202,0.550820391,0.05202,72.35519825,
0.05204,-0.1800401973,0.05204,72.35519825,
0.05206,-0.1800401973,0.05206,72.35519825,
0.05208,0.9162506852,0.05208,72.72062854,
0.0521,-0.1800401973,0.0521,73.08605883,
0.05212,-1.641761374,0.05212,72.72062854,
0.05214,-1.641761374,0.05214,73.08605883,
0.05216,-1.27633108,0.05216,72.72062854,
0.05218,-1.641761374,0.05218,72.35519825,
0.0522,0.1853900968,0.0522,72.72062854,
0.05222,-1.27633108,0.05222,72.72062854,
0.05224,0.550820391,0.05224,71.98976795,
0.05226,0.9162506852,0.05226,72.72062854,
0.05228,0.1853900968,0.05228,73.08605883,
0.0523,1.647111274,0.0523,71.98976795,
0.05232,0.1853900968,0.05232,72.72062854,
0.05234,0.1853900968,0.05234,72.72062854,
0.05236,0.550820391,0.05236,72.72062854,
0.05238,0.1853900968,0.05238,73.08605883,
0.0524,-0.1800401973,0.0524,73.08605883,
0.05242,-0.9109007857,0.05242,72.72062854,
0.05244,-0.1800401973,0.05244,73.08605883,
0.05246,-0.5454704915,0.05246,72.72062854,
0.05248,1.281680979,0.05248,72.35519825,
0.0525,2.012541568,0.0525,73.08605883,
0.05252,2.743402156,0.05252,72.72062854,
0.05254,1.281680979,0.05254,72.35519825,
0.05256,0.9162506852,0.05256,73.08605883,
0.05258,0.1853900968,0.05258,73.08605883,
0.0526,1.281680979,0.0526,72.35519825,
0.05262,1.647111274,0.05262,72.72062854,
0.05264,1.281680979,0.05264,72.72062854,
0.05266,-1.641761374,0.05266,72.35519825,
0.05268,-1.27633108,0.05268,72.72062854,
0.0527,-0.1800401973,0.0527,73.08605883,
0.05272,0.9162506852,0.05272,72.72062854,
0.05274,0.550820391,0.05274,73.08605883,
0.05276,-0.1800401973,0.05276,73.08605883,
0.05278,0.9162506852,0.05278,72.72062854,
0.0528,-0.5454704915,0.0528,72.72062854,
0.05282,-0.9109007857,0.05282,74.18234972,
0.05284,0.550820391,0.05284,73.08605883,
0.05286,-0.5454704915,0.05286,73.08605883,
0.05288,0.9162506852,0.05288,73.45148913,
0.0529,-3.468912845,0.0529,73.45148913,
0.05292,-2.738052257,0.05292,72.72062854,
0.05294,-2.738052257,0.05294,72.35519825,
0.05296,-1.27633108,0.05296,72.35519825,
0.05298,-0.5454704915,0.05298,73.81691942,
0.053,-0.5454704915,0.053,73.08605883,
0.05302,-0.1800401973,0.05302,73.08605883,
0.05304,0.9162506852,0.05304,73.08605883,
0.05306,-0.9109007857,0.05306,72.35519825,
0.05308,-1.641761374,0.05308,72.72062854,
0.0531,-0.9109007857,0.0531,73.08605883,
0.05312,-0.9109007857,0.05312,72.72062854,
0.05314,-1.641761374,0.05314,73.08605883,
0.05316,-1.641761374,0.05316,72.72062854,
0.05318,-1.641761374,0.05318,72.35519825,
0.0532,-0.1800401973,0.0532,73.45148913,
0.05322,-0.1800401973,0.05322,73.08605883,
0.05324,1.281680979,0.05324,73.08605883,
0.05326,1.647111274,0.05326,73.08605883,
0.05328,0.550820391,0.05328,72.35519825,
0.0533,-0.9109007857,0.0533,72.35519825,
0.05332,-0.1800401973,0.05332,72.72062854,
0.05334,0.550820391,0.05334,72.72062854,
0.05336,0.550820391,0.05336,72.72062854,
0.05338,-0.1800401973,0.05338,73.08605883,
0.0534,0.1853900968,0.0534,72.72062854,
0.05342,-0.1800401973,0.05342,72.72062854,
0.05344,0.1853900968,0.05344,73.45148913,
0.05346,0.1853900968,0.05346,72.72062854,
0.05348,0.1853900968,0.05348,72.72062854,
0.0535,1.281680979,0.0535,72.72062854,
0.05352,0.550820391,0.05352,72.72062854,
0.05354,0.550820391,0.05354,72.72062854,
0.05356,1.281680979,0.05356,73.08605883,
0.05358,-0.9109007857,0.05358,72.72062854,
0.0536,0.1853900968,0.0536,72.72062854,
0.05362,0.1853900968,0.05362,73.08605883,
0.05364,-1.641761374,0.05364,72.72062854,
0.05366,-0.5454704915,0.05366,73.08605883,
0.05368,-0.5454704915,0.05368,73.45148913,
0.0537,-0.1800401973,0.0537,72.72062854,
0.05372,0.550820391,0.05372,72.72062854,
0.05374,0.1853900968,0.05374,73.08605883,
0.05376,-0.9109007857,0.05376,72.35519825,
0.05378,-1.27633108,0.05378,73.08605883,
0.0538,-2.738052257,0.0538,73.45148913,
0.05382,0.550820391,0.05382,72.72062854,
0.05384,-3.103482551,0.05384,73.08605883,
0.05386,-3.834343139,0.05386,71.62433766,
0.05388,-2.007191668,0.05388,73.45148913,
0.0539,-1.641761374,0.0539,72.72062854,
0.05392,-1.27633108,0.05392,72.72062854,
0.05394,0.1853900968,0.05394,71.62433766,
0.05396,-1.641761374,0.05396,73.08605883,
0.05398,-2.007191668,0.05398,72.72062854,
0.054,0.1853900968,0.054,73.08605883,
0.05402,-1.641761374,0.05402,73.45148913,
0.05404,-0.9109007857,0.05404,72.35519825,
0.05406,-2.007191668,0.05406,72.72062854,
0.05408,-1.641761374,0.05408,73.08605883,
0.0541,-2.007191668,0.0541,72.72062854,
0.05412,-0.1800401973,0.05412,72.35519825,
0.05414,-0.9109007857,0.05414,73.08605883,
0.05416,-0.1800401973,0.05416,72.72062854,
0.05418,-0.1800401973,0.05418,72.35519825,
0.0542,0.9162506852,0.0542,73.45148913,
0.05422,0.1853900968,0.05422,72.72062854,
0.05424,0.1853900968,0.05424,72.35519825,
0.05426,1.647111274,0.05426,73.08605883,
0.05428,-0.1800401973,0.05428,72.72062854,
0.0543,0.1853900968,0.0543,72.72062854,
0.05432,-0.1800401973,0.05432,73.45148913,
0.05434,-0.5454704915,0.05434,72.35519825,
0.05436,0.550820391,0.05436,72.72062854,
0.05438,0.9162506852,0.05438,73.45148913,
0.0544,-1.641761374,0.0544,72.72062854,
0.05442,-0.1800401973,0.05442,72.72062854,
0.05444,0.9162506852,0.05444,73.45148913,
0.05446,0.550820391,0.05446,72.72062854,
0.05448,1.647111274,0.05448,72.35519825,
0.0545,1.647111274,0.0545,73.45148913,
0.05452,1.281680979,0.05452,72.35519825,
0.05454,0.9162506852,0.05454,73.08605883,
0.05456,0.9162506852,0.05456,73.08605883,
0.05458,-0.5454704915,0.05458,72.35519825,
0.0546,-0.5454704915,0.0546,72.72062854,
0.05462,-1.27633108,0.05462,73.45148913,
0.05464,-0.9109007857,0.05464,72.72062854,
0.05466,-1.641761374,0.05466,72.72062854,
0.05468,0.550820391,0.05468,73.08605883,
0.0547,0.550820391,0.0547,72.72062854,
0.05472,-0.1800401973,0.05472,71.98976795,
0.05474,-2.007191668,0.05474,73.81691942,
0.05476,-0.5454704915,0.05476,72.35519825,
0.05478,-2.372621962,0.05478,71.62433766,
0.0548,-2.372621962,0.0548,71.62433766,
0.05482,-2.007191668,0.05482,70.89347707,
0.05484,0.550820391,0.05484,72.72062854,
0.05486,-2.372621962,0.05486,75.2786406,
0.05488,-1.641761374,0.05488,73.08605883,
0.0549,-2.372621962,0.0549,71.25890736,
0.05492,-1.641761374,0.05492,73.45148913,
0.05494,-1.27633108,0.05494,73.08605883,
0.05496,0.1853900968,0.05496,73.08605883,
0.05498,-0.5454704915,0.05498,73.45148913,
0.055,-0.9109007857,0.055,73.45148913,
0.05502,-0.5454704915,0.05502,72.72062854,
0.05504,-1.27633108,0.05504,73.08605883,
0.05506,-2.007191668,0.05506,72.72062854,
0.05508,-0.9109007857,0.05508,72.72062854,
0.0551,-1.641761374,0.0551,73.08605883,
0.05512,-0.9109007857,0.05512,72.72062854,
0.05514,-0.5454704915,0.05514,72.72062854,
0.05516,0.1853900968,0.05516,73.08605883,
0.05518,0.9162506852,0.05518,72.72062854,
0.0552,0.1853900968,0.0552,72.72062854,
0.05522,-0.1800401973,0.05522,73.45148913,
0.05524,0.550820391,0.05524,72.72062854,
0.05526,0.9162506852,0.05526,72.72062854,
0.05528,-0.1800401973,0.05528,73.45148913,
0.0553,-0.5454704915,0.0553,72.72062854,
0.05532,0.550820391,0.05532,72.72062854,
0.05534,-0.1800401973,0.05534,72.72062854,
0.05536,0.1853900968,0.05536,72.72062854,
0.05538,-0.9109007857,0.05538,72.72062854,
0.0554,-0.1800401973,0.0554,73.08605883,
0.05542,1.281680979,0.05542,72.35519825,
0.05544,1.647111274,0.05544,73.08605883,
0.05546,1.281680979,0.05546,73.08605883,
0.05548,2.012541568,0.05548,72.35519825,
0.0555,0.550820391,0.0555,72.35519825,
0.05552,0.1853900968,0.05552,73.45148913,
0.05554,-0.1800401973,0.05554,72.35519825,
0.05556,0.550820391,0.05556,72.35519825,
0.05558,-0.9109007857,0.05558,73.08605883,
0.0556,-1.641761374,0.0556,72.72062854,
0.05562,-1.27633108,0.05562,72.72062854,
0.05564,0.1853900968,0.05564,73.45148913,
0.05566,-0.5454704915,0.05566,72.72062854,
0.05568,0.550820391,0.05568,72.72062854,
0.0557,0.1853900968,0.0557,73.81691942,
0.05572,-2.007191668,0.05572,73.45148913,
0.05574,-1.27633108,0.05574,72.72062854,
0.05576,1.647111274,0.05576,74.18234972,
0.05578,-0.1800401973,0.05578,72.35519825,
0.0558,-2.738052257,0.0558,71.62433766,
0.05582,-0.9109007857,0.05582,73.45148913,
0.05584,-2.372621962,0.05584,72.72062854,
0.05586,0.1853900968,0.05586,71.62433766,
0.05588,-1.641761374,0.05588,73.08605883,
0.0559,-2.007191668,0.0559,73.08605883,
0.05592,0.1853900968,0.05592,73.08605883,
0.05594,-0.1800401973,0.05594,73.45148913,
0.05596,-0.1800401973,0.05596,73.08605883,
0.05598,0.550820391,0.05598,72.72062854,
0.056,-0.1800401973,0.056,73.08605883,
0.05602,-0.9109007857,0.05602,72.72062854,
0.05604,-0.5454704915,0.05604,72.72062854,
0.05606,-2.007191668,0.05606,73.45148913,
0.05608,-1.27633108,0.05608,73.45148913,
0.0561,-0.9109007857,0.0561,72.72062854,
0.05612,-1.27633108,0.05612,73.45148913,
0.05614,0.1853900968,0.05614,72.72062854,
0.05616,1.281680979,0.05616,72.72062854,
0.05618,0.9162506852,0.05618,73.45148913,
0.0562,1.647111274,0.0562,72.72062854,
0.05622,0.550820391,0.05622,72.72062854,
0.05624,0.550820391,0.05624,73.08605883,
0.05626,-0.5454704915,0.05626,73.08605883,
0.05628,0.9162506852,0.05628,72.72062854,
0.0563,0.550820391,0.0563,73.08605883,
0.05632,-0.5454704915,0.05632,72.72062854,
0.05634,-0.5454704915,0.05634,73.08605883,
0.05636,0.1853900968,0.05636,73.45148913,
0.05638,0.1853900968,0.05638,72.72062854,
0.0564,0.9162506852,0.0564,72.35519825,
0.05642,2.012541568,0.05642,73.08605883,
0.05644,0.9162506852,0.05644,72.72062854,
0.05646,0.550820391,0.05646,72.72062854,
0.05648,1.647111274,0.05648,73.08605883,
0.0565,-0.5454704915,0.0565,72.72062854,
0.05652,0.550820391,0.05652,72.72062854,
0.05654,0.9162506852,0.05654,72.72062854,
0.05656,-0.9109007857,0.05656,72.35519825,
0.05658,-0.5454704915,0.05658,72.35519825,
0.0566,-0.9109007857,0.0566,73.08605883,
0.05662,-0.5454704915,0.05662,72.72062854,
0.05664,0.1853900968,0.05664,72.35519825,
0.05666,0.9162506852,0.05666,73.08605883,
0.05668,2.012541568,0.05668,73.08605883,
0.0567,1.647111274,0.0567,72.35519825,
0.05672,-0.1800401973,0.05672,73.45148913,
0.05674,-0.9109007857,0.05674,72.72062854,
0.05676,-2.372621962,0.05676,73.08605883,
0.05678,-1.641761374,0.05678,71.62433766,
0.0568,-2.007191668,0.0568,71.62433766,
0.05682,-2.007191668,0.05682,72.35519825,
0.05684,-2.738052257,0.05684,73.08605883,
0.05686,-2.738052257,0.05686,73.45148913,
0.05688,-2.372621962,0.05688,73.08605883,
0.0569,0.550820391,0.0569,73.45148913,
0.05692,-0.9109007857,0.05692,73.08605883,
0.05694,-1.27633108,0.05694,72.35519825,
0.05696,-0.5454704915,0.05696,73.08605883,
0.05698,-0.5454704915,0.05698,72.72062854,
0.057,-0.5454704915,0.057,72.72062854,
0.05702,-2.372621962,0.05702,73.45148913,
0.05704,-2.372621962,0.05704,73.08605883,
0.05706,-0.9109007857,0.05706,72.72062854,
0.05708,-0.5454704915,0.05708,73.45148913,
0.0571,-0.5454704915,0.0571,72.72062854,
0.05712,-0.5454704915,0.05712,73.08605883,
0.05714,0.550820391,0.05714,73.08605883,
0.05716,0.1853900968,0.05716,72.72062854,
0.05718,0.9162506852,0.05718,72.72062854,
0.0572,0.1853900968,0.0572,73.08605883,
0.05722,0.550820391,0.05722,73.08605883,
0.05724,-0.1800401973,0.05724,72.35519825,
0.05726,-0.5454704915,0.05726,72.72062854,
0.05728,-0.1800401973,0.05728,72.72062854,
0.0573,1.281680979,0.0573,72.72062854,
0.05732,0.1853900968,0.05732,73.08605883,
0.05734,-0.1800401973,0.05734,72.72062854,
0.05736,0.9162506852,0.05736,72.72062854,
0.05738,0.550820391,0.05738,73.45148913,
0.0574,1.281680979,0.0574,72.72062854,
0.05742,1.647111274,0.05742,72.72062854,
0.05744,1.647111274,0.05744,73.45148913,
0.05746,0.550820391,0.05746,73.08605883,
0.05748,2.012541568,0.05748,72.35519825,
0.0575,-0.1800401973,0.0575,73.08605883,
0.05752,-0.5454704915,0.05752,72.35519825,
0.05754,-0.1800401973,0.05754,73.08605883,
0.05756,-1.27633108,0.05756,72.35519825,
0.05758,0.550820391,0.05758,72.72062854,
0.0576,-0.5454704915,0.0576,72.72062854,
0.05762,0.1853900968,0.05762,72.35519825,
0.05764,1.647111274,0.05764,72.35519825,
0.05766,0.550820391,0.05766,73.08605883,
0.05768,-0.1800401973,0.05768,71.25890736,
0.0577,0.550820391,0.0577,72.35519825,
0.05772,-1.27633108,0.05772,72.72062854,
0.05774,-0.9109007857,0.05774,71.25890736,
0.05776,-3.468912845,0.05776,73.08605883,
0.05778,-4.565203727,0.05778,72.35519825,
0.0578,-2.007191668,0.0578,73.08605883,
0.05782,-0.9109007857,0.05782,73.08605883,
0.05784,-2.372621962,0.05784,72.35519825,
0.05786,-0.5454704915,0.05786,72.72062854,
0.05788,-0.5454704915,0.05788,72.35519825,
0.0579,-0.9109007857,0.0579,72.72062854,
0.05792,0.9162506852,0.05792,72.35519825,
