"A0_accX_x","A0_accX_y","A1_rmsX_x","A1_rmsX_y"
0,0.0957792801,0,70.16261648,
2e-05,-1.365941897,2e-05,71.25890736,
4e-05,0.8266398684,4e-05,70.16261648,
6e-05,0.8266398684,6e-05,69.79718619,
8e-05,-1.731372191,8e-05,69.79718619,
0.0001,-2.827663073,0.0001,70.16261648,
0.00012,-0.2696510141,0.00012,71.25890736,
0.00014,-0.2696510141,0.00014,69.43175589,
0.00016,-1.731372191,0.00016,70.16261648,
0.00018,-1.731372191,0.00018,70.52804678,
0.0002,-1.365941897,0.0002,70.16261648,
0.00022,0.4612095743,0.00022,70.52804678,
0.00024,1.192070163,0.00024,70.52804678,
0.00026,0.0957792801,0.00026,70.89347707,
0.00028,0.0957792801,0.00028,69.79718619,
0.0003,0.4612095743,0.0003,70.16261648,
0.00032,-1.365941897,0.00032,70.16261648,
0.00034,-1.000511602,0.00034,70.16261648,
0.00036,-1.731372191,0.00036,70.16261648,
0.00038,-0.6350813082,0.00038,70.89347707,
0.0004,-0.2696510141,0.0004,70.16261648,
0.00042,1.192070163,0.00042,70.52804678,
0.00044,1.192070163,0.00044,70.89347707,
0.00046,1.192070163,0.00046,69.79718619,
0.00048,1.557500457,0.00048,70.52804678,
0.0005,2.288361045,0.0005,70.52804678,
0.00052,0.4612095743,0.00052,70.16261648,
0.00054,0.8266398684,0.00054,70.16261648,
0.00056,0.8266398684,0.00056,70.16261648,
0.00058,1.922930751,0.00058,70.16261648,
0.0006,1.557500457,0.0006,69.79718619,
0.00062,-0.2696510141,0.00062,70.52804678,
0.00064,-0.6350813082,0.00064,69.79718619,
0.00066,0.8266398684,0.00066,70.52804678,
0.00068,1.922930751,0.00068,69.79718619,
0.0007,2.288361045,0.0007,69.79718619,
0.00072,1.922930751,0.00072,70.52804678,
0.00074,1.922930751,0.00074,70.16261648,
0.00076,1.557500457,0.00076,70.16261648,
0.00078,1.922930751,0.00078,70.52804678,
0.0008,1.192070163,0.0008,70.52804678,
0.00082,0.8266398684,0.00082,70.16261648,
0.00084,0.8266398684,0.00084,70.16261648,
0.00086,0.0957792801,0.00086,70.16261648,
0.00088,-1.000511602,0.00088,69.79718619,
0.0009,0.0957792801,0.0009,70.16261648,
0.00092,0.8266398684,0.00092,70.16261648,
0.00094,0.8266398684,0.00094,69.79718619,
0.00096,2.288361045,0.00096,70.16261648,
0.00098,1.192070163,0.00098,70.16261648,
0.001,0.0957792801,0.001,69.79718619,
0.00102,0.0957792801,0.00102,69.43175589,
0.00104,-1.365941897,0.00104,69.79718619,
0.00106,-2.827663073,0.00106,70.52804678,
0.00108,0.4612095743,0.00108,70.89347707,
0.0011,-1.731372191,0.0011,70.16261648,
0.00112,-2.096802485,0.00112,70.52804678,
0.00114,-1.731372191,0.00114,70.52804678,
0.00116,-0.2696510141,0.00116,70.16261648,
0.00118,1.192070163,0.00118,70.16261648,
0.0012,-1.365941897,0.0012,70.52804678,
0.00122,0.0957792801,0.00122,70.16261648,
0.00124,-1.000511602,0.00124,70.16261648,
0.00126,-0.2696510141,0.00126,70.16261648,
0.00128,-1.000511602,0.00128,70.52804678,
0.0013,-1.365941897,0.0013,70.16261648,
0.00132,-2.096802485,0.00132,70.16261648,
0.00134,0.0957792801,0.00134,70.52804678,
0.00136,-0.2696510141,0.00136,69.43175589,
0.00138,-0.2696510141,0.00138,70.16261648,
0.0014,0.8266398684,0.0014,70.52804678,
0.00142,-0.2696510141,0.00142,70.16261648,
0.00144,1.192070163,0.00144,70.16261648,
0.00146,1.922930751,0.00146,70.16261648,
0.00148,0.0957792801,0.00148,69.79718619,
0.0015,2.288361045,0.0015,70.52804678,
0.00152,1.557500457,0.00152,70.52804678,
0.00154,0.4612095743,0.00154,70.52804678,
0.00156,0.4612095743,0.00156,70.52804678,
0.00158,0.8266398684,0.00158,70.16261648,
0.0016,1.192070163,0.0016,69.79718619,
0.00162,0.8266398684,0.00162,70.16261648,
0.00164,1.192070163,0.00164,70.52804678,
0.00166,1.557500457,0.00166,70.16261648,
0.00168,0.0957792801,0.00168,70.52804678,
0.0017,1.922930751,0.0017,70.52804678,
0.00172,1.557500457,0.00172,70.16261648,
0.00174,2.288361045,0.00174,69.79718619,
0.00176,1.922930751,0.00176,70.52804678,
0.00178,0.8266398684,0.00178,70.16261648,
0.0018,0.4612095743,0.0018,70.16261648,
0.00182,0.4612095743,0.00182,70.52804678,
0.00184,-0.6350813082,0.00184,69.43175589,
0.00186,-1.731372191,0.00186,70.52804678,
0.00188,-0.2696510141,0.00188,70.52804678,
0.0019,0.0957792801,0.0019,70.16261648,
0.00192,0.4612095743,0.00192,70.52804678,
0.00194,1.192070163,0.00194,70.52804678,
0.00196,0.0957792801,0.00196,71.25890736,
0.00198,0.8266398684,0.00198,70.16261648,
0.002,0.0957792801,0.002,70.52804678,
0.00202,-2.096802485,0.00202,70.89347707,
0.00204,-1.731372191,0.00204,69.79718619,
0.00206,-3.193093367,0.00206,70.52804678,
0.00208,-2.827663073,0.00208,70.89347707,
0.0021,-2.096802485,0.0021,69.43175589,
0.00212,-1.365941897,0.00212,70.52804678,
0.00214,-1.000511602,0.00214,70.52804678,
0.00216,0.0957792801,0.00216,70.52804678,
0.00218,-1.000511602,0.00218,69.79718619,
0.0022,-1.000511602,0.0022,71.25890736,
0.00222,-0.2696510141,0.00222,69.43175589,
0.00224,-0.6350813082,0.00224,70.52804678,
0.00226,-0.6350813082,0.00226,71.25890736,
0.00228,-1.731372191,0.00228,70.52804678,
0.0023,-0.6350813082,0.0023,70.52804678,
0.00232,-1.000511602,0.00232,70.89347707,
0.00234,-0.6350813082,0.00234,70.52804678,
0.00236,0.8266398684,0.00236,70.16261648,
0.00238,0.4612095743,0.00238,70.52804678,
0.0024,0.0957792801,0.0024,70.52804678,
0.00242,0.8266398684,0.00242,69.79718619,
0.00244,0.4612095743,0.00244,70.89347707,
0.00246,0.4612095743,0.00246,70.16261648,
0.00248,0.8266398684,0.00248,70.16261648,
0.0025,1.192070163,0.0025,70.89347707,
0.00252,-0.2696510141,0.00252,70.16261648,
0.00254,1.557500457,0.00254,70.16261648,
0.00256,0.8266398684,0.00256,70.52804678,
0.00258,-0.2696510141,0.00258,70.16261648,
0.0026,1.192070163,0.0026,70.16261648,
0.00262,0.0957792801,0.00262,71.25890736,
0.00264,0.8266398684,0.00264,70.52804678,
0.00266,1.557500457,0.00266,70.16261648,
0.00268,2.288361045,0.00268,70.52804678,
0.0027,0.4612095743,0.0027,70.16261648,
0.00272,1.557500457,0.00272,70.16261648,
0.00274,2.288361045,0.00274,70.89347707,
0.00276,1.192070163,0.00276,70.52804678,
0.00278,0.4612095743,0.00278,70.16261648,
0.0028,-0.6350813082,0.0028,70.52804678,
0.00282,-1.731372191,0.00282,70.52804678,
0.00284,-1.365941897,0.00284,69.79718619,
0.00286,0.0957792801,0.00286,70.52804678,
0.00288,-0.2696510141,0.00288,70.16261648,
0.0029,0.0957792801,0.0029,70.16261648,
0.00292,1.557500457,0.00292,70.16261648,
0.00294,-0.6350813082,0.00294,69.79718619,
0.00296,-0.6350813082,0.00296,70.16261648,
0.00298,-1.731372191,0.00298,69.43175589,
0.003,-1.365941897,0.003,71.25890736,
0.00302,-1.731372191,0.00302,69.43175589,
0.00304,-0.6350813082,0.00304,70.89347707,
0.00306,-2.827663073,0.00306,71.25890736,
0.00308,-4.28938425,0.00308,70.16261648,
0.0031,-2.096802485,0.0031,70.89347707,
0.00312,-1.731372191,0.00312,70.16261648,
0.00314,0.0957792801,0.00314,70.52804678,
0.00316,-1.000511602,0.00316,70.89347707,
0.00318,-0.2696510141,0.00318,70.52804678,
0.0032,0.8266398684,0.0032,70.52804678,
0.00322,-1.000511602,0.00322,70.52804678,
0.00324,-0.6350813082,0.00324,70.89347707,
0.00326,-0.6350813082,0.00326,70.52804678,
0.00328,-1.000511602,0.00328,70.52804678,
0.0033,-0.6350813082,0.0033,70.52804678,
0.00332,0.4612095743,0.00332,70.52804678,
0.00334,1.922930751,0.00334,70.89347707,
0.00336,0.8266398684,0.00336,70.89347707,
0.00338,1.192070163,0.00338,70.52804678,
0.0034,1.557500457,0.0034,70.52804678,
0.00342,1.922930751,0.00342,70.89347707,
0.00344,0.8266398684,0.00344,70.52804678,
0.00346,1.192070163,0.00346,70.16261648,
0.00348,2.288361045,0.00348,70.89347707,
0.0035,-0.2696510141,0.0035,70.52804678,
0.00352,0.8266398684,0.00352,70.16261648,
0.00354,-0.6350813082,0.00354,70.89347707,
0.00356,0.4612095743,0.00356,70.16261648,
0.00358,0.4612095743,0.00358,70.89347707,
0.0036,0.4612095743,0.0036,70.16261648,
0.00362,0.8266398684,0.00362,70.16261648,
0.00364,1.557500457,0.00364,70.52804678,
0.00366,1.557500457,0.00366,70.89347707,
0.00368,1.922930751,0.00368,70.16261648,
0.0037,2.288361045,0.0037,70.89347707,
0.00372,0.8266398684,0.00372,70.52804678,
0.00374,0.4612095743,0.00374,70.16261648,
0.00376,-0.2696510141,0.00376,71.25890736,
0.00378,-0.2696510141,0.00378,70.16261648,
0.0038,-0.2696510141,0.0038,70.16261648,
0.00382,-1.000511602,0.00382,70.89347707,
0.00384,-1.000511602,0.00384,71.25890736,
0.00386,0.8266398684,0.00386,70.89347707,
0.00388,0.8266398684,0.00388,70.52804678,
0.0039,2.653791339,0.0039,70.89347707,
0.00392,0.8266398684,0.00392,70.52804678,
0.00394,-1.000511602,0.00394,70.89347707,
0.00396,1.922930751,0.00396,70.52804678,
0.00398,0.8266398684,0.00398,70.52804678,
0.004,-2.096802485,0.004,69.79718619,
0.00402,-0.2696510141,0.00402,70.52804678,
0.00404,0.8266398684,0.00404,71.62433766,
0.00406,-2.827663073,0.00406,69.43175589,
0.00408,0.0957792801,0.00408,69.79718619,
0.0041,0.4612095743,0.0041,70.89347707,
0.00412,-0.2696510141,0.00412,70.52804678,
0.00414,0.4612095743,0.00414,70.52804678,
0.00416,0.4612095743,0.00416,70.89347707,
0.00418,-1.365941897,0.00418,70.89347707,
0.0042,0.4612095743,0.0042,70.16261648,
0.00422,-0.6350813082,0.00422,70.52804678,
0.00424,-1.000511602,0.00424,70.52804678,
0.00426,-0.2696510141,0.00426,70.52804678,
0.00428,-0.2696510141,0.00428,70.89347707,
0.0043,-2.096802485,0.0043,70.52804678,
0.00432,0.0957792801,0.00432,70.16261648,
0.00434,1.192070163,0.00434,70.89347707,
0.00436,0.8266398684,0.00436,70.16261648,
0.00438,1.557500457,0.00438,70.52804678,
0.0044,1.557500457,0.0044,70.89347707,
0.00442,0.8266398684,0.00442,70.16261648,
0.00444,1.557500457,0.00444,70.16261648,
0.00446,-0.6350813082,0.00446,70.52804678,
0.00448,1.557500457,0.00448,70.52804678,
0.0045,1.557500457,0.0045,70.52804678,
0.00452,1.192070163,0.00452,70.52804678,
0.00454,0.0957792801,0.00454,70.89347707,
0.00456,1.557500457,0.00456,70.16261648,
0.00458,0.8266398684,0.00458,70.52804678,
0.0046,1.192070163,0.0046,70.16261648,
0.00462,3.384651928,0.00462,70.16261648,
0.00464,1.922930751,0.00464,70.52804678,
0.00466,1.922930751,0.00466,70.52804678,
0.00468,1.922930751,0.00468,70.16261648,
0.0047,1.557500457,0.0047,70.52804678,
0.00472,1.557500457,0.00472,70.52804678,
0.00474,1.192070163,0.00474,70.52804678,
0.00476,0.0957792801,0.00476,70.89347707,
0.00478,-0.6350813082,0.00478,70.52804678,
0.0048,0.4612095743,0.0048,70.16261648,
0.00482,-0.2696510141,0.00482,70.89347707,
0.00484,-0.6350813082,0.00484,70.16261648,
0.00486,1.192070163,0.00486,70.16261648,
0.00488,0.8266398684,0.00488,71.25890736,
0.0049,-0.2696510141,0.0049,70.89347707,
0.00492,0.4612095743,0.00492,69.79718619,
0.00494,-1.365941897,0.00494,71.25890736,
0.00496,-2.462232779,0.00496,70.52804678,
0.00498,-1.365941897,0.00498,70.52804678,
0.005,-1.731372191,0.005,70.16261648,
0.00502,-2.462232779,0.00502,69.43175589,
0.00504,-2.096802485,0.00504,70.52804678,
0.00506,-1.731372191,0.00506,70.89347707,
0.00508,-0.6350813082,0.00508,70.52804678,
0.0051,-1.731372191,0.0051,69.79718619,
0.00512,-1.000511602,0.00512,70.52804678,
0.00514,0.0957792801,0.00514,70.16261648,
0.00516,-0.2696510141,0.00516,70.16261648,
0.00518,-0.2696510141,0.00518,71.25890736,
0.0052,-1.000511602,0.0052,70.89347707,
0.00522,-0.2696510141,0.00522,70.52804678,
0.00524,-0.6350813082,0.00524,70.52804678,
0.00526,-1.365941897,0.00526,70.52804678,
0.00528,0.8266398684,0.00528,70.52804678,
0.0053,0.8266398684,0.0053,70.52804678,
0.00532,0.8266398684,0.00532,70.52804678,
0.00534,1.192070163,0.00534,70.52804678,
0.00536,0.0957792801,0.00536,70.89347707,
0.00538,0.0957792801,0.00538,70.52804678,
0.0054,0.4612095743,0.0054,70.16261648,
0.00542,1.922930751,0.00542,70.89347707,
0.00544,1.922930751,0.00544,70.52804678,
0.00546,1.557500457,0.00546,70.16261648,
0.00548,0.4612095743,0.00548,70.52804678,
0.0055,1.557500457,0.0055,70.52804678,
0.00552,1.192070163,0.00552,70.52804678,
0.00554,1.192070163,0.00554,70.52804678,
0.00556,0.4612095743,0.00556,70.52804678,
0.00558,1.557500457,0.00558,70.16261648,
0.0056,1.192070163,0.0056,70.89347707,
0.00562,1.922930751,0.00562,70.16261648,
0.00564,1.557500457,0.00564,70.52804678,
0.00566,1.557500457,0.00566,70.89347707,
0.00568,1.557500457,0.00568,70.52804678,
0.0057,1.192070163,0.0057,70.16261648,
0.00572,0.8266398684,0.00572,70.89347707,
0.00574,-0.2696510141,0.00574,70.16261648,
0.00576,-0.2696510141,0.00576,70.16261648,
0.00578,-0.2696510141,0.00578,69.79718619,
0.0058,-1.365941897,0.0058,70.16261648,
0.00582,0.4612095743,0.00582,70.16261648,
0.00584,-0.2696510141,0.00584,69.79718619,
0.00586,0.0957792801,0.00586,70.52804678,
0.00588,0.0957792801,0.00588,70.16261648,
0.0059,-0.6350813082,0.0059,69.0663256,
0.00592,-0.2696510141,0.00592,70.52804678,
0.00594,1.557500457,0.00594,70.89347707,
0.00596,-2.462232779,0.00596,69.79718619,
0.00598,-0.6350813082,0.00598,70.16261648,
0.006,-2.827663073,0.006,71.25890736,
0.00602,-0.2696510141,0.00602,68.7008953,
0.00604,1.557500457,0.00604,70.52804678,
0.00606,-1.000511602,0.00606,69.43175589,
0.00608,-0.2696510141,0.00608,69.79718619,
0.0061,0.4612095743,0.0061,70.52804678,
0.00612,1.192070163,0.00612,69.43175589,
0.00614,-0.6350813082,0.00614,69.43175589,
0.00616,-0.6350813082,0.00616,70.52804678,
0.00618,-1.731372191,0.00618,70.16261648,
0.0062,-1.731372191,0.0062,69.79718619,
0.00622,0.0957792801,0.00622,70.16261648,
0.00624,-0.2696510141,0.00624,70.52804678,
0.00626,-0.2696510141,0.00626,70.16261648,
0.00628,-0.2696510141,0.00628,70.52804678,
0.0063,0.0957792801,0.0063,70.16261648,
0.00632,-0.2696510141,0.00632,69.79718619,
0.00634,0.4612095743,0.00634,69.79718619,
0.00636,1.557500457,0.00636,70.16261648,
0.00638,0.0957792801,0.00638,70.16261648,
0.0064,0.8266398684,0.0064,70.52804678,
0.00642,0.0957792801,0.00642,70.16261648,
0.00644,-0.2696510141,0.00644,70.16261648,
0.00646,0.8266398684,0.00646,69.79718619,
0.00648,2.288361045,0.00648,70.16261648,
0.0065,0.4612095743,0.0065,69.43175589,
0.00652,0.8266398684,0.00652,70.16261648,
0.00654,0.4612095743,0.00654,70.52804678,
0.00656,0.8266398684,0.00656,69.79718619,
0.00658,2.288361045,0.00658,70.52804678,
0.0066,2.288361045,0.0066,70.16261648,
0.00662,1.557500457,0.00662,69.79718619,
0.00664,2.653791339,0.00664,70.16261648,
0.00666,1.192070163,0.00666,70.16261648,
0.00668,1.192070163,0.00668,70.16261648,
0.0067,1.192070163,0.0067,70.16261648,
0.00672,0.4612095743,0.00672,70.52804678,
0.00674,0.0957792801,0.00674,69.79718619,
0.00676,0.0957792801,0.00676,70.52804678,
0.00678,0.8266398684,0.00678,70.52804678,
0.0068,0.8266398684,0.0068,70.16261648,
0.00682,1.922930751,0.00682,70.52804678,
0.00684,0.0957792801,0.00684,70.52804678,
0.00686,-0.6350813082,0.00686,69.0663256,
0.00688,-0.6350813082,0.00688,70.16261648,
0.0069,-1.365941897,0.0069,70.16261648,
0.00692,1.922930751,0.00692,69.43175589,
0.00694,-1.000511602,0.00694,70.16261648,
0.00696,-3.193093367,0.00696,70.52804678,
0.00698,-2.462232779,0.00698,69.79718619,
0.007,-2.096802485,0.007,71.25890736,
0.00702,-0.6350813082,0.00702,70.52804678,
0.00704,-0.6350813082,0.00704,70.16261648,
0.00706,0.4612095743,0.00706,69.79718619,
0.00708,0.4612095743,0.00708,70.16261648,
0.0071,-1.000511602,0.0071,70.16261648,
0.00712,0.8266398684,0.00712,70.16261648,
0.00714,-1.365941897,0.00714,70.52804678,
0.00716,-1.731372191,0.00716,70.16261648,
0.00718,-1.000511602,0.00718,69.79718619,
0.0072,-1.000511602,0.0072,70.16261648,
0.00722,-1.000511602,0.00722,70.16261648,
0.00724,-1.000511602,0.00724,70.52804678,
0.00726,0.0957792801,0.00726,70.52804678,
0.00728,1.192070163,0.00728,70.16261648,
0.0073,0.4612095743,0.0073,69.79718619,
0.00732,0.8266398684,0.00732,70.16261648,
0.00734,-0.2696510141,0.00734,70.16261648,
0.00736,2.288361045,0.00736,70.16261648,
0.00738,0.8266398684,0.00738,70.52804678,
0.0074,0.8266398684,0.0074,70.16261648,
0.00742,1.557500457,0.00742,70.16261648,
0.00744,1.557500457,0.00744,70.52804678,
0.00746,0.4612095743,0.00746,70.16261648,
0.00748,0.4612095743,0.00748,70.52804678,
0.0075,1.192070163,0.0075,70.52804678,
0.00752,0.8266398684,0.00752,70.16261648,
0.00754,0.8266398684,0.00754,70.16261648,
0.00756,1.922930751,0.00756,70.52804678,
0.00758,2.288361045,0.00758,69.79718619,
0.0076,1.922930751,0.0076,70.16261648,
0.00762,1.557500457,0.00762,70.52804678,
0.00764,0.4612095743,0.00764,70.52804678,
0.00766,-0.2696510141,0.00766,69.79718619,
0.00768,0.0957792801,0.00768,70.16261648,
0.0077,0.4612095743,0.0077,70.52804678,
0.00772,0.0957792801,0.00772,70.16261648,
0.00774,0.4612095743,0.00774,70.52804678,
0.00776,1.192070163,0.00776,70.89347707,
0.00778,0.0957792801,0.00778,70.16261648,
0.0078,0.4612095743,0.0078,70.52804678,
0.00782,0.4612095743,0.00782,70.52804678,
0.00784,-0.2696510141,0.00784,70.16261648,
0.00786,-0.6350813082,0.00786,70.52804678,
0.00788,0.4612095743,0.00788,71.62433766,
0.0079,-2.096802485,0.0079,70.52804678,
0.00792,0.0957792801,0.00792,69.79718619,
0.00794,-3.923953956,0.00794,69.79718619,
0.00796,-1.000511602,0.00796,70.52804678,
0.00798,-2.096802485,0.00798,70.16261648,
0.008,-1.731372191,0.008,70.52804678,
0.00802,-1.000511602,0.00802,70.52804678,
0.00804,0.4612095743,0.00804,70.16261648,
0.00806,0.4612095743,0.00806,70.52804678,
0.00808,-0.6350813082,0.00808,70.52804678,
0.0081,-1.000511602,0.0081,70.16261648,
0.00812,0.0957792801,0.00812,70.52804678,
0.00814,-2.096802485,0.00814,70.16261648,
0.00816,-1.731372191,0.00816,69.79718619,
0.00818,-1.000511602,0.00818,70.89347707,
0.0082,-1.000511602,0.0082,70.16261648,
0.00822,0.0957792801,0.00822,69.79718619,
0.00824,0.8266398684,0.00824,70.52804678,
0.00826,0.0957792801,0.00826,70.16261648,
0.00828,0.8266398684,0.00828,70.16261648,
0.0083,0.8266398684,0.0083,70.89347707,
0.00832,0.8266398684,0.00832,70.16261648,
0.00834,1.192070163,0.00834,69.79718619,
0.00836,0.4612095743,0.00836,69.79718619,
0.00838,1.192070163,0.00838,70.52804678,
0.0084,0.8266398684,0.0084,70.52804678,
0.00842,0.0957792801,0.00842,70.16261648,
0.00844,0.8266398684,0.00844,70.52804678,
0.00846,-0.2696510141,0.00846,70.16261648,
0.00848,0.8266398684,0.00848,70.16261648,
0.0085,0.8266398684,0.0085,70.52804678,
0.00852,0.4612095743,0.00852,70.52804678,
0.00854,1.557500457,0.00854,70.16261648,
0.00856,2.653791339,0.00856,70.16261648,
0.00858,1.922930751,0.00858,70.52804678,
0.0086,2.288361045,0.0086,70.52804678,
0.00862,2.288361045,0.00862,70.52804678,
0.00864,-0.2696510141,0.00864,70.52804678,
0.00866,1.557500457,0.00866,69.79718619,
0.00868,-0.6350813082,0.00868,70.52804678,
0.0087,-1.365941897,0.0087,70.52804678,
0.00872,0.4612095743,0.00872,70.16261648,
0.00874,0.8266398684,0.00874,70.16261648,
0.00876,0.4612095743,0.00876,70.16261648,
0.00878,0.8266398684,0.00878,70.16261648,
0.0088,0.4612095743,0.0088,70.89347707,
0.00882,2.288361045,0.00882,70.52804678,
0.00884,0.0957792801,0.00884,70.89347707,
0.00886,-1.731372191,0.00886,71.25890736,
0.00888,0.4612095743,0.00888,70.52804678,
0.0089,-2.096802485,0.0089,69.43175589,
0.00892,-2.462232779,0.00892,70.89347707,
0.00894,-1.731372191,0.00894,70.52804678,
0.00896,0.0957792801,0.00896,70.52804678,
0.00898,-0.2696510141,0.00898,70.89347707,
0.009,-1.000511602,0.009,70.52804678,
0.00902,0.4612095743,0.00902,70.16261648,
0.00904,1.192070163,0.00904,70.52804678,
0.00906,-1.365941897,0.00906,70.89347707,
0.00908,-0.2696510141,0.00908,70.52804678,
0.0091,0.0957792801,0.0091,70.89347707,
0.00912,-2.096802485,0.00912,70.89347707,
0.00914,-0.2696510141,0.00914,70.52804678,
0.00916,-0.6350813082,0.00916,70.52804678,
0.00918,-1.365941897,0.00918,70.52804678,
0.0092,-0.6350813082,0.0092,70.16261648,
0.00922,1.192070163,0.00922,70.52804678,
0.00924,0.8266398684,0.00924,70.52804678,
0.00926,3.019221633,0.00926,70.16261648,
0.00928,1.192070163,0.00928,70.89347707,
0.0093,0.8266398684,0.0093,70.16261648,
0.00932,1.192070163,0.00932,70.52804678,
0.00934,0.4612095743,0.00934,70.52804678,
0.00936,0.8266398684,0.00936,70.16261648,
0.00938,1.192070163,0.00938,70.52804678,
0.0094,1.192070163,0.0094,70.52804678,
0.00942,-0.2696510141,0.00942,70.52804678,
0.00944,0.4612095743,0.00944,70.16261648,
0.00946,1.557500457,0.00946,70.52804678,
0.00948,-0.6350813082,0.00948,70.52804678,
0.0095,0.8266398684,0.0095,70.52804678,
0.00952,3.019221633,0.00952,70.52804678,
0.00954,1.557500457,0.00954,70.16261648,
0.00956,1.922930751,0.00956,70.52804678,
0.00958,1.922930751,0.00958,70.89347707,
0.0096,1.192070163,0.0096,70.16261648,
0.00962,0.8266398684,0.00962,69.79718619,
0.00964,0.4612095743,0.00964,70.89347707,
0.00966,-0.6350813082,0.00966,70.52804678,
0.00968,-0.6350813082,0.00968,70.52804678,
0.0097,0.0957792801,0.0097,70.89347707,
0.00972,0.0957792801,0.00972,70.52804678,
0.00974,0.4612095743,0.00974,70.52804678,
0.00976,0.8266398684,0.00976,70.89347707,
0.00978,0.0957792801,0.00978,70.89347707,
0.0098,2.288361045,0.0098,70.16261648,
0.00982,-1.000511602,0.00982,70.89347707,
0.00984,-2.096802485,0.00984,70.52804678,
0.00986,-1.731372191,0.00986,69.79718619,
0.00988,-1.000511602,0.00988,71.25890736,
0.0099,-1.000511602,0.0099,70.16261648,
0.00992,-1.365941897,0.00992,70.16261648,
0.00994,-2.462232779,0.00994,70.89347707,
0.00996,-2.096802485,0.00996,70.52804678,
0.00998,0.0957792801,0.00998,70.52804678,
0.01,-0.6350813082,0.01,71.25890736,
0.01002,-0.2696510141,0.01002,70.52804678,
0.01004,-0.2696510141,0.01004,69.79718619,
0.01006,0.0957792801,0.01006,70.52804678,
0.01008,-1.000511602,0.01008,69.79718619,
0.0101,-1.365941897,0.0101,70.16261648,
0.01012,-2.096802485,0.01012,70.52804678,
0.01014,-1.365941897,0.01014,70.16261648,
0.01016,-0.2696510141,0.01016,70.16261648,
0.01018,0.8266398684,0.01018,70.52804678,
0.0102,-0.2696510141,0.0102,70.52804678,
0.01022,0.8266398684,0.01022,70.16261648,
0.01024,1.557500457,0.01024,70.89347707,
0.01026,0.8266398684,0.01026,70.16261648,
0.01028,2.288361045,0.01028,69.79718619,
0.0103,0.4612095743,0.0103,70.52804678,
0.01032,0.0957792801,0.01032,70.52804678,
0.01034,0.8266398684,0.01034,70.16261648,
0.01036,0.4612095743,0.01036,70.52804678,
0.01038,-0.2696510141,0.01038,70.16261648,
0.0104,1.192070163,0.0104,70.16261648,
0.01042,0.4612095743,0.01042,70.52804678,
0.01044,0.4612095743,0.01044,70.52804678,
0.01046,1.922930751,0.01046,70.16261648,
0.01048,3.019221633,0.01048,70.89347707,
0.0105,1.922930751,0.0105,70.89347707,
0.01052,1.922930751,0.01052,70.52804678,
0.01054,2.653791339,0.01054,70.52804678,
0.01056,-0.2696510141,0.01056,70.52804678,
0.01058,0.8266398684,0.01058,70.16261648,
0.0106,0.4612095743,0.0106,70.52804678,
0.01062,-0.2696510141,0.01062,70.52804678,
0.01064,-0.2696510141,0.01064,70.16261648,
0.01066,-1.000511602,0.01066,70.89347707,
0.01068,-1.000511602,0.01068,70.16261648,
0.0107,0.4612095743,0.0107,70.52804678,
0.01072,1.192070163,0.01072,70.52804678,
0.01074,0.8266398684,0.01074,70.89347707,
0.01076,-0.2696510141,0.01076,70.52804678,
0.01078,3.384651928,0.01078,70.89347707,
0.0108,0.0957792801,0.0108,70.89347707,
0.01082,0.0957792801,0.01082,71.25890736,
0.01084,-1.365941897,0.01084,70.16261648,
0.01086,-1.731372191,0.01086,70.16261648,
0.01088,-1.731372191,0.01088,69.79718619,
0.0109,-0.6350813082,0.0109,71.62433766,
0.01092,-3.193093367,0.01092,69.43175589,
0.01094,0.8266398684,0.01094,70.89347707,
0.01096,-1.000511602,0.01096,70.52804678,
0.01098,-0.2696510141,0.01098,70.52804678,
0.011,-0.2696510141,0.011,70.89347707,
0.01102,-0.6350813082,0.01102,71.25890736,
0.01104,-1.000511602,0.01104,70.52804678,
0.01106,-0.6350813082,0.01106,70.52804678,
0.01108,-1.000511602,0.01108,70.52804678,
0.0111,-0.2696510141,0.0111,70.52804678,
0.01112,0.0957792801,0.01112,70.16261648,
0.01114,-0.6350813082,0.01114,70.52804678,
0.01116,0.0957792801,0.01116,70.52804678,
0.01118,-0.2696510141,0.01118,70.16261648,
0.0112,0.8266398684,0.0112,70.89347707,
0.01122,0.4612095743,0.01122,70.16261648,
0.01124,2.288361045,0.01124,70.52804678,
0.01126,1.192070163,0.01126,70.52804678,
0.01128,0.0957792801,0.01128,70.52804678,
0.0113,0.8266398684,0.0113,70.16261648,
0.01132,-0.2696510141,0.01132,70.52804678,
0.01134,0.0957792801,0.01134,70.16261648,
0.01136,1.192070163,0.01136,69.79718619,
0.01138,0.8266398684,0.01138,70.52804678,
0.0114,-0.6350813082,0.0114,70.52804678,
0.01142,1.192070163,0.01142,70.16261648,
0.01144,0.4612095743,0.01144,70.52804678,
0.01146,1.192070163,0.01146,70.16261648,
0.01148,2.288361045,0.01148,70.52804678,
0.0115,2.288361045,0.0115,70.16261648,
0.01152,2.288361045,0.01152,69.79718619,
0.01154,2.288361045,0.01154,70.16261648,
0.01156,0.8266398684,0.01156,70.52804678,
0.01158,0.4612095743,0.01158,69.79718619,
0.0116,0.8266398684,0.0116,70.16261648,
0.01162,-0.2696510141,0.01162,70.89347707,
0.01164,-1.365941897,0.01164,70.16261648,
0.01166,0.4612095743,0.01166,70.16261648,
0.01168,0.8266398684,0.01168,70.16261648,
0.0117,0.4612095743,0.0117,70.52804678,
0.01172,1.192070163,0.01172,70.16261648,
0.01174,0.0957792801,0.01174,70.89347707,
0.01176,-0.2696510141,0.01176,70.52804678,
0.01178,-0.6350813082,0.01178,70.89347707,
0.0118,-1.365941897,0.0118,70.52804678,
0.01182,-1.731372191,0.01182,70.52804678,
0.01184,-1.365941897,0.01184,70.89347707,
0.01186,-2.462232779,0.01186,71.25890736,
0.01188,-1.731372191,0.01188,70.16261648,
0.0119,-1.731372191,0.0119,70.16261648,
0.01192,-0.2696510141,0.01192,69.43175589,
0.01194,0.4612095743,0.01194,69.79718619,
0.01196,-0.2696510141,0.01196,70.16261648,
0.01198,0.8266398684,0.01198,70.89347707,
0.012,-0.6350813082,0.012,69.79718619,
0.01202,-0.2696510141,0.01202,70.16261648,
0.01204,-1.000511602,0.01204,70.52804678,
0.01206,-0.6350813082,0.01206,69.79718619,
0.01208,0.0957792801,0.01208,70.16261648,
0.0121,0.4612095743,0.0121,70.52804678,
0.01212,-0.6350813082,0.01212,70.16261648,
0.01214,1.922930751,0.01214,70.52804678,
0.01216,0.4612095743,0.01216,70.16261648,
0.01218,0.8266398684,0.01218,69.79718619,
0.0122,1.557500457,0.0122,70.52804678,
0.01222,0.4612095743,0.01222,70.52804678,
0.01224,0.0957792801,0.01224,70.16261648,
0.01226,1.557500457,0.01226,70.16261648,
0.01228,0.8266398684,0.01228,70.52804678,
0.0123,-0.2696510141,0.0123,69.79718619,
0.01232,1.922930751,0.01232,70.16261648,
0.01234,1.192070163,0.01234,70.52804678,
0.01236,1.192070163,0.01236,69.79718619,
0.01238,0.8266398684,0.01238,70.16261648,
0.0124,2.288361045,0.0124,70.16261648,
0.01242,1.192070163,0.01242,69.79718619,
0.01244,1.557500457,0.01244,69.79718619,
0.01246,1.922930751,0.01246,70.16261648,
0.01248,2.288361045,0.01248,69.43175589,
0.0125,1.557500457,0.0125,70.16261648,
0.01252,0.4612095743,0.01252,70.16261648,
0.01254,0.8266398684,0.01254,69.79718619,
0.01256,2.288361045,0.01256,70.16261648,
0.01258,0.8266398684,0.01258,70.52804678,
0.0126,-0.6350813082,0.0126,69.79718619,
0.01262,-0.6350813082,0.01262,70.16261648,
0.01264,1.192070163,0.01264,69.79718619,
0.01266,0.0957792801,0.01266,70.16261648,
0.01268,1.922930751,0.01268,70.16261648,
0.0127,1.557500457,0.0127,69.79718619,
0.01272,-0.6350813082,0.01272,70.52804678,
0.01274,0.4612095743,0.01274,69.79718619,
0.01276,0.0957792801,0.01276,69.79718619,
0.01278,-2.462232779,0.01278,69.43175589,
0.0128,-1.365941897,0.0128,70.16261648,
0.01282,1.557500457,0.01282,68.7008953,
0.01284,-2.827663073,0.01284,69.79718619,
0.01286,-2.096802485,0.01286,70.89347707,
0.01288,-1.731372191,0.01288,69.43175589,
0.0129,1.192070163,0.0129,69.43175589,
0.01292,0.0957792801,0.01292,71.25890736,
0.01294,0.8266398684,0.01294,70.52804678,
0.01296,-1.000511602,0.01296,69.43175589,
0.01298,0.0957792801,0.01298,69.79718619,
0.013,0.0957792801,0.013,69.79718619,
0.01302,0.0957792801,0.01302,69.79718619,
0.01304,-0.6350813082,0.01304,69.79718619,
0.01306,-0.2696510141,0.01306,70.16261648,
0.01308,-0.6350813082,0.01308,70.16261648,
0.0131,-0.2696510141,0.0131,70.16261648,
0.01312,0.0957792801,0.01312,70.52804678,
0.01314,0.4612095743,0.01314,69.79718619,
0.01316,1.922930751,0.01316,70.16261648,
0.01318,0.8266398684,0.01318,70.16261648,
0.0132,0.8266398684,0.0132,70.16261648,
0.01322,1.922930751,0.01322,70.52804678,
0.01324,1.922930751,0.01324,70.16261648,
0.01326,0.4612095743,0.01326,70.16261648,
0.01328,1.192070163,0.01328,70.16261648,
0.0133,1.557500457,0.0133,70.16261648,
0.01332,1.557500457,0.01332,70.16261648,
0.01334,0.8266398684,0.01334,69.79718619,
0.01336,0.8266398684,0.01336,70.16261648,
0.01338,0.8266398684,0.01338,70.89347707,
0.0134,1.192070163,0.0134,70.52804678,
0.01342,1.192070163,0.01342,69.79718619,
0.01344,2.288361045,0.01344,70.16261648,
0.01346,2.288361045,0.01346,70.16261648,
0.01348,1.922930751,0.01348,69.43175589,
0.0135,1.557500457,0.0135,70.52804678,
0.01352,1.922930751,0.01352,70.16261648,
0.01354,0.8266398684,0.01354,70.52804678,
0.01356,0.4612095743,0.01356,70.16261648,
0.01358,-0.2696510141,0.01358,70.52804678,
0.0136,0.8266398684,0.0136,70.52804678,
0.01362,0.0957792801,0.01362,70.16261648,
0.01364,0.8266398684,0.01364,70.52804678,
0.01366,0.0957792801,0.01366,70.52804678,
0.01368,1.922930751,0.01368,70.52804678,
0.0137,0.8266398684,0.0137,69.79718619,
0.01372,2.288361045,0.01372,70.52804678,
0.01374,-2.462232779,0.01374,69.79718619,
0.01376,-2.827663073,0.01376,69.79718619,
0.01378,1.192070163,0.01378,70.52804678,
0.0138,-2.827663073,0.0138,70.52804678,
0.01382,-1.731372191,0.01382,70.52804678,
0.01384,-0.2696510141,0.01384,71.25890736,
0.01386,-3.193093367,0.01386,70.52804678,
0.01388,-0.2696510141,0.01388,69.79718619,
0.0139,-1.365941897,0.0139,70.52804678,
0.01392,-0.6350813082,0.01392,70.52804678,
0.01394,-0.6350813082,0.01394,70.89347707,
0.01396,-0.6350813082,0.01396,71.25890736,
0.01398,-0.6350813082,0.01398,70.52804678,
0.014,-0.2696510141,0.014,70.16261648,
0.01402,-0.2696510141,0.01402,70.16261648,
0.01404,-1.365941897,0.01404,70.16261648,
0.01406,-0.6350813082,0.01406,70.52804678,
0.01408,-0.6350813082,0.01408,70.52804678,
0.0141,-0.6350813082,0.0141,70.52804678,
0.01412,0.0957792801,0.01412,70.16261648,
0.01414,1.557500457,0.01414,70.89347707,
0.01416,0.4612095743,0.01416,70.52804678,
0.01418,1.557500457,0.01418,70.16261648,
0.0142,1.192070163,0.0142,70.52804678,
0.01422,0.8266398684,0.01422,70.16261648,
0.01424,1.192070163,0.01424,70.52804678,
0.01426,1.192070163,0.01426,70.16261648,
0.01428,1.557500457,0.01428,70.89347707,
0.0143,1.922930751,0.0143,70.16261648,
0.01432,0.4612095743,0.01432,69.79718619,
0.01434,0.4612095743,0.01434,69.79718619,
0.01436,0.4612095743,0.01436,70.16261648,
0.01438,1.557500457,0.01438,70.16261648,
0.0144,1.192070163,0.0144,70.16261648,
0.01442,1.922930751,0.01442,70.16261648,
0.01444,1.192070163,0.01444,70.16261648,
0.01446,0.8266398684,0.01446,69.79718619,
0.01448,1.922930751,0.01448,70.16261648,
0.0145,1.192070163,0.0145,70.52804678,
0.01452,0.4612095743,0.01452,69.79718619,
0.01454,1.922930751,0.01454,70.16261648,
0.01456,-0.6350813082,0.01456,70.52804678,
0.01458,-1.000511602,0.01458,70.16261648,
0.0146,0.8266398684,0.0146,70.52804678,
0.01462,0.0957792801,0.01462,70.16261648,
0.01464,0.8266398684,0.01464,69.43175589,
0.01466,0.0957792801,0.01466,69.79718619,
0.01468,-0.6350813082,0.01468,70.89347707,
0.0147,-0.2696510141,0.0147,69.79718619,
0.01472,-0.2696510141,0.01472,69.0663256,
0.01474,-0.2696510141,0.01474,69.79718619,
0.01476,-2.096802485,0.01476,69.79718619,
0.01478,-2.096802485,0.01478,69.79718619,
0.0148,-1.000511602,0.0148,69.79718619,
0.01482,-1.731372191,0.01482,69.43175589,
0.01484,-0.6350813082,0.01484,70.16261648,
0.01486,-1.365941897,0.01486,70.52804678,
0.01488,-1.000511602,0.01488,69.79718619,
0.0149,0.0957792801,0.0149,70.52804678,
0.01492,-0.6350813082,0.01492,70.89347707,
0.01494,-1.365941897,0.01494,69.79718619,
0.01496,-0.2696510141,0.01496,69.79718619,
0.01498,0.0957792801,0.01498,70.52804678,
0.015,-0.6350813082,0.015,69.79718619,
0.01502,-1.731372191,0.01502,70.52804678,
0.01504,-0.6350813082,0.01504,70.16261648,
0.01506,-0.6350813082,0.01506,69.79718619,
0.01508,0.8266398684,0.01508,70.16261648,
0.0151,1.192070163,0.0151,70.16261648,
0.01512,0.8266398684,0.01512,69.79718619,
0.01514,2.653791339,0.01514,70.52804678,
0.01516,1.557500457,0.01516,70.52804678,
0.01518,1.557500457,0.01518,69.79718619,
0.0152,1.922930751,0.0152,70.16261648,
0.01522,0.0957792801,0.01522,70.52804678,
0.01524,1.192070163,0.01524,70.16261648,
0.01526,1.557500457,0.01526,70.52804678,
0.01528,0.4612095743,0.01528,70.16261648,
0.0153,0.8266398684,0.0153,69.79718619,
0.01532,0.8266398684,0.01532,70.16261648,
0.01534,0.4612095743,0.01534,70.52804678,
0.01536,1.192070163,0.01536,69.79718619,
0.01538,1.922930751,0.01538,70.52804678,
0.0154,1.192070163,0.0154,70.52804678,
0.01542,1.192070163,0.01542,69.79718619,
0.01544,3.019221633,0.01544,70.16261648,
0.01546,1.922930751,0.01546,70.16261648,
0.01548,-0.2696510141,0.01548,69.79718619,
0.0155,0.8266398684,0.0155,70.52804678,
0.01552,0.8266398684,0.01552,70.16261648,
0.01554,0.0957792801,0.01554,69.79718619,
0.01556,0.4612095743,0.01556,70.52804678,
0.01558,0.8266398684,0.01558,70.16261648,
0.0156,0.4612095743,0.0156,69.79718619,
0.01562,1.557500457,0.01562,70.16261648,
0.01564,0.8266398684,0.01564,69.79718619,
0.01566,2.288361045,0.01566,70.16261648,
0.01568,-0.2696510141,0.01568,70.52804678,
0.0157,-0.2696510141,0.0157,69.43175589,
0.01572,1.557500457,0.01572,69.43175589,
0.01574,-2.096802485,0.01574,71.25890736,
0.01576,-1.000511602,0.01576,70.52804678,
0.01578,-2.462232779,0.01578,70.16261648,
0.0158,-2.096802485,0.0158,70.89347707,
0.01582,-1.731372191,0.01582,71.25890736,
0.01584,-1.365941897,0.01584,69.79718619,
0.01586,0.0957792801,0.01586,70.89347707,
0.01588,-0.2696510141,0.01588,70.16261648,
0.0159,1.192070163,0.0159,69.79718619,
0.01592,0.8266398684,0.01592,70.52804678,
0.01594,-0.6350813082,0.01594,70.52804678,
0.01596,-0.2696510141,0.01596,69.79718619,
0.01598,-0.2696510141,0.01598,70.52804678,
0.016,-0.6350813082,0.016,70.89347707,
0.01602,-0.6350813082,0.01602,70.16261648,
0.01604,0.8266398684,0.01604,70.52804678,
0.01606,-0.6350813082,0.01606,70.16261648,
0.01608,0.4612095743,0.01608,69.43175589,
0.0161,1.557500457,0.0161,70.16261648,
0.01612,1.192070163,0.01612,70.52804678,
0.01614,1.557500457,0.01614,69.43175589,
0.01616,0.8266398684,0.01616,70.52804678,
0.01618,1.192070163,0.01618,70.16261648,
0.0162,0.8266398684,0.0162,69.79718619,
0.01622,1.192070163,0.01622,70.89347707,
0.01624,0.4612095743,0.01624,70.16261648,
0.01626,1.192070163,0.01626,70.16261648,
0.01628,1.192070163,0.01628,70.52804678,
0.0163,0.4612095743,0.0163,70.16261648,
0.01632,1.192070163,0.01632,70.16261648,
0.01634,1.557500457,0.01634,70.89347707,
0.01636,1.557500457,0.01636,70.16261648,
0.01638,1.922930751,0.01638,69.79718619,
0.0164,1.557500457,0.0164,70.89347707,
0.01642,1.557500457,0.01642,70.16261648,
0.01644,0.8266398684,0.01644,69.79718619,
0.01646,1.557500457,0.01646,70.89347707,
0.01648,0.4612095743,0.01648,70.16261648,
0.0165,0.0957792801,0.0165,70.16261648,
0.01652,0.0957792801,0.01652,70.52804678,
0.01654,0.0957792801,0.01654,69.79718619,
0.01656,0.4612095743,0.01656,69.79718619,
0.01658,-0.2696510141,0.01658,70.89347707,
0.0166,-0.2696510141,0.0166,70.16261648,
0.01662,-0.2696510141,0.01662,69.43175589,
0.01664,1.557500457,0.01664,70.16261648,
0.01666,1.922930751,0.01666,69.43175589,
0.01668,-0.6350813082,0.01668,69.79718619,
0.0167,0.0957792801,0.0167,70.89347707,
0.01672,-1.365941897,0.01672,70.89347707,
0.01674,-1.365941897,0.01674,69.43175589,
0.01676,-1.731372191,0.01676,71.25890736,
0.01678,-2.462232779,0.01678,70.52804678,
0.0168,-1.365941897,0.0168,70.16261648,
0.01682,-0.2696510141,0.01682,71.25890736,
0.01684,-1.731372191,0.01684,69.79718619,
0.01686,-1.000511602,0.01686,69.79718619,
0.01688,1.192070163,0.01688,70.16261648,
0.0169,-1.365941897,0.0169,69.79718619,
0.01692,0.0957792801,0.01692,69.79718619,
0.01694,-0.6350813082,0.01694,70.89347707,
0.01696,-1.365941897,0.01696,70.16261648,
0.01698,-1.365941897,0.01698,70.16261648,
0.017,0.0957792801,0.017,70.52804678,
0.01702,-0.6350813082,0.01702,70.16261648,
0.01704,0.0957792801,0.01704,70.16261648,
0.01706,1.557500457,0.01706,70.89347707,
0.01708,0.4612095743,0.01708,70.52804678,
0.0171,1.557500457,0.0171,69.79718619,
0.01712,1.557500457,0.01712,70.89347707,
0.01714,0.8266398684,0.01714,70.52804678,
0.01716,1.192070163,0.01716,69.79718619,
0.01718,0.8266398684,0.01718,70.89347707,
0.0172,0.0957792801,0.0172,70.16261648,
0.01722,1.192070163,0.01722,70.16261648,
0.01724,0.8266398684,0.01724,70.89347707,
0.01726,0.4612095743,0.01726,70.16261648,
0.01728,0.4612095743,0.01728,70.52804678,
0.0173,0.8266398684,0.0173,70.89347707,
0.01732,0.0957792801,0.01732,70.16261648,
0.01734,2.288361045,0.01734,69.79718619,
0.01736,1.922930751,0.01736,70.89347707,
0.01738,1.557500457,0.01738,70.16261648,
0.0174,1.192070163,0.0174,69.79718619,
0.01742,1.922930751,0.01742,70.52804678,
0.01744,1.557500457,0.01744,70.52804678,
0.01746,-1.365941897,0.01746,70.16261648,
0.01748,-0.2696510141,0.01748,70.89347707,
0.0175,-1.000511602,0.0175,70.16261648,
0.01752,-1.365941897,0.01752,70.16261648,
0.01754,0.0957792801,0.01754,70.89347707,
0.01756,-0.2696510141,0.01756,70.16261648,
0.01758,0.0957792801,0.01758,70.16261648,
0.0176,1.557500457,0.0176,70.89347707,
0.01762,-1.365941897,0.01762,70.16261648,
0.01764,-1.365941897,0.01764,70.52804678,
0.01766,-1.365941897,0.01766,70.52804678,
0.01768,1.557500457,0.01768,70.89347707,
0.0177,-2.096802485,0.0177,69.79718619,
0.01772,-1.731372191,0.01772,71.25890736,
0.01774,-1.365941897,0.01774,70.89347707,
0.01776,-1.731372191,0.01776,70.16261648,
0.01778,-1.000511602,0.01778,71.25890736,
0.0178,-2.096802485,0.0178,70.16261648,
0.01782,0.0957792801,0.01782,69.79718619,
0.01784,0.4612095743,0.01784,70.89347707,
0.01786,-1.000511602,0.01786,69.43175589,
0.01788,0.0957792801,0.01788,70.16261648,
0.0179,-0.2696510141,0.0179,70.52804678,
0.01792,-1.731372191,0.01792,70.16261648,
0.01794,-1.731372191,0.01794,69.79718619,
0.01796,0.0957792801,0.01796,70.89347707,
0.01798,-1.731372191,0.01798,70.16261648,
0.018,0.4612095743,0.018,69.79718619,
0.01802,0.0957792801,0.01802,70.52804678,
0.01804,0.0957792801,0.01804,70.16261648,
0.01806,1.192070163,0.01806,70.16261648,
0.01808,0.0957792801,0.01808,70.52804678,
0.0181,0.8266398684,0.0181,70.52804678,
0.01812,1.922930751,0.01812,70.52804678,
0.01814,1.192070163,0.01814,70.16261648,
0.01816,1.192070163,0.01816,70.52804678,
0.01818,1.557500457,0.01818,70.52804678,
0.0182,0.4612095743,0.0182,70.52804678,
0.01822,1.192070163,0.01822,70.52804678,
0.01824,0.8266398684,0.01824,70.89347707,
0.01826,0.4612095743,0.01826,70.52804678,
0.01828,0.8266398684,0.01828,70.52804678,
0.0183,-0.6350813082,0.0183,70.52804678,
0.01832,1.922930751,0.01832,70.52804678,
0.01834,1.922930751,0.01834,70.16261648,
0.01836,1.922930751,0.01836,70.52804678,
0.01838,1.192070163,0.01838,70.16261648,
0.0184,1.922930751,0.0184,70.16261648,
0.01842,1.192070163,0.01842,70.89347707,
0.01844,0.0957792801,0.01844,70.16261648,
0.01846,0.4612095743,0.01846,69.79718619,
0.01848,-1.365941897,0.01848,70.89347707,
0.0185,-1.731372191,0.0185,70.16261648,
0.01852,-0.2696510141,0.01852,70.16261648,
0.01854,0.0957792801,0.01854,70.89347707,
0.01856,0.8266398684,0.01856,70.89347707,
0.01858,2.288361045,0.01858,70.52804678,
0.0186,0.8266398684,0.0186,70.52804678,
0.01862,0.8266398684,0.01862,70.52804678,
0.01864,1.922930751,0.01864,70.16261648,
0.01866,-2.462232779,0.01866,70.52804678,
0.01868,1.557500457,0.01868,71.25890736,
0.0187,-3.193093367,0.0187,70.16261648,
0.01872,-3.923953956,0.01872,70.52804678,
0.01874,-1.731372191,0.01874,70.89347707,
0.01876,-0.2696510141,0.01876,70.89347707,
0.01878,-0.6350813082,0.01878,69.79718619,
0.0188,-0.2696510141,0.0188,70.52804678,
0.01882,0.8266398684,0.01882,70.52804678,
0.01884,-0.2696510141,0.01884,70.89347707,
0.01886,0.0957792801,0.01886,70.52804678,
0.01888,-0.6350813082,0.01888,70.52804678,
0.0189,-0.6350813082,0.0189,70.16261648,
0.01892,-1.365941897,0.01892,70.16261648,
0.01894,-1.000511602,0.01894,70.52804678,
0.01896,-1.365941897,0.01896,70.16261648,
0.01898,-0.2696510141,0.01898,70.16261648,
0.019,0.4612095743,0.019,70.52804678,
0.01902,0.8266398684,0.01902,70.16261648,
0.01904,0.4612095743,0.01904,70.16261648,
0.01906,1.192070163,0.01906,70.89347707,
0.01908,0.0957792801,0.01908,70.16261648,
0.0191,1.922930751,0.0191,70.89347707,
0.01912,0.0957792801,0.01912,70.52804678,
0.01914,0.0957792801,0.01914,69.79718619,
0.01916,0.4612095743,0.01916,70.89347707,
0.01918,-0.2696510141,0.01918,70.16261648,
0.0192,0.8266398684,0.0192,70.16261648,
0.01922,0.4612095743,0.01922,70.89347707,
0.01924,0.8266398684,0.01924,70.52804678,
0.01926,0.0957792801,0.01926,70.16261648,
0.01928,1.922930751,0.01928,70.16261648,
0.0193,1.557500457,0.0193,70.52804678,
0.01932,1.557500457,0.01932,69.79718619,
0.01934,0.8266398684,0.01934,70.52804678,
0.01936,1.557500457,0.01936,69.79718619,
0.01938,0.4612095743,0.01938,70.16261648,
0.0194,1.192070163,0.0194,70.89347707,
0.01942,-0.2696510141,0.01942,69.79718619,
0.01944,0.4612095743,0.01944,70.16261648,
0.01946,0.0957792801,0.01946,70.52804678,
0.01948,-0.6350813082,0.01948,70.16261648,
0.0195,0.4612095743,0.0195,70.16261648,
0.01952,1.557500457,0.01952,70.52804678,
0.01954,0.0957792801,0.01954,70.16261648,
0.01956,2.653791339,0.01956,70.16261648,
0.01958,0.4612095743,0.01958,71.25890736,
0.0196,-0.6350813082,0.0196,70.16261648,
0.01962,-0.6350813082,0.01962,70.16261648,
0.01964,-0.6350813082,0.01964,70.52804678,
0.01966,-0.2696510141,0.01966,69.79718619,
0.01968,-1.000511602,0.01968,69.43175589,
0.0197,-1.365941897,0.0197,71.62433766,
0.01972,-3.193093367,0.01972,70.16261648,
0.01974,0.4612095743,0.01974,70.52804678,
0.01976,-0.2696510141,0.01976,69.79718619,
0.01978,0.0957792801,0.01978,70.52804678,
0.0198,0.8266398684,0.0198,69.43175589,
0.01982,0.8266398684,0.01982,70.52804678,
0.01984,-0.6350813082,0.01984,70.16261648,
0.01986,-0.2696510141,0.01986,69.79718619,
0.01988,-0.6350813082,0.01988,70.52804678,
0.0199,-0.2696510141,0.0199,70.52804678,
0.01992,-0.2696510141,0.01992,70.16261648,
0.01994,-0.6350813082,0.01994,70.52804678,
0.01996,0.8266398684,0.01996,70.52804678,
0.01998,0.4612095743,0.01998,69.79718619,
0.02,1.557500457,0.02,70.52804678,
0.02002,1.192070163,0.02002,70.52804678,
0.02004,1.557500457,0.02004,70.16261648,
0.02006,0.0957792801,0.02006,70.52804678,
0.02008,0.8266398684,0.02008,70.16261648,
0.0201,-0.2696510141,0.0201,70.16261648,
0.02012,-0.2696510141,0.02012,70.89347707,
0.02014,1.192070163,0.02014,70.16261648,
0.02016,0.0957792801,0.02016,70.16261648,
0.02018,0.8266398684,0.02018,70.89347707,
0.0202,0.8266398684,0.0202,70.16261648,
0.02022,0.8266398684,0.02022,70.16261648,
0.02024,1.922930751,0.02024,70.52804678,
0.02026,0.8266398684,0.02026,70.52804678,
0.02028,1.192070163,0.02028,70.16261648,
0.0203,2.288361045,0.0203,70.52804678,
0.02032,1.922930751,0.02032,70.16261648,
0.02034,1.922930751,0.02034,69.79718619,
0.02036,2.653791339,0.02036,70.89347707,
0.02038,-0.2696510141,0.02038,70.16261648,
0.0204,0.0957792801,0.0204,70.16261648,
0.02042,0.4612095743,0.02042,70.52804678,
0.02044,-0.2696510141,0.02044,70.52804678,
0.02046,0.0957792801,0.02046,69.79718619,
0.02048,-0.2696510141,0.02048,70.52804678,
0.0205,-0.2696510141,0.0205,69.79718619,
0.02052,0.8266398684,0.02052,69.79718619,
0.02054,1.557500457,0.02054,70.52804678,
0.02056,-0.2696510141,0.02056,70.16261648,
0.02058,-0.6350813082,0.02058,70.16261648,
0.0206,-0.6350813082,0.0206,70.89347707,
0.02062,0.0957792801,0.02062,69.79718619,
0.02064,-2.827663073,0.02064,69.79718619,
0.02066,-1.365941897,0.02066,69.43175589,
0.02068,-1.365941897,0.02068,70.16261648,
0.0207,-0.2696510141,0.0207,69.79718619,
0.02072,-0.6350813082,0.02072,70.89347707,
0.02074,-0.2696510141,0.02074,70.89347707,
0.02076,-0.2696510141,0.02076,69.79718619,
0.02078,-0.6350813082,0.02078,70.52804678,
0.0208,-0.2696510141,0.0208,69.79718619,
0.02082,-0.6350813082,0.02082,70.16261648,
0.02084,-0.6350813082,0.02084,70.52804678,
0.02086,-1.731372191,0.02086,70.16261648,
0.02088,-1.731372191,0.02088,70.16261648,
0.0209,-1.000511602,0.0209,70.52804678,
0.02092,-0.6350813082,0.02092,69.79718619,
0.02094,0.0957792801,0.02094,69.79718619,
0.02096,0.0957792801,0.02096,70.52804678,
0.02098,-0.2696510141,0.02098,70.52804678,
0.021,1.922930751,0.021,69.79718619,
0.02102,0.4612095743,0.02102,70.52804678,
0.02104,0.4612095743,0.02104,70.52804678,
0.02106,1.557500457,0.02106,70.16261648,
0.02108,0.0957792801,0.02108,70.52804678,
0.0211,0.4612095743,0.0211,70.52804678,
0.02112,1.192070163,0.02112,70.16261648,
0.02114,0.4612095743,0.02114,70.52804678,
0.02116,1.192070163,0.02116,70.16261648,
0.02118,2.288361045,0.02118,70.52804678,
0.0212,1.192070163,0.0212,70.52804678,
0.02122,0.8266398684,0.02122,70.16261648,
0.02124,1.192070163,0.02124,70.52804678,
0.02126,0.0957792801,0.02126,70.16261648,
0.02128,1.557500457,0.02128,70.52804678,
0.0213,1.557500457,0.0213,69.79718619,
0.02132,0.8266398684,0.02132,70.52804678,
0.02134,0.4612095743,0.02134,70.52804678,
0.02136,0.4612095743,0.02136,69.79718619,
0.02138,0.4612095743,0.02138,70.52804678,
0.0214,0.4612095743,0.0214,70.16261648,
0.02142,0.4612095743,0.02142,70.52804678,
0.02144,-0.2696510141,0.02144,70.89347707,
0.02146,0.0957792801,0.02146,70.52804678,
0.02148,0.8266398684,0.02148,70.52804678,
0.0215,-0.2696510141,0.0215,70.89347707,
0.02152,-0.6350813082,0.02152,69.79718619,
0.02154,0.0957792801,0.02154,70.16261648,
0.02156,-0.2696510141,0.02156,70.52804678,
0.02158,-0.6350813082,0.02158,71.25890736,
0.0216,-1.000511602,0.0216,70.16261648,
0.02162,-2.462232779,0.02162,70.16261648,
0.02164,-2.827663073,0.02164,71.25890736,
0.02166,0.8266398684,0.02166,69.79718619,
0.02168,-0.6350813082,0.02168,70.89347707,
0.0217,-2.096802485,0.0217,70.52804678,
0.02172,-1.000511602,0.02172,70.16261648,
0.02174,-0.2696510141,0.02174,70.52804678,
0.02176,0.4612095743,0.02176,70.52804678,
0.02178,-1.000511602,0.02178,70.52804678,
0.0218,-2.462232779,0.0218,70.52804678,
0.02182,0.4612095743,0.02182,70.16261648,
0.02184,-1.000511602,0.02184,70.52804678,
0.02186,-0.6350813082,0.02186,70.52804678,
0.02188,-1.365941897,0.02188,70.52804678,
0.0219,-0.6350813082,0.0219,70.52804678,
0.02192,0.4612095743,0.02192,70.89347707,
0.02194,0.4612095743,0.02194,70.52804678,
0.02196,0.8266398684,0.02196,70.16261648,
0.02198,1.557500457,0.02198,70.89347707,
0.022,0.4612095743,0.022,70.52804678,
0.02202,0.4612095743,0.02202,70.52804678,
0.02204,0.8266398684,0.02204,70.52804678,
0.02206,0.8266398684,0.02206,70.52804678,
0.02208,0.8266398684,0.02208,69.79718619,
0.0221,1.192070163,0.0221,70.89347707,
0.02212,0.0957792801,0.02212,70.52804678,
0.02214,1.192070163,0.02214,70.52804678,
0.02216,0.8266398684,0.02216,70.89347707,
0.02218,0.8266398684,0.02218,70.52804678,
0.0222,0.8266398684,0.0222,70.52804678,
0.02222,2.288361045,0.02222,70.89347707,
0.02224,1.557500457,0.02224,70.52804678,
0.02226,1.557500457,0.02226,70.16261648,
0.02228,1.922930751,0.02228,70.52804678,
0.0223,0.8266398684,0.0223,70.52804678,
0.02232,1.922930751,0.02232,69.79718619,
0.02234,0.8266398684,0.02234,70.52804678,
0.02236,-0.6350813082,0.02236,70.16261648,
0.02238,0.4612095743,0.02238,70.16261648,
0.0224,-0.6350813082,0.0224,70.89347707,
0.02242,-1.365941897,0.02242,70.16261648,
0.02244,1.192070163,0.02244,69.79718619,
0.02246,0.0957792801,0.02246,70.52804678,
0.02248,1.192070163,0.02248,70.89347707,
0.0225,1.192070163,0.0225,69.79718619,
0.02252,-0.2696510141,0.02252,69.79718619,
0.02254,-0.6350813082,0.02254,71.25890736,
0.02256,0.0957792801,0.02256,70.16261648,
0.02258,-1.365941897,0.02258,71.25890736,
0.0226,-1.000511602,0.0226,70.52804678,
0.02262,-1.000511602,0.02262,70.89347707,
0.02264,-2.096802485,0.02264,70.52804678,
0.02266,-2.827663073,0.02266,70.16261648,
0.02268,-1.731372191,0.02268,70.16261648,
0.0227,-0.6350813082,0.0227,70.16261648,
0.02272,-0.6350813082,0.02272,70.16261648,
0.02274,-0.2696510141,0.02274,70.16261648,
0.02276,0.8266398684,0.02276,70.16261648,
0.02278,-1.000511602,0.02278,70.52804678,
0.0228,-1.000511602,0.0228,70.16261648,
0.02282,-0.2696510141,0.02282,70.89347707,
0.02284,-1.731372191,0.02284,70.16261648,
0.02286,0.4612095743,0.02286,70.16261648,
0.02288,-0.2696510141,0.02288,70.89347707,
0.0229,0.0957792801,0.0229,69.79718619,
0.02292,1.192070163,0.02292,70.16261648,
0.02294,0.8266398684,0.02294,69.79718619,
0.02296,1.192070163,0.02296,70.52804678,
0.02298,0.8266398684,0.02298,70.16261648,
0.023,-0.2696510141,0.023,69.79718619,
0.02302,1.557500457,0.02302,69.79718619,
0.02304,1.192070163,0.02304,70.16261648,
0.02306,0.8266398684,0.02306,69.79718619,
0.02308,1.922930751,0.02308,69.79718619,
0.0231,1.557500457,0.0231,70.52804678,
0.02312,0.8266398684,0.02312,69.79718619,
0.02314,0.4612095743,0.02314,70.16261648,
0.02316,0.4612095743,0.02316,70.16261648,
0.02318,0.8266398684,0.02318,69.79718619,
0.0232,2.288361045,0.0232,70.16261648,
0.02322,1.922930751,0.02322,70.52804678,
0.02324,2.288361045,0.02324,69.79718619,
0.02326,2.288361045,0.02326,70.52804678,
0.02328,1.922930751,0.02328,70.16261648,
0.0233,0.8266398684,0.0233,69.43175589,
0.02332,1.192070163,0.02332,69.79718619,
0.02334,0.0957792801,0.02334,70.16261648,
0.02336,0.0957792801,0.02336,69.79718619,
0.02338,1.192070163,0.02338,70.52804678,
0.0234,-0.2696510141,0.0234,70.16261648,
0.02342,0.0957792801,0.02342,69.79718619,
0.02344,1.557500457,0.02344,70.16261648,
0.02346,1.557500457,0.02346,70.52804678,
0.02348,-0.2696510141,0.02348,69.79718619,
0.0235,0.8266398684,0.0235,70.52804678,
0.02352,0.0957792801,0.02352,70.52804678,
0.02354,-1.731372191,0.02354,69.0663256,
0.02356,0.0957792801,0.02356,69.79718619,
0.02358,-1.000511602,0.02358,70.16261648,
0.0236,-2.462232779,0.0236,70.16261648,
0.02362,-1.365941897,0.02362,70.52804678,
0.02364,-2.462232779,0.02364,70.16261648,
0.02366,-0.2696510141,0.02366,69.79718619,
0.02368,0.8266398684,0.02368,70.16261648,
0.0237,0.4612095743,0.0237,69.79718619,
0.02372,0.8266398684,0.02372,70.89347707,
0.02374,0.4612095743,0.02374,70.16261648,
0.02376,-0.2696510141,0.02376,70.52804678,
0.02378,-0.6350813082,0.02378,69.79718619,
0.0238,-0.6350813082,0.0238,70.52804678,
0.02382,0.0957792801,0.02382,70.16261648,
0.02384,-1.000511602,0.02384,70.89347707,
0.02386,0.0957792801,0.02386,70.52804678,
0.02388,-0.2696510141,0.02388,70.52804678,
0.0239,1.192070163,0.0239,70.52804678,
0.02392,0.8266398684,0.02392,70.52804678,
0.02394,1.922930751,0.02394,70.52804678,
0.02396,1.192070163,0.02396,70.52804678,
0.02398,0.8266398684,0.02398,70.52804678,
0.024,-0.2696510141,0.024,70.52804678,
0.02402,0.0957792801,0.02402,70.16261648,
0.02404,1.192070163,0.02404,69.79718619,
0.02406,2.288361045,0.02406,70.52804678,
0.02408,1.192070163,0.02408,70.16261648,
0.0241,1.192070163,0.0241,69.79718619,
0.02412,0.0957792801,0.02412,70.52804678,
0.02414,-0.2696510141,0.02414,70.16261648,
0.02416,0.8266398684,0.02416,69.79718619,
0.02418,1.557500457,0.02418,70.52804678,
0.0242,1.557500457,0.0242,70.16261648,
0.02422,1.557500457,0.02422,69.79718619,
0.02424,2.653791339,0.02424,70.52804678,
0.02426,1.557500457,0.02426,70.16261648,
0.02428,0.8266398684,0.02428,69.79718619,
0.0243,0.0957792801,0.0243,70.89347707,
0.02432,0.8266398684,0.02432,70.16261648,
0.02434,-1.365941897,0.02434,70.16261648,
0.02436,-0.6350813082,0.02436,70.89347707,
0.02438,0.0957792801,0.02438,70.16261648,
0.0244,0.0957792801,0.0244,70.16261648,
0.02442,0.8266398684,0.02442,70.89347707,
0.02444,0.4612095743,0.02444,70.16261648,
0.02446,1.557500457,0.02446,69.79718619,
0.02448,0.8266398684,0.02448,70.52804678,
0.0245,-1.731372191,0.0245,69.79718619,
0.02452,-1.000511602,0.02452,69.43175589,
0.02454,-2.096802485,0.02454,71.62433766,
0.02456,-2.462232779,0.02456,69.79718619,
0.02458,-3.923953956,0.02458,70.16261648,
0.0246,-1.731372191,0.0246,70.52804678,
0.02462,-1.000511602,0.02462,71.25890736,
0.02464,0.4612095743,0.02464,70.89347707,
0.02466,1.192070163,0.02466,70.89347707,
0.02468,-0.2696510141,0.02468,70.16261648,
0.0247,0.8266398684,0.0247,70.16261648,
0.02472,0.0957792801,0.02472,70.89347707,
0.02474,-0.2696510141,0.02474,70.16261648,
0.02476,-1.365941897,0.02476,69.79718619,
0.02478,-1.365941897,0.02478,70.52804678,
0.0248,-2.096802485,0.0248,70.16261648,
0.02482,-2.462232779,0.02482,70.16261648,
0.02484,0.0957792801,0.02484,70.52804678,
0.02486,-0.2696510141,0.02486,70.52804678,
0.02488,-0.6350813082,0.02488,69.79718619,
0.0249,1.557500457,0.0249,70.89347707,
0.02492,1.557500457,0.02492,69.79718619,
0.02494,0.4612095743,0.02494,70.52804678,
0.02496,1.192070163,0.02496,70.16261648,
0.02498,1.922930751,0.02498,70.16261648,
0.025,1.192070163,0.025,69.79718619,
0.02502,1.192070163,0.02502,70.89347707,
0.02504,1.192070163,0.02504,70.16261648,
0.02506,-0.2696510141,0.02506,69.79718619,
0.02508,0.4612095743,0.02508,70.52804678,
0.0251,-1.000511602,0.0251,70.16261648,
0.02512,0.4612095743,0.02512,70.16261648,
0.02514,1.557500457,0.02514,70.89347707,
0.02516,1.557500457,0.02516,70.16261648,
0.02518,2.288361045,0.02518,70.16261648,
0.0252,2.288361045,0.0252,70.52804678,
0.02522,0.8266398684,0.02522,70.52804678,
0.02524,1.192070163,0.02524,69.79718619,
0.02526,0.4612095743,0.02526,70.52804678,
0.02528,1.192070163,0.02528,69.79718619,
0.0253,0.8266398684,0.0253,69.79718619,
0.02532,-1.000511602,0.02532,70.16261648,
0.02534,-0.6350813082,0.02534,70.16261648,
0.02536,-1.000511602,0.02536,69.79718619,
0.02538,-0.2696510141,0.02538,70.52804678,
0.0254,-0.2696510141,0.0254,69.79718619,
0.02542,0.8266398684,0.02542,69.79718619,
0.02544,0.8266398684,0.02544,70.52804678,
0.02546,0.0957792801,0.02546,69.79718619,
0.02548,-1.731372191,0.02548,70.16261648,
0.0255,-2.462232779,0.0255,70.52804678,
0.02552,-2.096802485,0.02552,69.79718619,
0.02554,-3.193093367,0.02554,70.52804678,
0.02556,-0.6350813082,0.02556,70.89347707,
0.02558,-2.096802485,0.02558,69.43175589,
0.0256,-2.096802485,0.0256,70.16261648,
0.02562,-1.365941897,0.02562,70.89347707,
0.02564,-0.2696510141,0.02564,69.43175589,
0.02566,-0.2696510141,0.02566,70.16261648,
0.02568,-0.6350813082,0.02568,70.89347707,
0.0257,-1.731372191,0.0257,70.52804678,
0.02572,-1.365941897,0.02572,70.16261648,
0.02574,-1.731372191,0.02574,70.89347707,
0.02576,-1.731372191,0.02576,70.16261648,
0.02578,-0.6350813082,0.02578,70.16261648,
0.0258,-0.6350813082,0.0258,70.52804678,
0.02582,-1.000511602,0.02582,70.16261648,
0.02584,0.0957792801,0.02584,69.79718619,
0.02586,-0.2696510141,0.02586,70.52804678,
0.02588,1.192070163,0.02588,70.16261648,
0.0259,0.4612095743,0.0259,70.16261648,
0.02592,1.557500457,0.02592,70.52804678,
0.02594,1.192070163,0.02594,70.16261648,
0.02596,1.557500457,0.02596,69.79718619,
0.02598,0.4612095743,0.02598,70.52804678,
0.026,0.0957792801,0.026,69.79718619,
0.02602,0.8266398684,0.02602,70.16261648,
0.02604,1.192070163,0.02604,70.52804678,
0.02606,0.0957792801,0.02606,69.79718619,
0.02608,-0.2696510141,0.02608,69.79718619,
0.0261,1.192070163,0.0261,70.89347707,
0.02612,0.8266398684,0.02612,70.16261648,
0.02614,1.922930751,0.02614,70.16261648,
0.02616,2.653791339,0.02616,70.89347707,
0.02618,0.8266398684,0.02618,70.52804678,
0.0262,0.0957792801,0.0262,70.16261648,
0.02622,2.288361045,0.02622,70.52804678,
0.02624,0.0957792801,0.02624,70.16261648,
0.02626,-1.000511602,0.02626,70.16261648,
0.02628,0.8266398684,0.02628,70.52804678,
0.0263,-1.000511602,0.0263,69.79718619,
0.02632,0.4612095743,0.02632,69.79718619,
0.02634,0.0957792801,0.02634,70.89347707,
0.02636,-0.6350813082,0.02636,70.16261648,
0.02638,2.288361045,0.02638,69.79718619,
0.0264,0.4612095743,0.0264,71.25890736,
0.02642,1.922930751,0.02642,69.79718619,
0.02644,0.0957792801,0.02644,70.16261648,
0.02646,2.288361045,0.02646,70.52804678,
0.02648,-1.000511602,0.02648,70.89347707,
0.0265,-1.000511602,0.0265,69.79718619,
0.02652,-1.731372191,0.02652,70.89347707,
0.02654,0.8266398684,0.02654,70.52804678,
0.02656,-1.731372191,0.02656,70.16261648,
0.02658,0.8266398684,0.02658,70.16261648,
0.0266,-0.6350813082,0.0266,70.52804678,
0.02662,0.4612095743,0.02662,70.16261648,
0.02664,-1.000511602,0.02664,70.16261648,
0.02666,0.4612095743,0.02666,70.52804678,
0.02668,-1.365941897,0.02668,69.79718619,
0.0267,0.4612095743,0.0267,70.89347707,
0.02672,-1.365941897,0.02672,70.89347707,
0.02674,-0.6350813082,0.02674,69.79718619,
0.02676,-1.000511602,0.02676,70.16261648,
0.02678,-1.000511602,0.02678,70.16261648,
0.0268,-0.6350813082,0.0268,70.52804678,
0.02682,1.557500457,0.02682,70.52804678,
0.02684,-0.2696510141,0.02684,70.52804678,
0.02686,1.922930751,0.02686,70.16261648,
0.02688,1.192070163,0.02688,70.52804678,
0.0269,0.0957792801,0.0269,70.16261648,
0.02692,1.192070163,0.02692,70.16261648,
0.02694,0.8266398684,0.02694,70.52804678,
0.02696,1.192070163,0.02696,70.16261648,
0.02698,1.557500457,0.02698,70.16261648,
0.027,0.4612095743,0.027,70.89347707,
0.02702,0.0957792801,0.02702,70.16261648,
0.02704,0.0957792801,0.02704,69.79718619,
0.02706,0.0957792801,0.02706,70.52804678,
0.02708,1.192070163,0.02708,70.52804678,
0.0271,1.192070163,0.0271,70.16261648,
0.02712,1.922930751,0.02712,70.16261648,
0.02714,0.8266398684,0.02714,70.16261648,
0.02716,1.922930751,0.02716,70.16261648,
0.02718,2.653791339,0.02718,70.52804678,
0.0272,0.4612095743,0.0272,70.52804678,
0.02722,1.557500457,0.02722,70.16261648,
0.02724,0.4612095743,0.02724,70.52804678,
0.02726,-0.6350813082,0.02726,70.16261648,
0.02728,0.0957792801,0.02728,70.16261648,
0.0273,0.0957792801,0.0273,70.52804678,
0.02732,0.4612095743,0.02732,70.16261648,
0.02734,0.4612095743,0.02734,70.52804678,
0.02736,0.8266398684,0.02736,70.52804678,
0.02738,0.0957792801,0.02738,70.16261648,
0.0274,0.0957792801,0.0274,69.79718619,
0.02742,1.557500457,0.02742,69.0663256,
0.02744,-1.000511602,0.02744,70.52804678,
0.02746,-1.365941897,0.02746,70.52804678,
0.02748,-2.096802485,0.02748,69.79718619,
0.0275,-1.000511602,0.0275,70.52804678,
0.02752,-2.096802485,0.02752,69.79718619,
0.02754,-2.096802485,0.02754,70.52804678,
0.02756,-3.923953956,0.02756,69.0663256,
0.02758,-1.365941897,0.02758,70.16261648,
0.0276,-0.2696510141,0.0276,70.52804678,
0.02762,0.4612095743,0.02762,70.52804678,
0.02764,0.0957792801,0.02764,70.16261648,
0.02766,-1.365941897,0.02766,70.89347707,
0.02768,-0.6350813082,0.02768,70.16261648,
0.0277,-0.6350813082,0.0277,69.79718619,
0.02772,-1.000511602,0.02772,70.52804678,
0.02774,-1.000511602,0.02774,70.52804678,
0.02776,-0.6350813082,0.02776,70.52804678,
0.02778,-0.6350813082,0.02778,70.89347707,
0.0278,-1.000511602,0.0278,70.52804678,
0.02782,1.557500457,0.02782,70.16261648,
0.02784,0.4612095743,0.02784,70.52804678,
0.02786,1.557500457,0.02786,70.16261648,
0.02788,1.557500457,0.02788,69.43175589,
0.0279,1.192070163,0.0279,70.16261648,
0.02792,-0.6350813082,0.02792,70.52804678,
0.02794,1.192070163,0.02794,70.16261648,
0.02796,-0.2696510141,0.02796,70.89347707,
0.02798,-0.2696510141,0.02798,70.52804678,
0.028,1.557500457,0.028,70.16261648,
0.02802,0.0957792801,0.02802,70.52804678,
0.02804,-0.6350813082,0.02804,70.16261648,
0.02806,0.8266398684,0.02806,70.16261648,
0.02808,0.8266398684,0.02808,70.52804678,
0.0281,1.557500457,0.0281,70.16261648,
0.02812,2.288361045,0.02812,70.16261648,
0.02814,2.288361045,0.02814,70.89347707,
0.02816,1.557500457,0.02816,70.16261648,
0.02818,1.557500457,0.02818,70.52804678,
0.0282,1.192070163,0.0282,70.52804678,
0.02822,1.192070163,0.02822,70.52804678,
0.02824,0.0957792801,0.02824,70.52804678,
0.02826,-0.2696510141,0.02826,70.89347707,
0.02828,-0.2696510141,0.02828,70.16261648,
0.0283,0.4612095743,0.0283,70.16261648,
0.02832,0.4612095743,0.02832,70.89347707,
0.02834,0.4612095743,0.02834,70.52804678,
0.02836,1.192070163,0.02836,69.79718619,
0.02838,0.0957792801,0.02838,70.89347707,
0.0284,0.0957792801,0.0284,70.16261648,
0.02842,2.653791339,0.02842,70.16261648,
0.02844,-1.731372191,0.02844,70.89347707,
0.02846,0.4612095743,0.02846,69.43175589,
0.02848,-2.096802485,0.02848,70.89347707,
0.0285,-2.827663073,0.0285,70.16261648,
0.02852,-2.827663073,0.02852,70.52804678,
0.02854,-1.365941897,0.02854,69.43175589,
0.02856,-1.000511602,0.02856,70.52804678,
0.02858,0.0957792801,0.02858,70.52804678,
0.0286,0.0957792801,0.0286,69.79718619,
0.02862,-1.365941897,0.02862,69.79718619,
0.02864,0.4612095743,0.02864,70.52804678,
0.02866,-0.2696510141,0.02866,69.79718619,
0.02868,-1.365941897,0.02868,69.43175589,
0.0287,0.0957792801,0.0287,70.16261648,
0.02872,-0.6350813082,0.02872,70.52804678,
0.02874,-0.6350813082,0.02874,69.79718619,
0.02876,0.0957792801,0.02876,70.16261648,
0.02878,0.8266398684,0.02878,70.16261648,
0.0288,0.8266398684,0.0288,70.52804678,
0.02882,0.4612095743,0.02882,70.16261648,
0.02884,0.8266398684,0.02884,70.16261648,
0.02886,1.192070163,0.02886,69.79718619,
0.02888,0.8266398684,0.02888,69.79718619,
0.0289,0.4612095743,0.0289,70.16261648,
0.02892,0.0957792801,0.02892,70.16261648,
0.02894,0.4612095743,0.02894,70.52804678,
0.02896,1.922930751,0.02896,69.79718619,
0.02898,2.288361045,0.02898,70.52804678,
0.029,1.557500457,0.029,70.16261648,
0.02902,1.192070163,0.02902,70.52804678,
0.02904,1.922930751,0.02904,70.52804678,
0.02906,1.557500457,0.02906,70.16261648,
0.02908,1.192070163,0.02908,70.89347707,
0.0291,1.557500457,0.0291,70.52804678,
0.02912,1.557500457,0.02912,70.52804678,
0.02914,0.8266398684,0.02914,70.52804678,
0.02916,1.192070163,0.02916,70.16261648,
0.02918,0.8266398684,0.02918,69.79718619,
0.0292,-0.2696510141,0.0292,70.16261648,
0.02922,-1.000511602,0.02922,70.16261648,
0.02924,-0.2696510141,0.02924,70.16261648,
0.02926,-0.2696510141,0.02926,70.89347707,
0.02928,-0.6350813082,0.02928,70.16261648,
0.0293,0.4612095743,0.0293,69.79718619,
0.02932,2.653791339,0.02932,70.16261648,
0.02934,-0.6350813082,0.02934,70.16261648,
0.02936,1.192070163,0.02936,69.43175589,
0.02938,0.8266398684,0.02938,70.52804678,
0.0294,-2.096802485,0.0294,70.16261648,
0.02942,-0.6350813082,0.02942,69.43175589,
0.02944,-2.096802485,0.02944,69.79718619,
0.02946,-2.462232779,0.02946,69.79718619,
0.02948,-3.193093367,0.02948,69.79718619,
0.0295,-1.365941897,0.0295,70.89347707,
0.02952,-3.558523662,0.02952,68.7008953,
0.02954,-1.000511602,0.02954,70.16261648,
0.02956,0.0957792801,0.02956,70.16261648,
0.02958,-1.365941897,0.02958,69.79718619,
0.0296,-0.6350813082,0.0296,70.16261648,
0.02962,-0.2696510141,0.02962,70.16261648,
0.02964,0.0957792801,0.02964,70.16261648,
0.02966,-1.000511602,0.02966,70.89347707,
0.02968,-1.365941897,0.02968,70.52804678,
0.0297,0.0957792801,0.0297,70.16261648,
0.02972,-0.6350813082,0.02972,70.52804678,
0.02974,-0.2696510141,0.02974,70.52804678,
0.02976,-0.2696510141,0.02976,70.16261648,
0.02978,1.557500457,0.02978,70.52804678,
0.0298,0.4612095743,0.0298,70.52804678,
0.02982,1.557500457,0.02982,70.16261648,
0.02984,1.192070163,0.02984,70.52804678,
0.02986,0.8266398684,0.02986,70.16261648,
0.02988,1.922930751,0.02988,70.16261648,
0.0299,1.557500457,0.0299,70.52804678,
0.02992,0.8266398684,0.02992,70.16261648,
0.02994,1.192070163,0.02994,70.16261648,
0.02996,0.8266398684,0.02996,70.52804678,
0.02998,0.0957792801,0.02998,70.16261648,
0.03,1.192070163,0.03,70.16261648,
0.03002,1.192070163,0.03002,70.52804678,
0.03004,1.192070163,0.03004,70.16261648,
0.03006,1.557500457,0.03006,70.16261648,
0.03008,1.922930751,0.03008,70.89347707,
0.0301,1.557500457,0.0301,70.52804678,
0.03012,2.653791339,0.03012,70.16261648,
0.03014,1.922930751,0.03014,70.52804678,
0.03016,1.192070163,0.03016,70.16261648,
0.03018,0.8266398684,0.03018,70.16261648,
0.0302,0.0957792801,0.0302,70.16261648,
0.03022,-0.2696510141,0.03022,70.52804678,
0.03024,0.4612095743,0.03024,70.16261648,
0.03026,-0.2696510141,0.03026,70.52804678,
0.03028,-1.731372191,0.03028,70.16261648,
0.0303,0.0957792801,0.0303,70.52804678,
0.03032,0.0957792801,0.03032,70.16261648,
0.03034,0.0957792801,0.03034,69.79718619,
0.03036,0.4612095743,0.03036,70.52804678,
0.03038,-0.6350813082,0.03038,70.89347707,
0.0304,-1.731372191,0.0304,69.79718619,
0.03042,-0.6350813082,0.03042,70.52804678,
0.03044,-1.365941897,0.03044,71.25890736,
0.03046,-1.731372191,0.03046,70.52804678,
0.03048,-0.6350813082,0.03048,70.16261648,
0.0305,-1.000511602,0.0305,70.52804678,
0.03052,-1.365941897,0.03052,70.16261648,
0.03054,-0.2696510141,0.03054,70.52804678,
0.03056,0.0957792801,0.03056,70.52804678,
0.03058,0.0957792801,0.03058,70.52804678,
0.0306,1.192070163,0.0306,70.16261648,
0.03062,0.0957792801,0.03062,70.89347707,
0.03064,-0.6350813082,0.03064,70.16261648,
0.03066,0.0957792801,0.03066,70.52804678,
0.03068,-2.462232779,0.03068,70.89347707,
0.0307,-1.365941897,0.0307,70.52804678,
0.03072,0.0957792801,0.03072,69.79718619,
0.03074,-0.2696510141,0.03074,70.52804678,
0.03076,0.0957792801,0.03076,70.16261648,
0.03078,2.288361045,0.03078,70.16261648,
0.0308,0.8266398684,0.0308,70.52804678,
0.03082,0.4612095743,0.03082,70.52804678,
0.03084,1.192070163,0.03084,70.16261648,
0.03086,1.192070163,0.03086,70.52804678,
0.03088,1.192070163,0.03088,70.16261648,
0.0309,1.557500457,0.0309,69.79718619,
0.03092,0.8266398684,0.03092,70.52804678,
0.03094,0.4612095743,0.03094,70.16261648,
0.03096,0.8266398684,0.03096,69.79718619,
0.03098,0.0957792801,0.03098,70.52804678,
0.031,0.8266398684,0.031,70.16261648,
0.03102,1.557500457,0.03102,69.79718619,
0.03104,1.557500457,0.03104,70.52804678,
0.03106,1.922930751,0.03106,70.16261648,
0.03108,1.922930751,0.03108,70.16261648,
0.0311,1.922930751,0.0311,70.52804678,
0.03112,0.4612095743,0.03112,70.16261648,
0.03114,1.557500457,0.03114,70.16261648,
0.03116,0.8266398684,0.03116,70.52804678,
0.03118,0.0957792801,0.03118,70.16261648,
0.0312,-0.2696510141,0.0312,69.79718619,
0.03122,0.4612095743,0.03122,70.52804678,
0.03124,-0.6350813082,0.03124,70.16261648,
0.03126,0.4612095743,0.03126,70.52804678,
0.03128,0.0957792801,0.03128,70.52804678,
0.0313,1.192070163,0.0313,70.52804678,
0.03132,0.0957792801,0.03132,70.16261648,
0.03134,-0.2696510141,0.03134,70.89347707,
0.03136,-1.731372191,0.03136,69.79718619,
0.03138,0.0957792801,0.03138,70.16261648,
0.0314,0.0957792801,0.0314,70.16261648,
0.03142,-0.6350813082,0.03142,70.89347707,
0.03144,-2.827663073,0.03144,70.52804678,
0.03146,-1.365941897,0.03146,69.0663256,
0.03148,-0.2696510141,0.03148,70.16261648,
0.0315,-1.365941897,0.0315,69.43175589,
0.03152,-0.2696510141,0.03152,69.79718619,
0.03154,-0.2696510141,0.03154,70.52804678,
0.03156,-0.2696510141,0.03156,70.16261648,
0.03158,-0.2696510141,0.03158,69.79718619,
0.0316,0.0957792801,0.0316,70.16261648,
0.03162,-0.6350813082,0.03162,70.52804678,
0.03164,-1.365941897,0.03164,69.79718619,
0.03166,-0.2696510141,0.03166,70.16261648,
0.03168,-0.6350813082,0.03168,70.16261648,
0.0317,0.4612095743,0.0317,69.79718619,
0.03172,0.8266398684,0.03172,70.16261648,
0.03174,0.4612095743,0.03174,70.16261648,
0.03176,0.8266398684,0.03176,69.79718619,
0.03178,0.4612095743,0.03178,70.16261648,
0.0318,1.557500457,0.0318,70.16261648,
0.03182,0.4612095743,0.03182,69.79718619,
0.03184,0.0957792801,0.03184,70.16261648,
0.03186,1.192070163,0.03186,70.16261648,
0.03188,0.0957792801,0.03188,69.43175589,
0.0319,1.557500457,0.0319,69.79718619,
0.03192,2.288361045,0.03192,70.16261648,
0.03194,1.192070163,0.03194,69.79718619,
0.03196,0.4612095743,0.03196,70.16261648,
0.03198,2.288361045,0.03198,69.79718619,
0.032,1.192070163,0.032,69.43175589,
0.03202,1.922930751,0.03202,69.79718619,
0.03204,2.653791339,0.03204,69.79718619,
0.03206,1.557500457,0.03206,69.79718619,
0.03208,1.922930751,0.03208,70.16261648,
0.0321,0.4612095743,0.0321,70.16261648,
0.03212,1.557500457,0.03212,69.43175589,
0.03214,1.192070163,0.03214,70.16261648,
0.03216,-1.000511602,0.03216,70.16261648,
0.03218,0.0957792801,0.03218,69.79718619,
0.0322,0.0957792801,0.0322,69.79718619,
0.03222,0.8266398684,0.03222,70.52804678,
0.03224,-0.6350813082,0.03224,69.43175589,
0.03226,0.4612095743,0.03226,70.52804678,
0.03228,0.8266398684,0.03228,69.43175589,
0.0323,2.288361045,0.0323,70.16261648,
0.03232,-0.6350813082,0.03232,70.16261648,
0.03234,0.0957792801,0.03234,69.79718619,
0.03236,-2.462232779,0.03236,69.79718619,
0.03238,-0.6350813082,0.03238,68.33546501,
0.0324,-1.365941897,0.0324,70.52804678,
0.03242,-1.365941897,0.03242,70.16261648,
0.03244,0.4612095743,0.03244,70.16261648,
0.03246,-0.2696510141,0.03246,70.16261648,
0.03248,-1.000511602,0.03248,69.79718619,
0.0325,0.8266398684,0.0325,70.16261648,
0.03252,0.4612095743,0.03252,69.79718619,
0.03254,1.557500457,0.03254,69.43175589,
0.03256,0.4612095743,0.03256,69.79718619,
0.03258,-1.000511602,0.03258,70.16261648,
0.0326,0.4612095743,0.0326,69.43175589,
0.03262,-0.2696510141,0.03262,69.79718619,
0.03264,-0.6350813082,0.03264,70.16261648,
0.03266,-1.365941897,0.03266,69.79718619,
0.03268,-0.6350813082,0.03268,69.79718619,
0.0327,0.4612095743,0.0327,70.16261648,
0.03272,0.8266398684,0.03272,69.79718619,
0.03274,0.8266398684,0.03274,70.16261648,
0.03276,1.192070163,0.03276,70.52804678,
0.03278,0.8266398684,0.03278,69.79718619,
0.0328,1.557500457,0.0328,70.16261648,
0.03282,0.8266398684,0.03282,70.16261648,
0.03284,-0.2696510141,0.03284,69.79718619,
0.03286,0.8266398684,0.03286,70.16261648,
0.03288,0.0957792801,0.03288,70.52804678,
0.0329,0.4612095743,0.0329,69.43175589,
0.03292,1.192070163,0.03292,70.16261648,
0.03294,0.4612095743,0.03294,70.16261648,
0.03296,-0.2696510141,0.03296,69.43175589,
0.03298,1.192070163,0.03298,70.16261648,
0.033,2.288361045,0.033,69.79718619,
0.03302,0.0957792801,0.03302,69.79718619,
0.03304,1.192070163,0.03304,70.16261648,
0.03306,1.922930751,0.03306,70.52804678,
0.03308,0.8266398684,0.03308,70.16261648,
0.0331,1.557500457,0.0331,69.79718619,
0.03312,1.192070163,0.03312,70.16261648,
0.03314,-1.000511602,0.03314,69.79718619,
0.03316,0.0957792801,0.03316,70.16261648,
0.03318,0.0957792801,0.03318,70.16261648,
0.0332,-0.2696510141,0.0332,69.79718619,
0.03322,2.288361045,0.03322,70.16261648,
0.03324,1.922930751,0.03324,69.79718619,
0.03326,1.192070163,0.03326,69.79718619,
0.03328,0.8266398684,0.03328,70.16261648,
0.0333,-1.000511602,0.0333,70.16261648,
0.03332,-1.365941897,0.03332,69.43175589,
0.03334,-1.000511602,0.03334,70.16261648,
0.03336,-2.462232779,0.03336,70.52804678,
0.03338,-2.462232779,0.03338,71.25890736,
0.0334,-0.6350813082,0.0334,69.43175589,
0.03342,-3.193093367,0.03342,70.16261648,
0.03344,-1.731372191,0.03344,70.89347707,
0.03346,0.8266398684,0.03346,70.16261648,
0.03348,-0.2696510141,0.03348,69.43175589,
0.0335,-0.2696510141,0.0335,70.89347707,
0.03352,-1.731372191,0.03352,70.52804678,
0.03354,-0.2696510141,0.03354,69.43175589,
0.03356,0.4612095743,0.03356,70.52804678,
0.03358,-1.000511602,0.03358,70.16261648,
0.0336,-1.365941897,0.0336,69.79718619,
0.03362,-0.6350813082,0.03362,70.52804678,
0.03364,-2.096802485,0.03364,70.16261648,
0.03366,0.0957792801,0.03366,69.79718619,
0.03368,0.0957792801,0.03368,70.52804678,
0.0337,0.8266398684,0.0337,70.16261648,
0.03372,0.8266398684,0.03372,69.79718619,
0.03374,0.0957792801,0.03374,70.52804678,
0.03376,-0.2696510141,0.03376,70.16261648,
0.03378,0.4612095743,0.03378,70.16261648,
0.0338,0.8266398684,0.0338,70.89347707,
0.03382,0.0957792801,0.03382,70.16261648,
0.03384,0.4612095743,0.03384,70.16261648,
0.03386,-0.2696510141,0.03386,70.52804678,
0.03388,-0.2696510141,0.03388,70.16261648,
0.0339,0.4612095743,0.0339,69.79718619,
0.03392,0.4612095743,0.03392,70.16261648,
0.03394,2.288361045,0.03394,69.79718619,
0.03396,0.8266398684,0.03396,69.79718619,
0.03398,1.922930751,0.03398,70.52804678,
0.034,1.922930751,0.034,70.16261648,
0.03402,1.557500457,0.03402,70.16261648,
0.03404,2.288361045,0.03404,69.79718619,
0.03406,1.922930751,0.03406,70.16261648,
0.03408,0.4612095743,0.03408,70.52804678,
0.0341,0.4612095743,0.0341,70.16261648,
0.03412,0.0957792801,0.03412,70.16261648,
0.03414,-1.000511602,0.03414,70.16261648,
0.03416,-0.2696510141,0.03416,70.52804678,
0.03418,0.8266398684,0.03418,70.16261648,
0.0342,1.192070163,0.0342,70.16261648,
0.03422,1.557500457,0.03422,70.16261648,
0.03424,0.8266398684,0.03424,70.52804678,
0.03426,0.0957792801,0.03426,70.89347707,
0.03428,-0.6350813082,0.03428,70.52804678,
0.0343,-0.2696510141,0.0343,70.89347707,
0.03432,-0.2696510141,0.03432,70.52804678,
0.03434,-1.365941897,0.03434,69.43175589,
0.03436,-3.193093367,0.03436,69.0663256,
0.03438,-2.096802485,0.03438,70.16261648,
0.0344,-3.193093367,0.0344,70.89347707,
0.03442,1.192070163,0.03442,69.79718619,
0.03444,0.4612095743,0.03444,69.79718619,
0.03446,0.0957792801,0.03446,69.79718619,
0.03448,-0.2696510141,0.03448,70.16261648,
0.0345,0.4612095743,0.0345,69.79718619,
0.03452,-0.2696510141,0.03452,69.79718619,
0.03454,0.4612095743,0.03454,70.16261648,
0.03456,-2.096802485,0.03456,70.16261648,
0.03458,-1.000511602,0.03458,69.79718619,
0.0346,-0.6350813082,0.0346,70.52804678,
0.03462,0.8266398684,0.03462,70.16261648,
0.03464,-0.6350813082,0.03464,69.79718619,
0.03466,0.4612095743,0.03466,70.16261648,
0.03468,0.4612095743,0.03468,69.79718619,
0.0347,0.4612095743,0.0347,69.43175589,
0.03472,1.557500457,0.03472,69.43175589,
0.03474,1.922930751,0.03474,69.79718619,
0.03476,0.0957792801,0.03476,69.43175589,
0.03478,0.4612095743,0.03478,70.16261648,
0.0348,1.557500457,0.0348,69.79718619,
0.03482,0.0957792801,0.03482,69.79718619,
0.03484,0.4612095743,0.03484,69.79718619,
0.03486,0.4612095743,0.03486,70.16261648,
0.03488,-0.2696510141,0.03488,69.43175589,
0.0349,1.192070163,0.0349,70.16261648,
0.03492,0.4612095743,0.03492,70.16261648,
0.03494,1.192070163,0.03494,69.79718619,
0.03496,1.557500457,0.03496,70.16261648,
0.03498,1.922930751,0.03498,70.16261648,
0.035,1.557500457,0.035,69.79718619,
0.03502,2.653791339,0.03502,70.16261648,
0.03504,0.4612095743,0.03504,69.79718619,
0.03506,0.4612095743,0.03506,69.0663256,
0.03508,0.0957792801,0.03508,69.79718619,
0.0351,-1.000511602,0.0351,70.16261648,
0.03512,-1.731372191,0.03512,69.43175589,
0.03514,0.4612095743,0.03514,69.79718619,
0.03516,1.192070163,0.03516,69.79718619,
0.03518,0.0957792801,0.03518,69.79718619,
0.0352,1.922930751,0.0352,70.16261648,
0.03522,0.8266398684,0.03522,70.16261648,
0.03524,0.4612095743,0.03524,69.43175589,
0.03526,0.0957792801,0.03526,70.16261648,
0.03528,-0.2696510141,0.03528,70.52804678,
0.0353,-0.2696510141,0.0353,70.16261648,
0.03532,-2.462232779,0.03532,70.16261648,
0.03534,-2.096802485,0.03534,68.7008953,
0.03536,-1.731372191,0.03536,69.79718619,
0.03538,-1.365941897,0.03538,70.52804678,
0.0354,-1.365941897,0.0354,69.0663256,
0.03542,0.0957792801,0.03542,69.79718619,
0.03544,0.8266398684,0.03544,70.16261648,
0.03546,0.8266398684,0.03546,70.52804678,
0.03548,0.4612095743,0.03548,69.0663256,
0.0355,0.4612095743,0.0355,69.79718619,
0.03552,-1.000511602,0.03552,70.16261648,
0.03554,-1.365941897,0.03554,69.79718619,
0.03556,-0.6350813082,0.03556,70.16261648,
0.03558,-1.365941897,0.03558,70.16261648,
0.0356,-0.2696510141,0.0356,69.43175589,
0.03562,0.4612095743,0.03562,70.52804678,
0.03564,1.192070163,0.03564,70.16261648,
0.03566,0.4612095743,0.03566,69.79718619,
0.03568,1.557500457,0.03568,70.52804678,
0.0357,1.922930751,0.0357,70.16261648,
0.03572,0.4612095743,0.03572,69.79718619,
0.03574,1.192070163,0.03574,70.16261648,
0.03576,1.922930751,0.03576,70.16261648,
0.03578,0.8266398684,0.03578,69.79718619,
0.0358,0.4612095743,0.0358,70.52804678,
0.03582,0.8266398684,0.03582,70.16261648,
0.03584,0.8266398684,0.03584,69.43175589,
0.03586,0.8266398684,0.03586,69.79718619,
0.03588,0.4612095743,0.03588,70.52804678,
0.0359,1.192070163,0.0359,69.79718619,
0.03592,1.557500457,0.03592,70.16261648,
0.03594,1.557500457,0.03594,69.79718619,
0.03596,1.557500457,0.03596,69.79718619,
0.03598,2.288361045,0.03598,69.79718619,
0.036,1.192070163,0.036,70.16261648,
0.03602,-0.2696510141,0.03602,69.43175589,
0.03604,1.192070163,0.03604,70.16261648,
0.03606,0.4612095743,0.03606,70.16261648,
0.03608,-1.000511602,0.03608,69.79718619,
0.0361,0.8266398684,0.0361,69.43175589,
0.03612,-0.2696510141,0.03612,70.52804678,
0.03614,0.8266398684,0.03614,69.43175589,
0.03616,0.0957792801,0.03616,70.16261648,
0.03618,0.0957792801,0.03618,70.52804678,
0.0362,1.192070163,0.0362,69.79718619,
0.03622,-0.2696510141,0.03622,71.25890736,
0.03624,-2.462232779,0.03624,70.16261648,
0.03626,0.8266398684,0.03626,69.43175589,
0.03628,-1.731372191,0.03628,70.16261648,
0.0363,-1.365941897,0.0363,69.79718619,
0.03632,-0.2696510141,0.03632,70.16261648,
0.03634,-3.193093367,0.03634,69.43175589,
0.03636,-1.000511602,0.03636,69.79718619,
0.03638,0.4612095743,0.03638,69.43175589,
0.0364,-1.731372191,0.0364,70.52804678,
0.03642,0.4612095743,0.03642,69.79718619,
0.03644,-0.2696510141,0.03644,69.79718619,
0.03646,0.8266398684,0.03646,70.16261648,
0.03648,-0.2696510141,0.03648,69.43175589,
0.0365,-1.365941897,0.0365,70.16261648,
0.03652,-1.365941897,0.03652,70.52804678,
0.03654,-1.731372191,0.03654,70.16261648,
0.03656,-1.365941897,0.03656,69.79718619,
0.03658,-0.2696510141,0.03658,70.52804678,
0.0366,-1.365941897,0.0366,69.79718619,
0.03662,0.4612095743,0.03662,69.79718619,
0.03664,0.4612095743,0.03664,70.16261648,
0.03666,1.557500457,0.03666,69.79718619,
0.03668,0.0957792801,0.03668,69.79718619,
0.0367,0.0957792801,0.0367,70.52804678,
0.03672,0.0957792801,0.03672,70.16261648,
0.03674,0.0957792801,0.03674,70.16261648,
0.03676,0.4612095743,0.03676,70.16261648,
0.03678,0.0957792801,0.03678,70.16261648,
0.0368,0.4612095743,0.0368,69.79718619,
0.03682,1.192070163,0.03682,70.16261648,
0.03684,-0.6350813082,0.03684,70.16261648,
0.03686,0.0957792801,0.03686,69.79718619,
0.03688,0.4612095743,0.03688,70.89347707,
0.0369,1.557500457,0.0369,70.16261648,
0.03692,0.4612095743,0.03692,69.79718619,
0.03694,0.4612095743,0.03694,70.52804678,
0.03696,0.0957792801,0.03696,70.16261648,
0.03698,1.557500457,0.03698,69.79718619,
0.037,0.8266398684,0.037,70.52804678,
0.03702,0.0957792801,0.03702,70.16261648,
0.03704,0.0957792801,0.03704,70.16261648,
0.03706,0.4612095743,0.03706,70.52804678,
0.03708,-1.000511602,0.03708,70.16261648,
0.0371,0.4612095743,0.0371,69.79718619,
0.03712,0.0957792801,0.03712,70.52804678,
0.03714,-0.6350813082,0.03714,69.79718619,
0.03716,1.192070163,0.03716,69.43175589,
0.03718,1.192070163,0.03718,70.52804678,
0.0372,0.0957792801,0.0372,70.52804678,
0.03722,-0.2696510141,0.03722,70.16261648,
0.03724,-2.096802485,0.03724,69.79718619,
0.03726,-0.2696510141,0.03726,70.89347707,
0.03728,-1.365941897,0.03728,71.25890736,
0.0373,-1.731372191,0.0373,70.16261648,
0.03732,-1.365941897,0.03732,70.16261648,
0.03734,1.192070163,0.03734,69.79718619,
0.03736,-0.2696510141,0.03736,70.89347707,
0.03738,-1.365941897,0.03738,69.79718619,
0.0374,-0.6350813082,0.0374,69.43175589,
0.03742,0.0957792801,0.03742,70.52804678,
0.03744,0.0957792801,0.03744,70.16261648,
0.03746,-0.2696510141,0.03746,70.16261648,
0.03748,-0.2696510141,0.03748,70.16261648,
0.0375,-1.000511602,0.0375,69.79718619,
0.03752,-1.000511602,0.03752,69.79718619,
0.03754,-0.2696510141,0.03754,70.16261648,
0.03756,-0.6350813082,0.03756,70.16261648,
0.03758,0.0957792801,0.03758,69.79718619,
0.0376,1.192070163,0.0376,70.52804678,
0.03762,0.8266398684,0.03762,69.79718619,
0.03764,-0.2696510141,0.03764,69.79718619,
0.03766,0.4612095743,0.03766,70.52804678,
0.03768,0.4612095743,0.03768,69.79718619,
0.0377,0.0957792801,0.0377,70.16261648,
0.03772,1.192070163,0.03772,70.52804678,
0.03774,-0.2696510141,0.03774,70.16261648,
0.03776,0.4612095743,0.03776,69.79718619,
0.03778,0.4612095743,0.03778,70.52804678,
0.0378,-0.2696510141,0.0378,70.16261648,
0.03782,1.192070163,0.03782,69.79718619,
0.03784,-0.2696510141,0.03784,70.89347707,
0.03786,0.0957792801,0.03786,69.79718619,
0.03788,1.192070163,0.03788,69.79718619,
0.0379,1.192070163,0.0379,70.52804678,
0.03792,0.4612095743,0.03792,70.16261648,
0.03794,1.557500457,0.03794,69.79718619,
0.03796,2.653791339,0.03796,70.16261648,
0.03798,0.4612095743,0.03798,70.16261648,
0.038,1.557500457,0.038,69.79718619,
0.03802,0.4612095743,0.03802,70.52804678,
0.03804,-1.731372191,0.03804,70.16261648,
0.03806,-1.000511602,0.03806,69.79718619,
0.03808,0.0957792801,0.03808,70.52804678,
0.0381,-0.2696510141,0.0381,69.79718619,
0.03812,0.0957792801,0.03812,70.16261648,
0.03814,0.0957792801,0.03814,69.79718619,
0.03816,0.8266398684,0.03816,70.16261648,
0.03818,-0.2696510141,0.03818,70.52804678,
0.0382,-1.000511602,0.0382,70.52804678,
0.03822,1.192070163,0.03822,70.16261648,
0.03824,-1.000511602,0.03824,70.52804678,
0.03826,-3.558523662,0.03826,70.52804678,
0.03828,-2.096802485,0.03828,70.52804678,
0.0383,-2.096802485,0.0383,69.79718619,
0.03832,-3.558523662,0.03832,70.52804678,
0.03834,-2.462232779,0.03834,70.89347707,
0.03836,-1.365941897,0.03836,70.16261648,
0.03838,-1.000511602,0.03838,69.79718619,
0.0384,-0.2696510141,0.0384,70.52804678,
0.03842,0.8266398684,0.03842,70.16261648,
0.03844,-0.6350813082,0.03844,69.79718619,
0.03846,-1.365941897,0.03846,70.16261648,
0.03848,-1.000511602,0.03848,70.89347707,
0.0385,-1.000511602,0.0385,70.16261648,
0.03852,-1.731372191,0.03852,69.79718619,
0.03854,0.0957792801,0.03854,70.52804678,
0.03856,-1.000511602,0.03856,70.52804678,
0.03858,0.4612095743,0.03858,70.16261648,
0.0386,1.192070163,0.0386,70.52804678,
0.03862,-0.2696510141,0.03862,70.16261648,
0.03864,0.8266398684,0.03864,70.16261648,
0.03866,1.557500457,0.03866,70.52804678,
0.03868,0.0957792801,0.03868,69.79718619,
0.0387,1.192070163,0.0387,70.16261648,
0.03872,0.8266398684,0.03872,70.52804678,
0.03874,0.8266398684,0.03874,70.16261648,
0.03876,0.4612095743,0.03876,69.79718619,
0.03878,1.557500457,0.03878,70.52804678,
0.0388,-0.2696510141,0.0388,70.16261648,
0.03882,0.8266398684,0.03882,69.79718619,
0.03884,0.8266398684,0.03884,70.89347707,
0.03886,1.192070163,0.03886,70.52804678,
0.03888,2.288361045,0.03888,69.79718619,
0.0389,2.653791339,0.0389,70.52804678,
0.03892,0.8266398684,0.03892,70.16261648,
0.03894,2.288361045,0.03894,69.79718619,
0.03896,1.192070163,0.03896,70.16261648,
0.03898,0.0957792801,0.03898,70.16261648,
0.039,0.8266398684,0.039,70.16261648,
0.03902,-0.2696510141,0.03902,70.52804678,
0.03904,-0.6350813082,0.03904,70.16261648,
0.03906,-0.6350813082,0.03906,70.52804678,
0.03908,0.8266398684,0.03908,70.16261648,
0.0391,0.0957792801,0.0391,70.52804678,
0.03912,0.4612095743,0.03912,70.52804678,
0.03914,-0.2696510141,0.03914,69.43175589,
0.03916,-0.2696510141,0.03916,70.52804678,
0.03918,0.4612095743,0.03918,70.52804678,
0.0392,-1.365941897,0.0392,70.89347707,
0.03922,-2.096802485,0.03922,69.79718619,
0.03924,-2.462232779,0.03924,69.0663256,
0.03926,-1.000511602,0.03926,70.89347707,
0.03928,-0.6350813082,0.03928,69.43175589,
0.0393,-0.6350813082,0.0393,70.52804678,
0.03932,-0.2696510141,0.03932,71.25890736,
0.03934,0.8266398684,0.03934,70.52804678,
0.03936,1.192070163,0.03936,70.52804678,
0.03938,0.0957792801,0.03938,70.52804678,
0.0394,-1.000511602,0.0394,70.52804678,
0.03942,-0.6350813082,0.03942,70.16261648,
0.03944,-1.365941897,0.03944,70.16261648,
0.03946,-1.365941897,0.03946,70.16261648,
0.03948,-1.365941897,0.03948,70.52804678,
0.0395,-1.731372191,0.0395,69.79718619,
0.03952,-1.000511602,0.03952,70.89347707,
0.03954,-0.2696510141,0.03954,69.79718619,
0.03956,0.4612095743,0.03956,70.16261648,
0.03958,0.4612095743,0.03958,70.52804678,
0.0396,0.0957792801,0.0396,69.79718619,
0.03962,0.8266398684,0.03962,70.16261648,
0.03964,1.192070163,0.03964,70.16261648,
0.03966,-0.6350813082,0.03966,70.16261648,
0.03968,0.0957792801,0.03968,69.79718619,
0.0397,0.8266398684,0.0397,70.52804678,
0.03972,-0.6350813082,0.03972,70.16261648,
0.03974,0.0957792801,0.03974,69.79718619,
0.03976,0.8266398684,0.03976,70.52804678,
0.03978,-1.000511602,0.03978,70.16261648,
0.0398,0.8266398684,0.0398,69.79718619,
0.03982,1.192070163,0.03982,70.52804678,
0.03984,0.4612095743,0.03984,69.79718619,
0.03986,1.192070163,0.03986,70.16261648,
0.03988,0.4612095743,0.03988,70.52804678,
0.0399,1.192070163,0.0399,70.16261648,
0.03992,1.192070163,0.03992,69.79718619,
0.03994,1.192070163,0.03994,70.52804678,
0.03996,-0.2696510141,0.03996,70.16261648,
0.03998,-0.2696510141,0.03998,69.79718619,
0.04,-1.365941897,0.04,70.52804678,
0.04002,-1.000511602,0.04002,70.16261648,
0.04004,-0.6350813082,0.04004,69.79718619,
0.04006,0.0957792801,0.04006,70.52804678,
0.04008,-1.000511602,0.04008,70.16261648,
0.0401,0.4612095743,0.0401,70.16261648,
0.04012,0.0957792801,0.04012,70.89347707,
0.04014,-0.2696510141,0.04014,70.16261648,
0.04016,-1.000511602,0.04016,69.79718619,
0.04018,-1.365941897,0.04018,70.89347707,
0.0402,-2.827663073,0.0402,70.89347707,
0.04022,-1.000511602,0.04022,69.43175589,
0.04024,-2.462232779,0.04024,70.16261648,
0.04026,-3.193093367,0.04026,69.79718619,
0.04028,-2.827663073,0.04028,69.79718619,
0.0403,-1.000511602,0.0403,71.25890736,
0.04032,-0.6350813082,0.04032,70.16261648,
0.04034,0.0957792801,0.04034,69.43175589,
0.04036,-0.6350813082,0.04036,70.52804678,
0.04038,-1.000511602,0.04038,70.16261648,
0.0404,-1.000511602,0.0404,69.79718619,
0.04042,0.4612095743,0.04042,70.16261648,
0.04044,-0.6350813082,0.04044,70.16261648,
0.04046,-1.365941897,0.04046,69.43175589,
0.04048,-1.731372191,0.04048,70.52804678,
0.0405,-1.000511602,0.0405,70.52804678,
0.04052,0.0957792801,0.04052,69.79718619,
0.04054,0.4612095743,0.04054,70.52804678,
0.04056,0.8266398684,0.04056,69.79718619,
0.04058,0.8266398684,0.04058,69.79718619,
0.0406,1.192070163,0.0406,70.16261648,
0.04062,1.192070163,0.04062,69.79718619,
0.04064,0.0957792801,0.04064,69.79718619,
0.04066,-0.2696510141,0.04066,70.52804678,
0.04068,-0.2696510141,0.04068,70.16261648,
0.0407,1.557500457,0.0407,69.79718619,
0.04072,0.0957792801,0.04072,70.52804678,
0.04074,0.4612095743,0.04074,69.79718619,
0.04076,-0.2696510141,0.04076,70.16261648,
0.04078,1.192070163,0.04078,70.89347707,
0.0408,0.8266398684,0.0408,70.52804678,
0.04082,1.557500457,0.04082,69.79718619,
0.04084,1.557500457,0.04084,70.16261648,
0.04086,2.288361045,0.04086,70.16261648,
0.04088,3.019221633,0.04088,69.79718619,
0.0409,1.192070163,0.0409,70.52804678,
0.04092,0.4612095743,0.04092,70.16261648,
0.04094,0.8266398684,0.04094,69.43175589,
0.04096,-0.6350813082,0.04096,70.52804678,
0.04098,-2.096802485,0.04098,70.16261648,
0.041,-1.365941897,0.041,70.16261648,
0.04102,0.0957792801,0.04102,70.52804678,
0.04104,-0.6350813082,0.04104,70.16261648,
0.04106,0.8266398684,0.04106,69.79718619,
0.04108,1.192070163,0.04108,70.16261648,
0.0411,-1.000511602,0.0411,69.79718619,
0.04112,-1.000511602,0.04112,69.43175589,
0.04114,-1.365941897,0.04114,70.16261648,
0.04116,0.4612095743,0.04116,70.89347707,
0.04118,-1.731372191,0.04118,69.79718619,
0.0412,-1.731372191,0.0412,70.52804678,
0.04122,-2.827663073,0.04122,69.79718619,
0.04124,-2.462232779,0.04124,69.43175589,
0.04126,-2.096802485,0.04126,70.52804678,
0.04128,-2.096802485,0.04128,70.52804678,
0.0413,-0.6350813082,0.0413,70.16261648,
0.04132,-0.6350813082,0.04132,69.79718619,
0.04134,0.0957792801,0.04134,70.52804678,
0.04136,0.4612095743,0.04136,69.43175589,
0.04138,-1.000511602,0.04138,70.52804678,
0.0414,-2.096802485,0.0414,70.16261648,
0.04142,-0.2696510141,0.04142,69.79718619,
0.04144,-0.6350813082,0.04144,70.16261648,
0.04146,-1.000511602,0.04146,70.16261648,
0.04148,-0.6350813082,0.04148,69.43175589,
0.0415,-1.000511602,0.0415,70.89347707,
0.04152,-0.2696510141,0.04152,70.16261648,
0.04154,0.4612095743,0.04154,70.16261648,
0.04156,0.4612095743,0.04156,70.52804678,
0.04158,0.4612095743,0.04158,70.16261648,
0.0416,0.8266398684,0.0416,69.79718619,
0.04162,0.0957792801,0.04162,70.52804678,
0.04164,-1.365941897,0.04164,70.52804678,
0.04166,1.557500457,0.04166,69.79718619,
0.04168,0.4612095743,0.04168,70.52804678,
0.0417,0.4612095743,0.0417,70.16261648,
0.04172,0.0957792801,0.04172,70.52804678,
0.04174,-0.2696510141,0.04174,70.52804678,
0.04176,0.8266398684,0.04176,70.16261648,
0.04178,1.557500457,0.04178,70.16261648,
0.0418,1.557500457,0.0418,70.52804678,
0.04182,2.288361045,0.04182,70.16261648,
0.04184,2.288361045,0.04184,69.79718619,
0.04186,1.192070163,0.04186,70.16261648,
0.04188,-0.2696510141,0.04188,70.52804678,
0.0419,1.192070163,0.0419,69.79718619,
0.04192,-0.6350813082,0.04192,70.52804678,
0.04194,-0.6350813082,0.04194,70.16261648,
0.04196,-1.365941897,0.04196,70.16261648,
0.04198,-0.6350813082,0.04198,70.52804678,
0.042,-1.731372191,0.042,70.52804678,
0.04202,-0.2696510141,0.04202,69.79718619,
0.04204,1.557500457,0.04204,70.89347707,
0.04206,-0.2696510141,0.04206,70.52804678,
0.04208,-0.6350813082,0.04208,70.16261648,
0.0421,0.0957792801,0.0421,69.79718619,
0.04212,-2.827663073,0.04212,69.43175589,
0.04214,-1.731372191,0.04214,70.52804678,
0.04216,-2.096802485,0.04216,70.52804678,
0.04218,-2.827663073,0.04218,68.7008953,
0.0422,-1.731372191,0.0422,70.52804678,
0.04222,0.0957792801,0.04222,70.52804678,
0.04224,-1.000511602,0.04224,70.16261648,
0.04226,-0.2696510141,0.04226,69.79718619,
0.04228,0.0957792801,0.04228,70.52804678,
0.0423,-1.365941897,0.0423,69.79718619,
0.04232,0.4612095743,0.04232,69.79718619,
0.04234,-2.827663073,0.04234,70.16261648,
0.04236,-1.365941897,0.04236,70.16261648,
0.04238,-1.731372191,0.04238,70.16261648,
0.0424,-0.6350813082,0.0424,70.52804678,
0.04242,-1.365941897,0.04242,70.16261648,
0.04244,-1.000511602,0.04244,70.16261648,
0.04246,0.0957792801,0.04246,70.16261648,
0.04248,0.0957792801,0.04248,70.52804678,
0.0425,1.192070163,0.0425,69.79718619,
0.04252,2.288361045,0.04252,70.16261648,
0.04254,0.8266398684,0.04254,70.16261648,
0.04256,0.4612095743,0.04256,70.16261648,
0.04258,-0.2696510141,0.04258,70.16261648,
0.0426,-0.2696510141,0.0426,70.16261648,
0.04262,1.192070163,0.04262,70.16261648,
0.04264,0.4612095743,0.04264,70.52804678,
0.04266,-0.6350813082,0.04266,69.79718619,
0.04268,0.8266398684,0.04268,69.79718619,
0.0427,-0.2696510141,0.0427,70.16261648,
0.04272,0.8266398684,0.04272,70.52804678,
0.04274,0.8266398684,0.04274,70.16261648,
0.04276,0.0957792801,0.04276,70.52804678,
0.04278,1.192070163,0.04278,70.52804678,
0.0428,1.192070163,0.0428,70.16261648,
0.04282,1.922930751,0.04282,70.52804678,
0.04284,0.8266398684,0.04284,70.16261648,
0.04286,0.8266398684,0.04286,70.16261648,
0.04288,0.8266398684,0.04288,70.89347707,
0.0429,1.192070163,0.0429,69.79718619,
0.04292,-1.000511602,0.04292,69.79718619,
0.04294,-1.000511602,0.04294,69.43175589,
0.04296,-0.2696510141,0.04296,70.16261648,
0.04298,-0.2696510141,0.04298,70.16261648,
0.043,-0.2696510141,0.043,69.43175589,
0.04302,0.8266398684,0.04302,70.52804678,
0.04304,1.557500457,0.04304,70.16261648,
0.04306,0.4612095743,0.04306,69.43175589,
0.04308,-0.6350813082,0.04308,69.79718619,
0.0431,-1.000511602,0.0431,69.79718619,
0.04312,0.4612095743,0.04312,70.89347707,
0.04314,-1.365941897,0.04314,70.52804678,
0.04316,1.192070163,0.04316,70.52804678,
0.04318,-3.558523662,0.04318,69.79718619,
0.0432,-1.731372191,0.0432,68.7008953,
0.04322,-3.193093367,0.04322,70.16261648,
0.04324,-1.000511602,0.04324,69.0663256,
0.04326,-0.2696510141,0.04326,70.16261648,
0.04328,-0.2696510141,0.04328,70.16261648,
0.0433,-0.2696510141,0.0433,69.79718619,
0.04332,0.8266398684,0.04332,69.79718619,
0.04334,-1.000511602,0.04334,70.16261648,
0.04336,-1.365941897,0.04336,69.79718619,
0.04338,-0.6350813082,0.04338,70.16261648,
0.0434,-1.731372191,0.0434,70.16261648,
0.04342,-0.2696510141,0.04342,69.43175589,
0.04344,-1.731372191,0.04344,70.16261648,
0.04346,0.0957792801,0.04346,70.16261648,
0.04348,0.4612095743,0.04348,69.43175589,
0.0435,2.288361045,0.0435,70.16261648,
0.04352,1.922930751,0.04352,69.79718619,
0.04354,1.922930751,0.04354,69.43175589,
0.04356,0.8266398684,0.04356,70.16261648,
0.04358,0.4612095743,0.04358,70.16261648,
0.0436,0.0957792801,0.0436,69.43175589,
0.04362,2.653791339,0.04362,69.79718619,
0.04364,0.8266398684,0.04364,70.16261648,
0.04366,0.4612095743,0.04366,69.79718619,
0.04368,0.4612095743,0.04368,69.79718619,
0.0437,0.4612095743,0.0437,69.79718619,
0.04372,0.0957792801,0.04372,69.79718619,
0.04374,1.192070163,0.04374,69.79718619,
0.04376,0.8266398684,0.04376,69.79718619,
0.04378,1.557500457,0.04378,69.79718619,
0.0438,1.922930751,0.0438,70.16261648,
0.04382,0.8266398684,0.04382,70.16261648,
0.04384,-0.2696510141,0.04384,69.79718619,
0.04386,0.4612095743,0.04386,70.16261648,
0.04388,-0.2696510141,0.04388,69.79718619,
0.0439,-1.000511602,0.0439,69.43175589,
0.04392,-0.2696510141,0.04392,70.16261648,
0.04394,0.4612095743,0.04394,70.16261648,
0.04396,-1.000511602,0.04396,69.79718619,
0.04398,1.192070163,0.04398,70.16261648,
0.044,0.4612095743,0.044,70.16261648,
0.04402,1.192070163,0.04402,69.0663256,
0.04404,-0.6350813082,0.04404,69.43175589,
0.04406,-1.365941897,0.04406,70.16261648,
0.04408,0.0957792801,0.04408,70.16261648,
0.0441,-1.000511602,0.0441,70.52804678,
0.04412,-1.731372191,0.04412,70.89347707,
0.04414,-2.827663073,0.04414,69.43175589,
0.04416,-2.827663073,0.04416,70.16261648,
0.04418,-0.2696510141,0.04418,69.0663256,
0.0442,-1.731372191,0.0442,70.16261648,
0.04422,-1.731372191,0.04422,70.52804678,
0.04424,0.0957792801,0.04424,70.16261648,
0.04426,0.4612095743,0.04426,69.79718619,
0.04428,0.0957792801,0.04428,70.16261648,
0.0443,0.0957792801,0.0443,70.16261648,
0.04432,-0.6350813082,0.04432,70.16261648,
0.04434,-1.365941897,0.04434,70.89347707,
0.04436,-1.365941897,0.04436,70.16261648,
0.04438,-1.000511602,0.04438,70.52804678,
0.0444,-0.2696510141,0.0444,70.52804678,
0.04442,-0.6350813082,0.04442,70.16261648,
0.04444,-0.2696510141,0.04444,69.79718619,
0.04446,0.4612095743,0.04446,70.16261648,
0.04448,1.192070163,0.04448,70.52804678,
0.0445,1.192070163,0.0445,70.52804678,
0.04452,0.0957792801,0.04452,70.16261648,
0.04454,0.4612095743,0.04454,69.79718619,
0.04456,0.4612095743,0.04456,70.52804678,
0.04458,-1.000511602,0.04458,70.16261648,
0.0446,-0.2696510141,0.0446,70.16261648,
0.04462,1.192070163,0.04462,70.52804678,
0.04464,0.4612095743,0.04464,70.16261648,
0.04466,1.557500457,0.04466,69.79718619,
0.04468,0.8266398684,0.04468,70.16261648,
0.0447,1.192070163,0.0447,70.16261648,
0.04472,0.0957792801,0.04472,69.79718619,
0.04474,1.192070163,0.04474,70.52804678,
0.04476,1.192070163,0.04476,70.16261648,
0.04478,1.922930751,0.04478,69.79718619,
0.0448,0.8266398684,0.0448,69.79718619,
0.04482,1.557500457,0.04482,69.79718619,
0.04484,0.4612095743,0.04484,70.52804678,
0.04486,1.922930751,0.04486,70.16261648,
0.04488,-0.2696510141,0.04488,69.79718619,
0.0449,0.4612095743,0.0449,70.89347707,
0.04492,-0.2696510141,0.04492,70.16261648,
0.04494,-0.6350813082,0.04494,70.16261648,
0.04496,0.0957792801,0.04496,70.52804678,
0.04498,-0.6350813082,0.04498,70.16261648,
0.045,-0.6350813082,0.045,69.43175589,
0.04502,-0.2696510141,0.04502,71.25890736,
0.04504,-0.2696510141,0.04504,70.16261648,
0.04506,-1.731372191,0.04506,70.52804678,
0.04508,-1.000511602,0.04508,70.52804678,
0.0451,-1.731372191,0.0451,69.79718619,
0.04512,-1.731372191,0.04512,70.16261648,
0.04514,0.4612095743,0.04514,71.25890736,
0.04516,-1.000511602,0.04516,69.43175589,
0.04518,-1.365941897,0.04518,69.79718619,
0.0452,-1.000511602,0.0452,70.52804678,
0.04522,-0.6350813082,0.04522,70.16261648,
0.04524,-2.096802485,0.04524,69.79718619,
0.04526,-0.2696510141,0.04526,70.52804678,
0.04528,-1.000511602,0.04528,69.79718619,
0.0453,-1.000511602,0.0453,69.79718619,
0.04532,-1.000511602,0.04532,70.52804678,
0.04534,-1.731372191,0.04534,69.79718619,
0.04536,-1.731372191,0.04536,69.79718619,
0.04538,-0.6350813082,0.04538,70.52804678,
0.0454,-0.6350813082,0.0454,69.79718619,
0.04542,0.4612095743,0.04542,69.79718619,
0.04544,0.4612095743,0.04544,70.89347707,
0.04546,-1.000511602,0.04546,70.16261648,
0.04548,0.8266398684,0.04548,69.79718619,
0.0455,0.4612095743,0.0455,70.52804678,
0.04552,0.0957792801,0.04552,69.79718619,
0.04554,0.8266398684,0.04554,69.43175589,
0.04556,0.8266398684,0.04556,70.52804678,
0.04558,0.0957792801,0.04558,69.79718619,
0.0456,0.4612095743,0.0456,69.79718619,
0.04562,0.0957792801,0.04562,70.52804678,
0.04564,-1.000511602,0.04564,70.16261648,
0.04566,0.8266398684,0.04566,69.79718619,
0.04568,1.557500457,0.04568,70.52804678,
0.0457,1.192070163,0.0457,69.79718619,
0.04572,1.557500457,0.04572,69.79718619,
0.04574,1.557500457,0.04574,70.52804678,
0.04576,0.8266398684,0.04576,70.16261648,
0.04578,1.192070163,0.04578,69.43175589,
0.0458,1.557500457,0.0458,70.16261648,
0.04582,0.0957792801,0.04582,70.16261648,
0.04584,-1.365941897,0.04584,69.79718619,
0.04586,0.0957792801,0.04586,70.52804678,
0.04588,-2.096802485,0.04588,70.16261648,
0.0459,-0.2696510141,0.0459,70.16261648,
0.04592,-0.2696510141,0.04592,70.16261648,
0.04594,-0.6350813082,0.04594,70.16261648,
0.04596,0.4612095743,0.04596,70.16261648,
0.04598,2.288361045,0.04598,70.16261648,
0.046,-1.731372191,0.046,70.16261648,
0.04602,-0.6350813082,0.04602,70.16261648,
0.04604,0.8266398684,0.04604,70.16261648,
0.04606,0.0957792801,0.04606,70.52804678,
0.04608,0.0957792801,0.04608,69.79718619,
0.0461,-3.558523662,0.0461,70.52804678,
0.04612,-3.558523662,0.04612,70.52804678,
0.04614,-2.462232779,0.04614,69.79718619,
0.04616,-2.827663073,0.04616,69.79718619,
0.04618,-2.096802485,0.04618,69.79718619,
0.0462,-0.2696510141,0.0462,70.16261648,
0.04622,-0.2696510141,0.04622,70.89347707,
0.04624,-2.096802485,0.04624,69.43175589,
0.04626,-0.6350813082,0.04626,70.16261648,
0.04628,-0.2696510141,0.04628,70.52804678,
0.0463,-0.2696510141,0.0463,70.16261648,
0.04632,-1.731372191,0.04632,69.79718619,
0.04634,0.0957792801,0.04634,70.52804678,
0.04636,-1.000511602,0.04636,70.16261648,
0.04638,0.0957792801,0.04638,69.79718619,
0.0464,0.4612095743,0.0464,70.52804678,
0.04642,-1.000511602,0.04642,70.16261648,
0.04644,0.4612095743,0.04644,70.16261648,
0.04646,-0.6350813082,0.04646,70.16261648,
0.04648,0.8266398684,0.04648,70.16261648,
0.0465,0.0957792801,0.0465,69.79718619,
0.04652,1.192070163,0.04652,70.16261648,
0.04654,-0.2696510141,0.04654,69.79718619,
0.04656,0.8266398684,0.04656,69.79718619,
0.04658,-0.2696510141,0.04658,70.16261648,
0.0466,-0.6350813082,0.0466,69.79718619,
0.04662,0.0957792801,0.04662,69.79718619,
0.04664,-0.6350813082,0.04664,70.52804678,
0.04666,0.0957792801,0.04666,70.52804678,
0.04668,0.4612095743,0.04668,70.16261648,
0.0467,1.192070163,0.0467,70.52804678,
0.04672,1.192070163,0.04672,70.16261648,
0.04674,1.557500457,0.04674,70.52804678,
0.04676,1.557500457,0.04676,70.16261648,
0.04678,0.0957792801,0.04678,70.52804678,
0.0468,0.0957792801,0.0468,70.16261648,
0.04682,0.4612095743,0.04682,70.16261648,
0.04684,-0.2696510141,0.04684,69.79718619,
0.04686,-0.2696510141,0.04686,69.79718619,
0.04688,0.4612095743,0.04688,70.52804678,
0.0469,-0.2696510141,0.0469,70.16261648,
0.04692,0.4612095743,0.04692,70.16261648,
0.04694,0.0957792801,0.04694,70.52804678,
0.04696,-1.000511602,0.04696,70.16261648,
0.04698,-0.2696510141,0.04698,69.79718619,
0.047,-0.2696510141,0.047,70.89347707,
0.04702,-1.731372191,0.04702,69.79718619,
0.04704,-1.731372191,0.04704,69.0663256,
0.04706,-2.462232779,0.04706,70.89347707,
0.04708,-3.923953956,0.04708,69.0663256,
0.0471,-2.827663073,0.0471,70.16261648,
0.04712,-2.827663073,0.04712,70.16261648,
0.04714,-2.096802485,0.04714,69.79718619,
0.04716,-0.6350813082,0.04716,70.52804678,
0.04718,0.0957792801,0.04718,70.16261648,
0.0472,0.4612095743,0.0472,70.16261648,
0.04722,-1.365941897,0.04722,69.79718619,
0.04724,0.4612095743,0.04724,70.16261648,
0.04726,-1.000511602,0.04726,70.16261648,
0.04728,-0.2696510141,0.04728,69.79718619,
0.0473,-1.365941897,0.0473,70.52804678,
0.04732,-2.462232779,0.04732,69.79718619,
0.04734,0.0957792801,0.04734,69.79718619,
0.04736,-0.2696510141,0.04736,70.16261648,
0.04738,-0.2696510141,0.04738,70.16261648,
0.0474,0.4612095743,0.0474,70.16261648,
0.04742,0.0957792801,0.04742,70.16261648,
0.04744,-0.2696510141,0.04744,69.79718619,
0.04746,0.8266398684,0.04746,70.16261648,
0.04748,0.4612095743,0.04748,70.16261648,
0.0475,0.0957792801,0.0475,70.16261648,
0.04752,1.557500457,0.04752,70.16261648,
0.04754,1.192070163,0.04754,70.16261648,
0.04756,1.192070163,0.04756,70.16261648,
0.04758,1.192070163,0.04758,70.16261648,
0.0476,0.0957792801,0.0476,70.16261648,
0.04762,-0.2696510141,0.04762,69.79718619,
0.04764,1.192070163,0.04764,69.79718619,
0.04766,0.8266398684,0.04766,70.16261648,
0.04768,0.4612095743,0.04768,69.79718619,
0.0477,1.557500457,0.0477,69.43175589,
0.04772,2.288361045,0.04772,70.52804678,
0.04774,1.192070163,0.04774,70.16261648,
0.04776,-0.2696510141,0.04776,70.16261648,
0.04778,0.0957792801,0.04778,70.89347707,
0.0478,-0.2696510141,0.0478,69.79718619,
0.04782,-0.2696510141,0.04782,69.79718619,
0.04784,-0.6350813082,0.04784,70.52804678,
0.04786,-1.000511602,0.04786,70.52804678,
0.04788,0.0957792801,0.04788,70.16261648,
0.0479,0.8266398684,0.0479,70.52804678,
0.04792,-1.000511602,0.04792,70.52804678,
0.04794,-0.2696510141,0.04794,70.16261648,
0.04796,1.192070163,0.04796,70.52804678,
0.04798,0.8266398684,0.04798,69.79718619,
0.048,-1.731372191,0.048,69.43175589,
0.04802,-2.462232779,0.04802,71.62433766,
0.04804,-3.558523662,0.04804,70.52804678,
0.04806,-2.827663073,0.04806,69.79718619,
0.04808,-0.2696510141,0.04808,69.79718619,
0.0481,-2.462232779,0.0481,69.0663256,
0.04812,1.192070163,0.04812,70.16261648,
0.04814,-1.000511602,0.04814,70.52804678,
0.04816,-0.6350813082,0.04816,70.16261648,
0.04818,0.0957792801,0.04818,70.52804678,
0.0482,-1.731372191,0.0482,70.16261648,
0.04822,0.0957792801,0.04822,70.16261648,
0.04824,-1.000511602,0.04824,69.79718619,
0.04826,-1.000511602,0.04826,70.89347707,
0.04828,-0.6350813082,0.04828,70.16261648,
0.0483,0.8266398684,0.0483,70.16261648,
0.04832,-1.365941897,0.04832,70.52804678,
0.04834,-1.000511602,0.04834,70.16261648,
0.04836,0.0957792801,0.04836,70.16261648,
0.04838,1.192070163,0.04838,70.16261648,
0.0484,0.0957792801,0.0484,70.16261648,
0.04842,0.4612095743,0.04842,69.79718619,
0.04844,0.8266398684,0.04844,70.16261648,
0.04846,0.0957792801,0.04846,70.16261648,
0.04848,-0.6350813082,0.04848,69.79718619,
0.0485,0.0957792801,0.0485,70.52804678,
0.04852,0.8266398684,0.04852,70.16261648,
0.04854,0.0957792801,0.04854,70.16261648,
0.04856,-0.2696510141,0.04856,70.16261648,
0.04858,0.0957792801,0.04858,70.16261648,
0.0486,0.0957792801,0.0486,69.79718619,
0.04862,0.4612095743,0.04862,69.43175589,
0.04864,1.192070163,0.04864,69.79718619,
0.04866,1.557500457,0.04866,70.16261648,
0.04868,1.192070163,0.04868,69.79718619,
0.0487,0.8266398684,0.0487,69.79718619,
0.04872,0.8266398684,0.04872,70.16261648,
0.04874,1.192070163,0.04874,69.0663256,
0.04876,0.4612095743,0.04876,69.79718619,
0.04878,-0.2696510141,0.04878,69.79718619,
0.0488,-1.365941897,0.0488,69.79718619,
0.04882,0.0957792801,0.04882,70.16261648,
0.04884,0.0957792801,0.04884,70.16261648,
0.04886,-0.6350813082,0.04886,69.43175589,
0.04888,-0.2696510141,0.04888,70.16261648,
0.0489,0.8266398684,0.0489,69.79718619,
0.04892,-1.365941897,0.04892,69.79718619,
0.04894,0.0957792801,0.04894,69.43175589,
0.04896,0.8266398684,0.04896,70.52804678,
0.04898,-1.000511602,0.04898,69.43175589,
0.049,1.192070163,0.049,70.16261648,
0.04902,-2.827663073,0.04902,69.79718619,
0.04904,-1.000511602,0.04904,70.16261648,
0.04906,-2.096802485,0.04906,70.16261648,
0.04908,-1.000511602,0.04908,69.0663256,
0.0491,-0.2696510141,0.0491,69.79718619,
0.04912,0.0957792801,0.04912,70.52804678,
0.04914,0.0957792801,0.04914,70.52804678,
0.04916,-2.096802485,0.04916,69.79718619,
0.04918,-0.6350813082,0.04918,69.79718619,
0.0492,0.8266398684,0.0492,69.79718619,
0.04922,-1.731372191,0.04922,69.0663256,
0.04924,-1.000511602,0.04924,69.79718619,
0.04926,-1.731372191,0.04926,69.79718619,
0.04928,-1.365941897,0.04928,70.16261648,
0.0493,-0.6350813082,0.0493,70.16261648,
0.04932,-0.6350813082,0.04932,70.16261648,
0.04934,0.4612095743,0.04934,70.52804678,
0.04936,0.4612095743,0.04936,70.16261648,
0.04938,-0.2696510141,0.04938,70.16261648,
0.0494,0.8266398684,0.0494,70.16261648,
0.04942,1.922930751,0.04942,70.52804678,
0.04944,0.8266398684,0.04944,70.16261648,
0.04946,0.0957792801,0.04946,70.16261648,
0.04948,1.192070163,0.04948,69.79718619,
0.0495,0.0957792801,0.0495,70.16261648,
0.04952,0.4612095743,0.04952,70.16261648,
0.04954,1.192070163,0.04954,69.79718619,
0.04956,-0.2696510141,0.04956,70.16261648,
0.04958,0.8266398684,0.04958,70.16261648,
0.0496,0.8266398684,0.0496,70.52804678,
0.04962,1.192070163,0.04962,69.79718619,
0.04964,0.8266398684,0.04964,70.89347707,
0.04966,1.192070163,0.04966,70.16261648,
0.04968,1.922930751,0.04968,69.79718619,
0.0497,1.557500457,0.0497,70.52804678,
0.04972,1.192070163,0.04972,69.79718619,
0.04974,1.557500457,0.04974,69.43175589,
0.04976,-1.000511602,0.04976,70.52804678,
0.04978,-1.731372191,0.04978,70.16261648,
0.0498,-1.365941897,0.0498,69.79718619,
0.04982,-0.2696510141,0.04982,70.52804678,
0.04984,0.0957792801,0.04984,69.79718619,
0.04986,1.192070163,0.04986,69.79718619,
0.04988,0.8266398684,0.04988,70.16261648,
0.0499,0.8266398684,0.0499,70.16261648,
0.04992,0.4612095743,0.04992,70.16261648,
0.04994,-1.000511602,0.04994,70.52804678,
0.04996,-1.000511602,0.04996,68.7008953,
0.04998,-2.462232779,0.04998,69.43175589,
0.05,-0.6350813082,0.05,70.16261648,
0.05002,0.0957792801,0.05002,70.52804678,
0.05004,-2.096802485,0.05004,69.79718619,
0.05006,-1.000511602,0.05006,70.52804678,
0.05008,-2.096802485,0.05008,70.16261648,
0.0501,0.0957792801,0.0501,70.16261648,
0.05012,0.0957792801,0.05012,70.52804678,
0.05014,-0.6350813082,0.05014,70.16261648,
0.05016,-1.731372191,0.05016,70.16261648,
0.05018,-0.2696510141,0.05018,70.89347707,
0.0502,-1.365941897,0.0502,70.16261648,
0.05022,-1.365941897,0.05022,69.79718619,
0.05024,-1.365941897,0.05024,70.89347707,
0.05026,-1.731372191,0.05026,69.79718619,
0.05028,-1.000511602,0.05028,69.79718619,
0.0503,-0.6350813082,0.0503,70.16261648,
0.05032,-1.000511602,0.05032,70.16261648,
0.05034,0.8266398684,0.05034,69.43175589,
0.05036,-0.2696510141,0.05036,70.52804678,
0.05038,1.192070163,0.05038,69.79718619,
0.0504,0.4612095743,0.0504,69.79718619,
0.05042,1.192070163,0.05042,70.89347707,
0.05044,-0.2696510141,0.05044,70.16261648,
0.05046,0.8266398684,0.05046,69.43175589,
0.05048,0.4612095743,0.05048,70.52804678,
0.0505,1.192070163,0.0505,70.16261648,
0.05052,1.192070163,0.05052,69.79718619,
0.05054,0.4612095743,0.05054,69.79718619,
0.05056,-0.2696510141,0.05056,69.79718619,
0.05058,1.557500457,0.05058,70.16261648,
0.0506,-0.2696510141,0.0506,70.16261648,
0.05062,0.8266398684,0.05062,69.43175589,
0.05064,1.557500457,0.05064,70.16261648,
0.05066,1.557500457,0.05066,70.16261648,
0.05068,1.192070163,0.05068,69.79718619,
0.0507,0.8266398684,0.0507,70.52804678,
0.05072,-1.000511602,0.05072,69.79718619,
0.05074,0.0957792801,0.05074,69.79718619,
0.05076,-1.000511602,0.05076,70.16261648,
0.05078,-2.462232779,0.05078,70.16261648,
0.0508,-1.000511602,0.0508,69.79718619,
0.05082,-0.2696510141,0.05082,69.79718619,
0.05084,0.0957792801,0.05084,70.16261648,
0.05086,0.4612095743,0.05086,69.79718619,
0.05088,0.8266398684,0.05088,70.52804678,
0.0509,-1.000511602,0.0509,69.79718619,
0.05092,-1.365941897,0.05092,70.16261648,
0.05094,-1.365941897,0.05094,70.16261648,
0.05096,-2.096802485,0.05096,70.16261648,
0.05098,-4.28938425,0.05098,70.52804678,
0.051,-1.731372191,0.051,70.89347707,
0.05102,-3.923953956,0.05102,70.52804678,
0.05104,-2.827663073,0.05104,69.79718619,
0.05106,-1.000511602,0.05106,70.52804678,
0.05108,-0.2696510141,0.05108,69.43175589,
0.0511,-1.731372191,0.0511,70.16261648,
0.05112,-1.365941897,0.05112,70.16261648,
0.05114,-1.365941897,0.05114,69.79718619,
0.05116,-1.000511602,0.05116,69.79718619,
0.05118,-1.000511602,0.05118,70.52804678,
0.0512,-1.731372191,0.0512,70.16261648,
0.05122,-2.096802485,0.05122,69.79718619,
0.05124,-1.365941897,0.05124,70.52804678,
0.05126,-0.2696510141,0.05126,69.43175589,
0.05128,-1.000511602,0.05128,70.16261648,
0.0513,0.0957792801,0.0513,70.89347707,
0.05132,0.0957792801,0.05132,70.16261648,
0.05134,0.4612095743,0.05134,69.79718619,
0.05136,1.192070163,0.05136,70.16261648,
0.05138,-0.6350813082,0.05138,70.16261648,
0.0514,0.4612095743,0.0514,70.16261648,
0.05142,0.4612095743,0.05142,70.16261648,
0.05144,0.0957792801,0.05144,70.16261648,
0.05146,0.4612095743,0.05146,69.79718619,
0.05148,-0.2696510141,0.05148,70.52804678,
0.0515,-0.6350813082,0.0515,70.16261648,
0.05152,-0.2696510141,0.05152,69.79718619,
0.05154,0.8266398684,0.05154,70.52804678,
0.05156,0.4612095743,0.05156,69.79718619,
0.05158,1.557500457,0.05158,70.16261648,
0.0516,1.557500457,0.0516,70.16261648,
0.05162,1.557500457,0.05162,70.16261648,
0.05164,1.192070163,0.05164,70.16261648,
0.05166,0.8266398684,0.05166,70.52804678,
0.05168,-0.6350813082,0.05168,69.79718619,
0.0517,0.8266398684,0.0517,70.16261648,
0.05172,0.0957792801,0.05172,70.52804678,
0.05174,-0.2696510141,0.05174,70.16261648,
0.05176,-1.000511602,0.05176,69.79718619,
0.05178,0.0957792801,0.05178,70.52804678,
0.0518,0.0957792801,0.0518,69.79718619,
0.05182,-0.2696510141,0.05182,69.79718619,
0.05184,0.0957792801,0.05184,70.16261648,
0.05186,-0.6350813082,0.05186,69.79718619,
0.05188,-1.000511602,0.05188,70.16261648,
0.0519,1.922930751,0.0519,71.25890736,
0.05192,-3.193093367,0.05192,70.52804678,
0.05194,-0.6350813082,0.05194,69.43175589,
0.05196,-2.096802485,0.05196,69.79718619,
0.05198,-4.28938425,0.05198,70.52804678,
0.052,-0.6350813082,0.052,67.97003472,
0.05202,-2.462232779,0.05202,70.89347707,
0.05204,-1.365941897,0.05204,70.16261648,
0.05206,-1.365941897,0.05206,70.16261648,
0.05208,-1.000511602,0.05208,70.52804678,
0.0521,-1.365941897,0.0521,70.16261648,
0.05212,-1.731372191,0.05212,69.79718619,
0.05214,-0.6350813082,0.05214,70.16261648,
0.05216,-1.365941897,0.05216,70.16261648,
0.05218,-1.731372191,0.05218,70.16261648,
0.0522,-0.6350813082,0.0522,70.16261648,
0.05222,-1.365941897,0.05222,69.43175589,
0.05224,-1.731372191,0.05224,69.79718619,
0.05226,0.0957792801,0.05226,70.16261648,
0.05228,-0.2696510141,0.05228,69.79718619,
0.0523,1.192070163,0.0523,70.16261648,
0.05232,1.192070163,0.05232,70.52804678,
0.05234,-0.2696510141,0.05234,70.16261648,
0.05236,-0.6350813082,0.05236,69.79718619,
0.05238,0.8266398684,0.05238,70.16261648,
0.0524,-0.2696510141,0.0524,69.79718619,
0.05242,0.4612095743,0.05242,69.79718619,
0.05244,-0.6350813082,0.05244,70.52804678,
0.05246,-0.2696510141,0.05246,70.16261648,
0.05248,0.8266398684,0.05248,70.16261648,
0.0525,1.192070163,0.0525,70.16261648,
0.05252,0.0957792801,0.05252,69.79718619,
0.05254,0.8266398684,0.05254,70.16261648,
0.05256,0.4612095743,0.05256,70.52804678,
0.05258,0.4612095743,0.05258,69.79718619,
0.0526,1.557500457,0.0526,69.79718619,
0.05262,0.4612095743,0.05262,70.52804678,
0.05264,1.192070163,0.05264,70.16261648,
0.05266,0.4612095743,0.05266,70.16261648,
0.05268,-0.2696510141,0.05268,70.16261648,
0.0527,-0.6350813082,0.0527,69.79718619,
0.05272,-0.2696510141,0.05272,69.79718619,
0.05274,0.0957792801,0.05274,70.52804678,
0.05276,-0.6350813082,0.05276,70.16261648,
0.05278,-0.2696510141,0.05278,69.79718619,
0.0528,0.4612095743,0.0528,70.52804678,
0.05282,-1.000511602,0.05282,70.52804678,
0.05284,0.8266398684,0.05284,69.0663256,
0.05286,1.922930751,0.05286,70.52804678,
0.05288,-1.000511602,0.05288,68.33546501,
0.0529,0.8266398684,0.0529,70.16261648,
0.05292,-1.365941897,0.05292,70.52804678,
0.05294,-3.923953956,0.05294,69.79718619,
0.05296,-3.193093367,0.05296,69.0663256,
0.05298,-1.731372191,0.05298,70.52804678,
0.053,-3.193093367,0.053,69.79718619,
0.05302,1.557500457,0.05302,70.16261648,
0.05304,-1.000511602,0.05304,70.16261648,
0.05306,-1.731372191,0.05306,69.79718619,
0.05308,-0.2696510141,0.05308,70.16261648,
0.0531,0.8266398684,0.0531,70.16261648,
0.05312,-1.000511602,0.05312,70.52804678,
0.05314,-0.2696510141,0.05314,69.43175589,
0.05316,-1.000511602,0.05316,70.52804678,
0.05318,-0.6350813082,0.05318,70.16261648,
0.0532,-0.6350813082,0.0532,69.79718619,
0.05322,0.4612095743,0.05322,70.52804678,
0.05324,0.0957792801,0.05324,70.16261648,
0.05326,-0.2696510141,0.05326,70.16261648,
0.05328,1.192070163,0.05328,70.16261648,
0.0533,0.8266398684,0.0533,69.79718619,
0.05332,0.0957792801,0.05332,69.79718619,
0.05334,1.557500457,0.05334,70.16261648,
0.05336,-0.2696510141,0.05336,70.16261648,
0.05338,2.288361045,0.05338,70.16261648,
0.0534,0.0957792801,0.0534,70.52804678,
0.05342,-0.2696510141,0.05342,70.16261648,
0.05344,0.4612095743,0.05344,70.16261648,
0.05346,0.8266398684,0.05346,70.16261648,
0.05348,0.4612095743,0.05348,70.16261648,
0.0535,0.8266398684,0.0535,69.79718619,
0.05352,1.192070163,0.05352,70.16261648,
0.05354,0.8266398684,0.05354,70.16261648,
0.05356,1.192070163,0.05356,70.16261648,
0.05358,2.288361045,0.05358,70.52804678,
0.0536,1.192070163,0.0536,70.16261648,
0.05362,1.922930751,0.05362,69.79718619,
0.05364,0.8266398684,0.05364,70.16261648,
0.05366,-0.2696510141,0.05366,70.16261648,
0.05368,-1.000511602,0.05368,69.79718619,
0.0537,-0.2696510141,0.0537,70.16261648,
0.05372,0.0957792801,0.05372,70.16261648,
0.05374,0.0957792801,0.05374,70.16261648,
0.05376,0.0957792801,0.05376,70.52804678,
0.05378,-1.000511602,0.05378,70.52804678,
0.0538,1.557500457,0.0538,69.79718619,
0.05382,0.0957792801,0.05382,70.52804678,
0.05384,-1.731372191,0.05384,70.16261648,
0.05386,-0.2696510141,0.05386,70.89347707,
0.05388,-2.096802485,0.05388,70.52804678,
0.0539,-2.827663073,0.0539,69.79718619,
0.05392,0.8266398684,0.05392,70.16261648,
0.05394,-1.731372191,0.05394,70.16261648,
0.05396,-1.731372191,0.05396,69.79718619,
0.05398,-0.6350813082,0.05398,70.16261648,
0.054,-2.096802485,0.054,70.52804678,
0.05402,-1.731372191,0.05402,69.43175589,
0.05404,0.0957792801,0.05404,69.43175589,
0.05406,0.4612095743,0.05406,70.52804678,
0.05408,-0.2696510141,0.05408,70.52804678,
0.0541,-0.2696510141,0.0541,69.79718619,
0.05412,-0.6350813082,0.05412,70.52804678,
0.05414,-1.365941897,0.05414,70.16261648,
0.05416,-1.000511602,0.05416,70.16261648,
0.05418,-2.096802485,0.05418,70.52804678,
0.0542,-0.2696510141,0.0542,70.16261648,
0.05422,0.4612095743,0.05422,69.79718619,
0.05424,0.0957792801,0.05424,69.79718619,
0.05426,-0.2696510141,0.05426,70.16261648,
0.05428,0.4612095743,0.05428,69.79718619,
0.0543,0.4612095743,0.0543,70.52804678,
0.05432,0.4612095743,0.05432,69.79718619,
0.05434,1.192070163,0.05434,70.16261648,
0.05436,-0.6350813082,0.05436,69.43175589,
0.05438,0.0957792801,0.05438,70.16261648,
0.0544,0.4612095743,0.0544,69.43175589,
0.05442,0.4612095743,0.05442,69.43175589,
0.05444,0.4612095743,0.05444,69.43175589,
0.05446,0.8266398684,0.05446,69.79718619,
0.05448,0.0957792801,0.05448,69.79718619,
0.0545,-0.2696510141,0.0545,70.16261648,
0.05452,1.192070163,0.05452,69.79718619,
0.05454,3.019221633,0.05454,70.52804678,
0.05456,1.192070163,0.05456,70.16261648,
0.05458,1.192070163,0.05458,69.79718619,
0.0546,0.8266398684,0.0546,69.79718619,
0.05462,0.4612095743,0.05462,70.16261648,
0.05464,0.4612095743,0.05464,70.52804678,
0.05466,0.8266398684,0.05466,69.79718619,
0.05468,0.0957792801,0.05468,70.16261648,
0.0547,-1.000511602,0.0547,69.79718619,
0.05472,-0.2696510141,0.05472,70.16261648,
0.05474,0.0957792801,0.05474,70.89347707,
0.05476,-0.6350813082,0.05476,69.79718619,
0.05478,0.0957792801,0.05478,70.16261648,
0.0548,0.0957792801,0.0548,70.16261648,
0.05482,0.4612095743,0.05482,69.0663256,
0.05484,0.8266398684,0.05484,70.52804678,
0.05486,-1.000511602,0.05486,69.0663256,
0.05488,-2.827663073,0.05488,70.52804678,
0.0549,-2.462232779,0.0549,70.52804678,
0.05492,-1.365941897,0.05492,69.79718619,
0.05494,-2.827663073,0.05494,69.0663256,
0.05496,-1.731372191,0.05496,69.79718619,
0.05498,0.0957792801,0.05498,70.16261648,
0.055,-1.000511602,0.055,70.16261648,
0.05502,0.4612095743,0.05502,69.43175589,
0.05504,-0.2696510141,0.05504,70.52804678,
0.05506,-2.462232779,0.05506,70.16261648,
0.05508,-1.731372191,0.05508,69.79718619,
0.0551,-1.731372191,0.0551,70.89347707,
0.05512,-2.462232779,0.05512,69.79718619,
0.05514,-1.365941897,0.05514,69.79718619,
0.05516,-0.6350813082,0.05516,70.89347707,
0.05518,0.0957792801,0.05518,70.16261648,
0.0552,0.8266398684,0.0552,70.16261648,
0.05522,0.4612095743,0.05522,70.52804678,
0.05524,0.0957792801,0.05524,70.16261648,
0.05526,0.0957792801,0.05526,69.79718619,
0.05528,0.0957792801,0.05528,70.16261648,
0.0553,0.4612095743,0.0553,69.79718619,
0.05532,0.4612095743,0.05532,70.16261648,
0.05534,0.0957792801,0.05534,70.16261648,
0.05536,0.0957792801,0.05536,69.43175589,
0.05538,0.0957792801,0.05538,70.89347707,
0.0554,-0.2696510141,0.0554,70.16261648,
0.05542,0.8266398684,0.05542,69.79718619,
0.05544,0.4612095743,0.05544,70.16261648,
0.05546,0.0957792801,0.05546,69.79718619,
0.05548,0.4612095743,0.05548,69.43175589,
0.0555,1.557500457,0.0555,70.16261648,
0.05552,0.0957792801,0.05552,70.16261648,
0.05554,1.192070163,0.05554,70.16261648,
0.05556,1.922930751,0.05556,70.16261648,
0.05558,-0.2696510141,0.05558,70.16261648,
0.0556,0.0957792801,0.0556,70.16261648,
0.05562,0.4612095743,0.05562,70.89347707,
0.05564,-0.6350813082,0.05564,70.16261648,
0.05566,-1.000511602,0.05566,69.79718619,
0.05568,-0.6350813082,0.05568,70.52804678,
0.0557,-0.6350813082,0.0557,70.16261648,
0.05572,0.0957792801,0.05572,70.16261648,
0.05574,1.192070163,0.05574,70.89347707,
0.05576,0.4612095743,0.05576,70.16261648,
0.05578,-0.6350813082,0.05578,69.79718619,
0.0558,-1.365941897,0.0558,70.52804678,
0.05582,-1.000511602,0.05582,70.16261648,
0.05584,-1.365941897,0.05584,70.52804678,
0.05586,-1.731372191,0.05586,69.79718619,
0.05588,0.4612095743,0.05588,70.52804678,
0.0559,-2.827663073,0.0559,69.0663256,
0.05592,0.4612095743,0.05592,70.16261648,
0.05594,-1.731372191,0.05594,69.79718619,
0.05596,-2.462232779,0.05596,69.79718619,
0.05598,-0.2696510141,0.05598,70.52804678,
0.056,-1.000511602,0.056,70.16261648,
0.05602,-0.6350813082,0.05602,69.79718619,
0.05604,-0.2696510141,0.05604,70.52804678,
0.05606,-1.731372191,0.05606,70.16261648,
0.05608,-1.000511602,0.05608,69.79718619,
0.0561,-1.365941897,0.0561,70.16261648,
0.05612,-1.731372191,0.05612,70.16261648,
0.05614,-1.731372191,0.05614,70.16261648,
0.05616,-0.2696510141,0.05616,70.16261648,
0.05618,-0.6350813082,0.05618,70.52804678,
0.0562,-0.2696510141,0.0562,69.79718619,
0.05622,0.8266398684,0.05622,70.52804678,
0.05624,0.4612095743,0.05624,70.16261648,
0.05626,0.4612095743,0.05626,70.16261648,
0.05628,0.8266398684,0.05628,70.16261648,
0.0563,0.4612095743,0.0563,69.79718619,
0.05632,0.4612095743,0.05632,69.79718619,
0.05634,0.4612095743,0.05634,70.16261648,
0.05636,0.0957792801,0.05636,70.16261648,
0.05638,0.4612095743,0.05638,70.16261648,
0.0564,-0.2696510141,0.0564,70.52804678,
0.05642,-0.6350813082,0.05642,70.16261648,
0.05644,-0.2696510141,0.05644,69.79718619,
0.05646,1.192070163,0.05646,70.52804678,
0.05648,1.922930751,0.05648,70.52804678,
0.0565,1.557500457,0.0565,70.16261648,
0.05652,2.653791339,0.05652,70.16261648,
0.05654,1.192070163,0.05654,69.79718619,
0.05656,0.8266398684,0.05656,70.16261648,
0.05658,0.4612095743,0.05658,70.52804678,
0.0566,-1.365941897,0.0566,70.16261648,
0.05662,0.0957792801,0.05662,69.79718619,
0.05664,-0.2696510141,0.05664,70.52804678,
0.05666,-1.000511602,0.05666,70.16261648,
0.05668,-0.6350813082,0.05668,69.79718619,
0.0567,0.4612095743,0.0567,70.16261648,
0.05672,-1.000511602,0.05672,70.16261648,
0.05674,0.4612095743,0.05674,70.16261648,
0.05676,-1.000511602,0.05676,70.52804678,
0.05678,-2.096802485,0.05678,70.52804678,
0.0568,0.4612095743,0.0568,69.79718619,
0.05682,0.0957792801,0.05682,70.52804678,
0.05684,-1.731372191,0.05684,70.89347707,
0.05686,-1.365941897,0.05686,69.43175589,
0.05688,-1.365941897,0.05688,70.89347707,
0.0569,-1.365941897,0.0569,70.16261648,
0.05692,-0.2696510141,0.05692,69.0663256,
0.05694,-1.000511602,0.05694,70.16261648,
0.05696,-0.2696510141,0.05696,70.16261648,
0.05698,0.4612095743,0.05698,69.79718619,
0.057,-0.6350813082,0.057,70.16261648,
0.05702,-1.731372191,0.05702,70.16261648,
0.05704,-0.2696510141,0.05704,69.79718619,
0.05706,-1.000511602,0.05706,70.16261648,
0.05708,-2.827663073,0.05708,70.16261648,
0.0571,-1.000511602,0.0571,70.16261648,
0.05712,-1.731372191,0.05712,70.16261648,
0.05714,-1.365941897,0.05714,70.16261648,
0.05716,0.0957792801,0.05716,69.79718619,
0.05718,1.192070163,0.05718,69.79718619,
0.0572,0.4612095743,0.0572,69.43175589,
0.05722,1.192070163,0.05722,69.79718619,
0.05724,0.8266398684,0.05724,70.16261648,
0.05726,0.8266398684,0.05726,69.43175589,
0.05728,0.4612095743,0.05728,69.79718619,
0.0573,0.0957792801,0.0573,70.52804678,
0.05732,-0.6350813082,0.05732,69.79718619,
0.05734,0.0957792801,0.05734,69.79718619,
0.05736,0.4612095743,0.05736,69.43175589,
0.05738,-0.6350813082,0.05738,70.16261648,
0.0574,0.8266398684,0.0574,69.79718619,
0.05742,-0.2696510141,0.05742,70.89347707,
0.05744,0.4612095743,0.05744,69.79718619,
0.05746,2.288361045,0.05746,70.16261648,
0.05748,1.557500457,0.05748,70.16261648,
0.0575,2.653791339,0.0575,69.43175589,
0.05752,-1.000511602,0.05752,70.16261648,
0.05754,0.8266398684,0.05754,70.16261648,
0.05756,-0.6350813082,0.05756,69.43175589,
0.05758,0.8266398684,0.05758,70.16261648,
0.0576,0.4612095743,0.0576,69.79718619,
0.05762,-1.731372191,0.05762,69.43175589,
0.05764,0.0957792801,0.05764,69.43175589,
0.05766,-0.6350813082,0.05766,69.79718619,
0.05768,-0.6350813082,0.05768,69.43175589,
0.0577,2.288361045,0.0577,70.16261648,
0.05772,0.4612095743,0.05772,69.79718619,
0.05774,0.8266398684,0.05774,69.79718619,
0.05776,-2.096802485,0.05776,69.79718619,
0.05778,0.8266398684,0.05778,70.52804678,
