"A0_accX_x","A0_accX_y","A1_rmsX_x","A1_rmsX_y"
0,-1.650838663,0,71.98976795,
2e-05,-0.1891174858,2e-05,72.72062854,
4e-05,-0.1891174858,4e-05,72.35519825,
6e-05,-0.9199780742,6e-05,72.35519825,
8e-05,-0.1891174858,8e-05,71.98976795,
0.0001,0.5417431025,0.0001,72.35519825,
0.00012,0.1763128083,0.00012,71.98976795,
0.00014,2.003464279,0.00014,71.98976795,
0.00016,1.638033985,0.00016,71.98976795,
0.00018,0.5417431025,0.00018,71.98976795,
0.0002,1.272603691,0.0002,71.98976795,
0.00022,1.638033985,0.00022,72.35519825,
0.00024,0.5417431025,0.00024,72.72062854,
0.00026,0.9071733967,0.00026,71.98976795,
0.00028,1.638033985,0.00028,72.72062854,
0.0003,-0.1891174858,0.0003,71.98976795,
0.00032,0.9071733967,0.00032,73.08605883,
0.00034,1.272603691,0.00034,71.98976795,
0.00036,0.5417431025,0.00036,71.98976795,
0.00038,2.003464279,0.00038,72.35519825,
0.0004,2.734324868,0.0004,72.72062854,
0.00042,2.003464279,0.00042,71.98976795,
0.00044,2.003464279,0.00044,72.72062854,
0.00046,0.9071733967,0.00046,72.72062854,
0.00048,0.9071733967,0.00048,71.98976795,
0.0005,0.5417431025,0.0005,72.35519825,
0.00052,0.1763128083,0.00052,72.35519825,
0.00054,0.5417431025,0.00054,71.98976795,
0.00056,0.1763128083,0.00056,72.35519825,
0.00058,-0.1891174858,0.00058,72.72062854,
0.0006,0.9071733967,0.0006,71.62433766,
0.00062,0.1763128083,0.00062,72.35519825,
0.00064,0.9071733967,0.00064,72.35519825,
0.00066,1.272603691,0.00066,71.98976795,
0.00068,0.9071733967,0.00068,72.72062854,
0.0007,-0.55454778,0.0007,72.35519825,
0.00072,-0.9199780742,0.00072,70.89347707,
0.00074,-0.9199780742,0.00074,72.35519825,
0.00076,-3.112559839,0.00076,72.35519825,
0.00078,-1.650838663,0.00078,72.35519825,
0.0008,-2.381699251,0.0008,71.25890736,
0.00082,-0.9199780742,0.00082,72.35519825,
0.00084,-0.9199780742,0.00084,71.25890736,
0.00086,0.9071733967,0.00086,71.98976795,
0.00088,-0.1891174858,0.00088,71.98976795,
0.0009,-0.1891174858,0.0009,71.62433766,
0.00092,0.1763128083,0.00092,72.35519825,
0.00094,1.272603691,0.00094,71.62433766,
0.00096,-0.9199780742,0.00096,71.62433766,
0.00098,-0.55454778,0.00098,72.35519825,
0.001,-0.1891174858,0.001,72.35519825,
0.00102,0.1763128083,0.00102,71.98976795,
0.00104,-0.9199780742,0.00104,72.35519825,
0.00106,-0.9199780742,0.00106,72.35519825,
0.00108,-0.55454778,0.00108,71.62433766,
0.0011,1.272603691,0.0011,72.35519825,
0.00112,1.272603691,0.00112,72.72062854,
0.00114,0.5417431025,0.00114,71.98976795,
0.00116,2.003464279,0.00116,72.72062854,
0.00118,1.272603691,0.00118,72.35519825,
0.0012,0.9071733967,0.0012,71.62433766,
0.00122,0.9071733967,0.00122,72.35519825,
0.00124,1.638033985,0.00124,72.35519825,
0.00126,0.1763128083,0.00126,71.98976795,
0.00128,0.5417431025,0.00128,72.35519825,
0.0013,0.5417431025,0.0013,72.72062854,
0.00132,-0.1891174858,0.00132,72.35519825,
0.00134,2.003464279,0.00134,72.35519825,
0.00136,2.003464279,0.00136,72.35519825,
0.00138,2.003464279,0.00138,71.62433766,
0.0014,2.368894573,0.0014,72.72062854,
0.00142,1.638033985,0.00142,72.35519825,
0.00144,1.272603691,0.00144,71.98976795,
0.00146,1.272603691,0.00146,72.72062854,
0.00148,1.638033985,0.00148,72.35519825,
0.0015,-0.1891174858,0.0015,71.98976795,
0.00152,1.272603691,0.00152,72.35519825,
0.00154,-0.9199780742,0.00154,72.35519825,
0.00156,-0.55454778,0.00156,71.98976795,
0.00158,0.9071733967,0.00158,72.35519825,
0.0016,0.5417431025,0.0016,72.35519825,
0.00162,0.9071733967,0.00162,71.98976795,
0.00164,-0.55454778,0.00164,72.72062854,
0.00166,0.5417431025,0.00166,71.62433766,
0.00168,1.638033985,0.00168,71.25890736,
0.0017,2.003464279,0.0017,72.35519825,
0.00172,-2.016268957,0.00172,71.25890736,
0.00174,-2.381699251,0.00174,71.25890736,
0.00176,-2.381699251,0.00176,73.45148913,
0.00178,-2.381699251,0.00178,72.72062854,
0.0018,-1.650838663,0.0018,71.25890736,
0.00182,-2.381699251,0.00182,72.72062854,
0.00184,-0.55454778,0.00184,72.35519825,
0.00186,0.1763128083,0.00186,73.08605883,
0.00188,-0.1891174858,0.00188,71.62433766,
0.0019,1.272603691,0.0019,72.35519825,
0.00192,0.5417431025,0.00192,72.72062854,
0.00194,-0.1891174858,0.00194,72.35519825,
0.00196,-1.285408368,0.00196,72.35519825,
0.00198,-0.1891174858,0.00198,72.72062854,
0.002,-1.285408368,0.002,72.72062854,
0.00202,-0.55454778,0.00202,71.98976795,
0.00204,-1.285408368,0.00204,73.08605883,
0.00206,-0.1891174858,0.00206,72.35519825,
0.00208,0.5417431025,0.00208,71.62433766,
0.0021,1.638033985,0.0021,72.72062854,
0.00212,0.9071733967,0.00212,72.35519825,
0.00214,0.9071733967,0.00214,71.98976795,
0.00216,2.003464279,0.00216,72.72062854,
0.00218,0.5417431025,0.00218,71.98976795,
0.0022,0.9071733967,0.0022,71.98976795,
0.00222,0.5417431025,0.00222,72.72062854,
0.00224,-1.285408368,0.00224,72.35519825,
0.00226,0.1763128083,0.00226,72.35519825,
0.00228,0.5417431025,0.00228,72.72062854,
0.0023,0.1763128083,0.0023,72.35519825,
0.00232,0.5417431025,0.00232,72.35519825,
0.00234,1.272603691,0.00234,72.72062854,
0.00236,2.003464279,0.00236,72.35519825,
0.00238,0.9071733967,0.00238,71.98976795,
0.0024,2.003464279,0.0024,72.35519825,
0.00242,0.5417431025,0.00242,71.98976795,
0.00244,2.003464279,0.00244,71.98976795,
0.00246,2.003464279,0.00246,72.72062854,
0.00248,0.1763128083,0.00248,71.98976795,
0.0025,-0.1891174858,0.0025,71.98976795,
0.00252,0.9071733967,0.00252,73.08605883,
0.00254,-0.55454778,0.00254,72.35519825,
0.00256,0.1763128083,0.00256,71.98976795,
0.00258,0.5417431025,0.00258,73.08605883,
0.0026,1.272603691,0.0026,71.98976795,
0.00262,0.1763128083,0.00262,72.35519825,
0.00264,0.9071733967,0.00264,72.35519825,
0.00266,-1.285408368,0.00266,72.72062854,
0.00268,1.272603691,0.00268,71.98976795,
0.0027,-0.9199780742,0.0027,72.35519825,
0.00272,-2.016268957,0.00272,72.72062854,
0.00274,-3.477990133,0.00274,72.35519825,
0.00276,-2.016268957,0.00276,73.08605883,
0.00278,-1.650838663,0.00278,72.72062854,
0.0028,-0.9199780742,0.0028,73.08605883,
0.00282,0.1763128083,0.00282,72.72062854,
0.00284,-0.1891174858,0.00284,72.35519825,
0.00286,1.272603691,0.00286,72.35519825,
0.00288,0.9071733967,0.00288,72.35519825,
0.0029,0.9071733967,0.0029,71.98976795,
0.00292,-0.55454778,0.00292,72.35519825,
0.00294,0.1763128083,0.00294,72.72062854,
0.00296,-1.285408368,0.00296,71.98976795,
0.00298,-0.1891174858,0.00298,71.98976795,
0.003,0.1763128083,0.003,72.72062854,
0.00302,0.5417431025,0.00302,72.35519825,
0.00304,0.5417431025,0.00304,72.72062854,
0.00306,0.1763128083,0.00306,72.72062854,
0.00308,-0.9199780742,0.00308,72.72062854,
0.0031,-0.1891174858,0.0031,72.35519825,
0.00312,1.272603691,0.00312,72.72062854,
0.00314,0.9071733967,0.00314,72.35519825,
0.00316,0.1763128083,0.00316,72.35519825,
0.00318,0.5417431025,0.00318,72.72062854,
0.0032,0.5417431025,0.0032,72.35519825,
0.00322,0.1763128083,0.00322,72.35519825,
0.00324,0.9071733967,0.00324,73.08605883,
0.00326,-0.1891174858,0.00326,72.35519825,
0.00328,1.272603691,0.00328,72.35519825,
0.0033,0.5417431025,0.0033,72.72062854,
0.00332,0.9071733967,0.00332,72.35519825,
0.00334,0.9071733967,0.00334,72.35519825,
0.00336,2.003464279,0.00336,72.35519825,
0.00338,0.9071733967,0.00338,72.35519825,
0.0034,1.272603691,0.0034,71.98976795,
0.00342,1.638033985,0.00342,72.72062854,
0.00344,0.1763128083,0.00344,72.35519825,
0.00346,0.9071733967,0.00346,71.62433766,
0.00348,0.5417431025,0.00348,72.72062854,
0.0035,-1.285408368,0.0035,71.98976795,
0.00352,-0.55454778,0.00352,71.98976795,
0.00354,-0.9199780742,0.00354,72.72062854,
0.00356,0.1763128083,0.00356,72.35519825,
0.00358,0.5417431025,0.00358,72.72062854,
0.0036,0.5417431025,0.0036,72.35519825,
0.00362,1.638033985,0.00362,72.72062854,
0.00364,-1.285408368,0.00364,72.35519825,
0.00366,-0.1891174858,0.00366,73.45148913,
0.00368,-0.55454778,0.00368,71.62433766,
0.0037,-0.9199780742,0.0037,70.89347707,
0.00372,-2.016268957,0.00372,72.72062854,
0.00374,-2.381699251,0.00374,71.62433766,
0.00376,-1.285408368,0.00376,72.72062854,
0.00378,-0.9199780742,0.00378,72.35519825,
0.0038,0.5417431025,0.0038,71.98976795,
0.00382,0.1763128083,0.00382,72.72062854,
0.00384,-0.9199780742,0.00384,72.35519825,
0.00386,-2.381699251,0.00386,71.98976795,
0.00388,-0.55454778,0.00388,73.08605883,
0.0039,-1.650838663,0.0039,71.98976795,
0.00392,-0.1891174858,0.00392,72.35519825,
0.00394,-0.9199780742,0.00394,73.08605883,
0.00396,-1.650838663,0.00396,72.35519825,
0.00398,-0.55454778,0.00398,72.72062854,
0.004,0.9071733967,0.004,72.72062854,
0.00402,0.1763128083,0.00402,72.72062854,
0.00404,2.003464279,0.00404,71.98976795,
0.00406,1.272603691,0.00406,72.72062854,
0.00408,2.003464279,0.00408,72.35519825,
0.0041,0.5417431025,0.0041,71.98976795,
0.00412,1.638033985,0.00412,72.35519825,
0.00414,0.9071733967,0.00414,72.35519825,
0.00416,-0.1891174858,0.00416,71.98976795,
0.00418,1.638033985,0.00418,72.72062854,
0.0042,0.1763128083,0.0042,72.72062854,
0.00422,0.1763128083,0.00422,72.35519825,
0.00424,0.9071733967,0.00424,72.72062854,
0.00426,0.9071733967,0.00426,72.35519825,
0.00428,1.272603691,0.00428,72.35519825,
0.0043,1.638033985,0.0043,72.72062854,
0.00432,1.272603691,0.00432,72.35519825,
0.00434,2.003464279,0.00434,72.35519825,
0.00436,1.638033985,0.00436,73.08605883,
0.00438,0.5417431025,0.00438,72.72062854,
0.0044,1.272603691,0.0044,72.35519825,
0.00442,0.5417431025,0.00442,73.08605883,
0.00444,1.272603691,0.00444,71.98976795,
0.00446,0.1763128083,0.00446,72.35519825,
0.00448,-0.55454778,0.00448,72.72062854,
0.0045,0.1763128083,0.0045,72.35519825,
0.00452,0.1763128083,0.00452,72.72062854,
0.00454,1.272603691,0.00454,72.72062854,
0.00456,0.5417431025,0.00456,72.72062854,
0.00458,0.1763128083,0.00458,71.98976795,
0.0046,1.638033985,0.0046,72.35519825,
0.00462,0.1763128083,0.00462,72.72062854,
0.00464,-0.55454778,0.00464,71.62433766,
0.00466,-2.016268957,0.00466,71.98976795,
0.00468,-1.650838663,0.00468,71.25890736,
0.0047,-2.381699251,0.0047,72.72062854,
0.00472,-1.650838663,0.00472,72.35519825,
0.00474,-1.650838663,0.00474,73.08605883,
0.00476,-0.9199780742,0.00476,73.08605883,
0.00478,-0.55454778,0.00478,72.72062854,
0.0048,0.5417431025,0.0048,71.62433766,
0.00482,-0.1891174858,0.00482,72.35519825,
0.00484,-0.55454778,0.00484,72.72062854,
0.00486,-0.55454778,0.00486,71.98976795,
0.00488,-0.1891174858,0.00488,72.72062854,
0.0049,-2.016268957,0.0049,72.72062854,
0.00492,-0.55454778,0.00492,72.72062854,
0.00494,-0.1891174858,0.00494,72.72062854,
0.00496,-0.1891174858,0.00496,71.62433766,
0.00498,0.5417431025,0.00498,72.72062854,
0.005,0.1763128083,0.005,71.98976795,
0.00502,1.638033985,0.00502,72.72062854,
0.00504,1.272603691,0.00504,72.35519825,
0.00506,1.272603691,0.00506,71.62433766,
0.00508,1.638033985,0.00508,72.35519825,
0.0051,1.272603691,0.0051,72.72062854,
0.00512,0.5417431025,0.00512,72.35519825,
0.00514,1.272603691,0.00514,72.35519825,
0.00516,0.9071733967,0.00516,72.35519825,
0.00518,0.5417431025,0.00518,71.62433766,
0.0052,-0.1891174858,0.0052,71.98976795,
0.00522,0.9071733967,0.00522,71.98976795,
0.00524,-0.1891174858,0.00524,71.62433766,
0.00526,2.003464279,0.00526,71.98976795,
0.00528,2.734324868,0.00528,71.98976795,
0.0053,2.734324868,0.0053,71.62433766,
0.00532,2.003464279,0.00532,72.35519825,
0.00534,0.1763128083,0.00534,72.72062854,
0.00536,0.5417431025,0.00536,71.25890736,
0.00538,1.272603691,0.00538,71.98976795,
0.0054,0.9071733967,0.0054,72.35519825,
0.00542,-0.55454778,0.00542,71.62433766,
0.00544,0.1763128083,0.00544,72.35519825,
0.00546,0.1763128083,0.00546,72.72062854,
0.00548,0.5417431025,0.00548,71.98976795,
0.0055,0.5417431025,0.0055,72.35519825,
0.00552,1.272603691,0.00552,71.98976795,
0.00554,0.5417431025,0.00554,71.98976795,
0.00556,1.638033985,0.00556,72.35519825,
0.00558,-0.55454778,0.00558,71.62433766,
0.0056,-2.016268957,0.0056,71.62433766,
0.00562,2.368894573,0.00562,72.35519825,
0.00564,-2.016268957,0.00564,71.98976795,
0.00566,-2.016268957,0.00566,72.72062854,
0.00568,-1.285408368,0.00568,71.98976795,
0.0057,-0.1891174858,0.0057,72.35519825,
0.00572,-0.9199780742,0.00572,71.98976795,
0.00574,-1.285408368,0.00574,71.98976795,
0.00576,0.5417431025,0.00576,71.98976795,
0.00578,0.9071733967,0.00578,71.98976795,
0.0058,-0.55454778,0.0058,72.35519825,
0.00582,-1.285408368,0.00582,73.08605883,
0.00584,-0.1891174858,0.00584,71.98976795,
0.00586,0.1763128083,0.00586,72.35519825,
0.00588,-0.9199780742,0.00588,71.98976795,
0.0059,-1.285408368,0.0059,71.62433766,
0.00592,-0.1891174858,0.00592,71.98976795,
0.00594,0.1763128083,0.00594,72.72062854,
0.00596,-0.1891174858,0.00596,71.98976795,
0.00598,1.272603691,0.00598,71.98976795,
0.006,0.9071733967,0.006,72.35519825,
0.00602,1.272603691,0.00602,71.62433766,
0.00604,2.368894573,0.00604,72.35519825,
0.00606,0.5417431025,0.00606,72.35519825,
0.00608,0.1763128083,0.00608,71.98976795,
0.0061,2.003464279,0.0061,72.35519825,
0.00612,1.272603691,0.00612,72.35519825,
0.00614,0.1763128083,0.00614,71.98976795,
0.00616,0.9071733967,0.00616,73.08605883,
0.00618,0.5417431025,0.00618,72.35519825,
0.0062,0.9071733967,0.0062,71.98976795,
0.00622,0.5417431025,0.00622,72.72062854,
0.00624,2.003464279,0.00624,72.35519825,
0.00626,2.734324868,0.00626,71.98976795,
0.00628,3.099755162,0.00628,72.35519825,
0.0063,1.272603691,0.0063,71.98976795,
0.00632,1.272603691,0.00632,71.98976795,
0.00634,1.272603691,0.00634,72.35519825,
0.00636,1.272603691,0.00636,72.35519825,
0.00638,0.1763128083,0.00638,71.98976795,
0.0064,0.9071733967,0.0064,72.35519825,
0.00642,-0.9199780742,0.00642,72.35519825,
0.00644,-0.1891174858,0.00644,71.98976795,
0.00646,-0.1891174858,0.00646,72.35519825,
0.00648,1.638033985,0.00648,72.35519825,
0.0065,0.1763128083,0.0065,71.98976795,
0.00652,2.003464279,0.00652,72.72062854,
0.00654,0.5417431025,0.00654,71.98976795,
0.00656,0.5417431025,0.00656,71.98976795,
0.00658,-0.9199780742,0.00658,71.62433766,
0.0066,-2.747129545,0.0066,72.35519825,
0.00662,-2.747129545,0.00662,72.35519825,
0.00664,-0.55454778,0.00664,72.72062854,
0.00666,-0.9199780742,0.00666,72.35519825,
0.00668,-3.843420428,0.00668,71.98976795,
0.0067,-2.016268957,0.0067,72.35519825,
0.00672,-0.55454778,0.00672,71.98976795,
0.00674,-0.1891174858,0.00674,72.35519825,
0.00676,1.272603691,0.00676,72.35519825,
0.00678,1.272603691,0.00678,72.35519825,
0.0068,-0.55454778,0.0068,72.35519825,
0.00682,-0.55454778,0.00682,72.35519825,
0.00684,-0.1891174858,0.00684,72.72062854,
0.00686,-0.55454778,0.00686,71.25890736,
0.00688,0.1763128083,0.00688,72.72062854,
0.0069,0.1763128083,0.0069,72.35519825,
0.00692,-0.55454778,0.00692,72.35519825,
0.00694,0.9071733967,0.00694,72.35519825,
0.00696,0.5417431025,0.00696,72.35519825,
0.00698,0.9071733967,0.00698,71.98976795,
0.007,2.368894573,0.007,71.98976795,
0.00702,2.003464279,0.00702,72.35519825,
0.00704,0.9071733967,0.00704,71.62433766,
0.00706,0.9071733967,0.00706,72.35519825,
0.00708,0.9071733967,0.00708,72.35519825,
0.0071,-0.1891174858,0.0071,71.62433766,
0.00712,0.5417431025,0.00712,71.98976795,
0.00714,-0.1891174858,0.00714,72.35519825,
0.00716,0.1763128083,0.00716,71.98976795,
0.00718,-0.1891174858,0.00718,72.35519825,
0.0072,2.003464279,0.0072,72.35519825,
0.00722,2.734324868,0.00722,71.98976795,
0.00724,1.638033985,0.00724,71.98976795,
0.00726,1.272603691,0.00726,72.35519825,
0.00728,1.272603691,0.00728,71.98976795,
0.0073,1.272603691,0.0073,72.72062854,
0.00732,0.9071733967,0.00732,72.35519825,
0.00734,0.5417431025,0.00734,71.98976795,
0.00736,1.638033985,0.00736,71.98976795,
0.00738,0.5417431025,0.00738,71.98976795,
0.0074,-0.9199780742,0.0074,71.62433766,
0.00742,0.1763128083,0.00742,72.35519825,
0.00744,0.1763128083,0.00744,72.35519825,
0.00746,0.9071733967,0.00746,71.98976795,
0.00748,0.9071733967,0.00748,72.35519825,
0.0075,1.272603691,0.0075,72.35519825,
0.00752,0.5417431025,0.00752,71.62433766,
0.00754,-0.1891174858,0.00754,71.98976795,
0.00756,-0.9199780742,0.00756,72.72062854,
0.00758,-1.285408368,0.00758,71.25890736,
0.0076,-1.650838663,0.0076,72.35519825,
0.00762,-1.650838663,0.00762,72.35519825,
0.00764,-2.016268957,0.00764,72.72062854,
0.00766,-2.016268957,0.00766,72.72062854,
0.00768,-1.650838663,0.00768,71.25890736,
0.0077,-0.9199780742,0.0077,72.35519825,
0.00772,0.1763128083,0.00772,72.35519825,
0.00774,-1.650838663,0.00774,72.35519825,
0.00776,0.9071733967,0.00776,71.98976795,
0.00778,-0.1891174858,0.00778,72.72062854,
0.0078,-1.650838663,0.0078,72.35519825,
0.00782,-1.285408368,0.00782,72.35519825,
0.00784,-0.1891174858,0.00784,72.72062854,
0.00786,-1.285408368,0.00786,71.98976795,
0.00788,-1.650838663,0.00788,72.35519825,
0.0079,-0.55454778,0.0079,71.98976795,
0.00792,-0.55454778,0.00792,72.35519825,
0.00794,1.272603691,0.00794,71.98976795,
0.00796,1.272603691,0.00796,72.35519825,
0.00798,0.9071733967,0.00798,72.35519825,
0.008,0.9071733967,0.008,71.98976795,
0.00802,0.5417431025,0.00802,72.72062854,
0.00804,0.5417431025,0.00804,71.98976795,
0.00806,0.9071733967,0.00806,71.98976795,
0.00808,1.272603691,0.00808,72.72062854,
0.0081,-0.9199780742,0.0081,72.35519825,
0.00812,0.1763128083,0.00812,71.98976795,
0.00814,0.1763128083,0.00814,73.08605883,
0.00816,0.1763128083,0.00816,71.98976795,
0.00818,-0.55454778,0.00818,72.35519825,
0.0082,2.734324868,0.0082,72.72062854,
0.00822,0.5417431025,0.00822,71.98976795,
0.00824,2.734324868,0.00824,72.35519825,
0.00826,2.003464279,0.00826,72.35519825,
0.00828,0.5417431025,0.00828,72.72062854,
0.0083,0.1763128083,0.0083,71.98976795,
0.00832,1.272603691,0.00832,73.08605883,
0.00834,-0.1891174858,0.00834,72.35519825,
0.00836,-0.9199780742,0.00836,71.98976795,
0.00838,-0.55454778,0.00838,72.35519825,
0.0084,-1.285408368,0.0084,72.72062854,
0.00842,-0.1891174858,0.00842,71.98976795,
0.00844,-0.9199780742,0.00844,72.72062854,
0.00846,0.5417431025,0.00846,71.62433766,
0.00848,0.5417431025,0.00848,72.35519825,
0.0085,-0.1891174858,0.0085,72.72062854,
0.00852,-0.55454778,0.00852,72.72062854,
0.00854,1.272603691,0.00854,72.72062854,
0.00856,-2.381699251,0.00856,73.08605883,
0.00858,-2.747129545,0.00858,72.72062854,
0.0086,-2.747129545,0.0086,71.98976795,
0.00862,1.272603691,0.00862,72.35519825,
0.00864,-1.650838663,0.00864,71.62433766,
0.00866,1.272603691,0.00866,71.98976795,
0.00868,-2.381699251,0.00868,73.08605883,
0.0087,-1.650838663,0.0087,71.98976795,
0.00872,0.1763128083,0.00872,72.35519825,
0.00874,-0.55454778,0.00874,73.08605883,
0.00876,-0.55454778,0.00876,72.35519825,
0.00878,-0.9199780742,0.00878,71.62433766,
0.0088,-0.9199780742,0.0088,72.72062854,
0.00882,-2.016268957,0.00882,71.62433766,
0.00884,-1.285408368,0.00884,71.98976795,
0.00886,-1.285408368,0.00886,72.72062854,
0.00888,-0.55454778,0.00888,71.98976795,
0.0089,-0.1891174858,0.0089,71.62433766,
0.00892,0.5417431025,0.00892,72.72062854,
0.00894,0.9071733967,0.00894,72.35519825,
0.00896,0.9071733967,0.00896,72.35519825,
0.00898,0.5417431025,0.00898,72.72062854,
0.009,-0.1891174858,0.009,71.98976795,
0.00902,0.5417431025,0.00902,72.35519825,
0.00904,1.272603691,0.00904,72.72062854,
0.00906,0.1763128083,0.00906,72.35519825,
0.00908,1.272603691,0.00908,71.62433766,
0.0091,1.272603691,0.0091,73.08605883,
0.00912,0.5417431025,0.00912,72.35519825,
0.00914,-0.55454778,0.00914,71.98976795,
0.00916,1.638033985,0.00916,72.72062854,
0.00918,1.272603691,0.00918,72.35519825,
0.0092,2.368894573,0.0092,71.98976795,
0.00922,1.638033985,0.00922,73.08605883,
0.00924,1.272603691,0.00924,71.98976795,
0.00926,2.003464279,0.00926,71.98976795,
0.00928,0.5417431025,0.00928,73.08605883,
0.0093,0.1763128083,0.0093,72.35519825,
0.00932,0.1763128083,0.00932,72.35519825,
0.00934,-0.55454778,0.00934,72.35519825,
0.00936,-0.1891174858,0.00936,72.35519825,
0.00938,-0.1891174858,0.00938,72.35519825,
0.0094,0.1763128083,0.0094,72.72062854,
0.00942,-0.9199780742,0.00942,71.98976795,
0.00944,0.1763128083,0.00944,71.62433766,
0.00946,-0.1891174858,0.00946,71.98976795,
0.00948,0.5417431025,0.00948,72.72062854,
0.0095,-0.1891174858,0.0095,73.08605883,
0.00952,1.638033985,0.00952,73.08605883,
0.00954,-0.55454778,0.00954,72.72062854,
0.00956,-0.55454778,0.00956,72.35519825,
0.00958,-3.477990133,0.00958,73.08605883,
0.0096,-3.112559839,0.0096,72.72062854,
0.00962,-2.016268957,0.00962,73.08605883,
0.00964,-0.55454778,0.00964,72.35519825,
0.00966,-1.285408368,0.00966,71.62433766,
0.00968,-0.9199780742,0.00968,72.35519825,
0.0097,-0.9199780742,0.0097,72.35519825,
0.00972,0.1763128083,0.00972,72.35519825,
0.00974,-0.55454778,0.00974,72.72062854,
0.00976,-0.55454778,0.00976,72.35519825,
0.00978,-0.1891174858,0.00978,72.72062854,
0.0098,-0.55454778,0.0098,72.35519825,
0.00982,-0.9199780742,0.00982,72.35519825,
0.00984,0.5417431025,0.00984,72.35519825,
0.00986,-0.55454778,0.00986,72.35519825,
0.00988,0.5417431025,0.00988,72.35519825,
0.0099,0.5417431025,0.0099,71.98976795,
0.00992,2.003464279,0.00992,72.72062854,
0.00994,1.638033985,0.00994,72.35519825,
0.00996,1.272603691,0.00996,72.72062854,
0.00998,0.9071733967,0.00998,71.98976795,
0.01,0.9071733967,0.01,72.72062854,
0.01002,0.5417431025,0.01002,71.98976795,
0.01004,0.1763128083,0.01004,72.72062854,
0.01006,1.638033985,0.01006,72.72062854,
0.01008,-0.1891174858,0.01008,72.35519825,
0.0101,0.1763128083,0.0101,72.35519825,
0.01012,0.5417431025,0.01012,71.98976795,
0.01014,2.003464279,0.01014,72.72062854,
0.01016,1.272603691,0.01016,71.98976795,
0.01018,2.003464279,0.01018,71.98976795,
0.0102,2.003464279,0.0102,72.72062854,
0.01022,0.5417431025,0.01022,72.72062854,
0.01024,1.638033985,0.01024,71.62433766,
0.01026,2.003464279,0.01026,72.72062854,
0.01028,0.5417431025,0.01028,72.35519825,
0.0103,0.5417431025,0.0103,71.98976795,
0.01032,-0.1891174858,0.01032,73.08605883,
0.01034,-1.285408368,0.01034,71.98976795,
0.01036,-0.1891174858,0.01036,72.35519825,
0.01038,0.5417431025,0.01038,72.35519825,
0.0104,-0.9199780742,0.0104,72.35519825,
0.01042,1.272603691,0.01042,71.98976795,
0.01044,0.1763128083,0.01044,71.98976795,
0.01046,0.1763128083,0.01046,72.35519825,
0.01048,-1.650838663,0.01048,73.08605883,
0.0105,0.9071733967,0.0105,71.25890736,
0.01052,-2.381699251,0.01052,72.72062854,
0.01054,-2.381699251,0.01054,72.72062854,
0.01056,-1.650838663,0.01056,71.62433766,
0.01058,-2.381699251,0.01058,72.35519825,
0.0106,-1.285408368,0.0106,72.35519825,
0.01062,-1.285408368,0.01062,71.98976795,
0.01064,-0.9199780742,0.01064,71.98976795,
0.01066,-0.9199780742,0.01066,72.72062854,
0.01068,-0.1891174858,0.01068,71.98976795,
0.0107,0.9071733967,0.0107,71.98976795,
0.01072,-0.9199780742,0.01072,72.72062854,
0.01074,-0.9199780742,0.01074,72.35519825,
0.01076,-0.55454778,0.01076,72.35519825,
0.01078,-0.9199780742,0.01078,72.72062854,
0.0108,-1.650838663,0.0108,71.98976795,
0.01082,-0.55454778,0.01082,71.98976795,
0.01084,0.1763128083,0.01084,72.35519825,
0.01086,0.1763128083,0.01086,72.35519825,
0.01088,0.9071733967,0.01088,72.35519825,
0.0109,1.638033985,0.0109,72.72062854,
0.01092,1.272603691,0.01092,71.98976795,
0.01094,0.9071733967,0.01094,71.98976795,
0.01096,0.5417431025,0.01096,72.72062854,
0.01098,1.272603691,0.01098,72.35519825,
0.011,0.9071733967,0.011,71.98976795,
0.01102,0.9071733967,0.01102,72.72062854,
0.01104,0.5417431025,0.01104,72.35519825,
0.01106,0.5417431025,0.01106,71.98976795,
0.01108,1.638033985,0.01108,72.72062854,
0.0111,-0.1891174858,0.0111,71.98976795,
0.01112,1.272603691,0.01112,71.98976795,
0.01114,0.5417431025,0.01114,72.72062854,
0.01116,1.638033985,0.01116,72.35519825,
0.01118,1.272603691,0.01118,71.98976795,
0.0112,3.099755162,0.0112,72.35519825,
0.01122,1.272603691,0.01122,72.35519825,
0.01124,1.272603691,0.01124,72.35519825,
0.01126,0.5417431025,0.01126,72.72062854,
0.01128,-1.285408368,0.01128,72.35519825,
0.0113,-1.285408368,0.0113,71.62433766,
0.01132,-0.55454778,0.01132,72.72062854,
0.01134,-0.1891174858,0.01134,72.72062854,
0.01136,0.1763128083,0.01136,72.35519825,
0.01138,-0.1891174858,0.01138,72.35519825,
0.0114,0.5417431025,0.0114,71.98976795,
0.01142,0.9071733967,0.01142,72.72062854,
0.01144,0.5417431025,0.01144,73.08605883,
0.01146,-1.650838663,0.01146,72.35519825,
0.01148,-1.285408368,0.01148,72.35519825,
0.0115,-2.016268957,0.0115,72.35519825,
0.01152,0.9071733967,0.01152,71.98976795,
0.01154,-0.9199780742,0.01154,71.62433766,
0.01156,-0.55454778,0.01156,73.08605883,
0.01158,-0.55454778,0.01158,72.72062854,
0.0116,-2.381699251,0.0116,72.35519825,
0.01162,-0.1891174858,0.01162,72.72062854,
0.01164,-0.9199780742,0.01164,72.35519825,
0.01166,-1.285408368,0.01166,71.62433766,
0.01168,-0.1891174858,0.01168,71.98976795,
0.0117,-0.9199780742,0.0117,71.98976795,
0.01172,-0.9199780742,0.01172,71.98976795,
0.01174,-0.55454778,0.01174,72.72062854,
0.01176,-2.016268957,0.01176,71.98976795,
0.01178,-1.285408368,0.01178,72.35519825,
0.0118,0.1763128083,0.0118,73.08605883,
0.01182,-0.1891174858,0.01182,71.98976795,
0.01184,0.5417431025,0.01184,71.98976795,
0.01186,0.5417431025,0.01186,72.72062854,
0.01188,1.272603691,0.01188,72.35519825,
0.0119,-0.1891174858,0.0119,72.35519825,
0.01192,1.272603691,0.01192,71.98976795,
0.01194,-0.1891174858,0.01194,72.72062854,
0.01196,0.9071733967,0.01196,71.62433766,
0.01198,0.5417431025,0.01198,72.72062854,
0.012,-0.1891174858,0.012,72.35519825,
0.01202,-0.1891174858,0.01202,71.98976795,
0.01204,0.5417431025,0.01204,73.08605883,
0.01206,0.9071733967,0.01206,71.98976795,
0.01208,0.9071733967,0.01208,71.98976795,
0.0121,1.638033985,0.0121,72.72062854,
0.01212,0.9071733967,0.01212,72.35519825,
0.01214,1.272603691,0.01214,72.35519825,
0.01216,1.638033985,0.01216,73.08605883,
0.01218,1.272603691,0.01218,71.98976795,
0.0122,0.5417431025,0.0122,72.35519825,
0.01222,1.638033985,0.01222,72.72062854,
0.01224,1.272603691,0.01224,71.98976795,
0.01226,-0.55454778,0.01226,72.35519825,
0.01228,0.5417431025,0.01228,72.35519825,
0.0123,0.1763128083,0.0123,72.35519825,
0.01232,-0.55454778,0.01232,71.98976795,
0.01234,0.5417431025,0.01234,72.72062854,
0.01236,0.1763128083,0.01236,72.72062854,
0.01238,0.9071733967,0.01238,71.98976795,
0.0124,1.272603691,0.0124,72.72062854,
0.01242,0.5417431025,0.01242,72.35519825,
0.01244,0.5417431025,0.01244,72.72062854,
0.01246,-3.112559839,0.01246,71.25890736,
0.01248,-3.843420428,0.01248,72.72062854,
0.0125,-1.650838663,0.0125,73.08605883,
0.01252,-1.285408368,0.01252,73.08605883,
0.01254,-3.112559839,0.01254,72.35519825,
0.01256,-0.1891174858,0.01256,72.35519825,
0.01258,-2.016268957,0.01258,72.72062854,
0.0126,-2.016268957,0.0126,72.35519825,
0.01262,0.9071733967,0.01262,72.72062854,
0.01264,-0.9199780742,0.01264,72.35519825,
0.01266,-0.9199780742,0.01266,72.35519825,
0.01268,-0.55454778,0.01268,71.98976795,
0.0127,-0.9199780742,0.0127,72.35519825,
0.01272,-1.285408368,0.01272,72.35519825,
0.01274,-0.1891174858,0.01274,72.35519825,
0.01276,-0.9199780742,0.01276,72.35519825,
0.01278,-0.9199780742,0.01278,72.35519825,
0.0128,0.5417431025,0.0128,72.35519825,
0.01282,0.1763128083,0.01282,72.35519825,
0.01284,1.272603691,0.01284,71.98976795,
0.01286,2.003464279,0.01286,71.98976795,
0.01288,2.368894573,0.01288,72.35519825,
0.0129,0.1763128083,0.0129,72.35519825,
0.01292,1.638033985,0.01292,71.98976795,
0.01294,0.5417431025,0.01294,71.98976795,
0.01296,0.5417431025,0.01296,72.72062854,
0.01298,0.5417431025,0.01298,72.72062854,
0.013,1.272603691,0.013,72.72062854,
0.01302,-0.1891174858,0.01302,72.35519825,
0.01304,1.272603691,0.01304,72.35519825,
0.01306,0.9071733967,0.01306,72.72062854,
0.01308,0.9071733967,0.01308,72.35519825,
0.0131,1.638033985,0.0131,72.35519825,
0.01312,2.368894573,0.01312,72.72062854,
0.01314,0.9071733967,0.01314,72.72062854,
0.01316,2.003464279,0.01316,72.35519825,
0.01318,0.5417431025,0.01318,72.72062854,
0.0132,0.1763128083,0.0132,72.35519825,
0.01322,1.638033985,0.01322,72.35519825,
0.01324,-0.1891174858,0.01324,72.35519825,
0.01326,-1.285408368,0.01326,71.98976795,
0.01328,-0.1891174858,0.01328,71.98976795,
0.0133,-0.1891174858,0.0133,72.35519825,
0.01332,-0.1891174858,0.01332,72.35519825,
0.01334,0.1763128083,0.01334,72.35519825,
0.01336,2.003464279,0.01336,73.08605883,
0.01338,0.1763128083,0.01338,72.35519825,
0.0134,-1.285408368,0.0134,71.62433766,
0.01342,2.368894573,0.01342,71.98976795,
0.01344,-2.747129545,0.01344,71.62433766,
0.01346,0.9071733967,0.01346,72.72062854,
0.01348,-1.285408368,0.01348,73.08605883,
0.0135,-3.843420428,0.0135,72.72062854,
0.01352,-2.016268957,0.01352,72.35519825,
0.01354,-1.650838663,0.01354,72.72062854,
0.01356,-1.650838663,0.01356,71.62433766,
0.01358,0.5417431025,0.01358,71.98976795,
0.0136,0.1763128083,0.0136,72.72062854,
0.01362,-0.9199780742,0.01362,72.35519825,
0.01364,-0.55454778,0.01364,72.35519825,
0.01366,-0.9199780742,0.01366,72.72062854,
0.01368,-0.55454778,0.01368,72.35519825,
0.0137,-1.650838663,0.0137,72.35519825,
0.01372,-0.55454778,0.01372,72.72062854,
0.01374,-0.9199780742,0.01374,72.72062854,
0.01376,-0.1891174858,0.01376,72.35519825,
0.01378,-0.55454778,0.01378,72.35519825,
0.0138,-0.1891174858,0.0138,71.98976795,
0.01382,0.5417431025,0.01382,72.35519825,
0.01384,2.003464279,0.01384,72.72062854,
0.01386,0.9071733967,0.01386,72.35519825,
0.01388,0.5417431025,0.01388,72.35519825,
0.0139,-0.1891174858,0.0139,72.72062854,
0.01392,0.1763128083,0.01392,72.72062854,
0.01394,-0.55454778,0.01394,72.35519825,
0.01396,0.1763128083,0.01396,72.72062854,
0.01398,0.1763128083,0.01398,72.35519825,
0.014,0.1763128083,0.014,72.35519825,
0.01402,-0.55454778,0.01402,72.72062854,
0.01404,1.272603691,0.01404,71.98976795,
0.01406,2.003464279,0.01406,71.98976795,
0.01408,2.368894573,0.01408,72.72062854,
0.0141,2.003464279,0.0141,72.35519825,
0.01412,1.638033985,0.01412,71.62433766,
0.01414,1.272603691,0.01414,72.35519825,
0.01416,0.9071733967,0.01416,72.72062854,
0.01418,0.9071733967,0.01418,71.98976795,
0.0142,0.5417431025,0.0142,72.35519825,
0.01422,-0.9199780742,0.01422,71.98976795,
0.01424,-0.9199780742,0.01424,71.98976795,
0.01426,-1.650838663,0.01426,71.98976795,
0.01428,0.1763128083,0.01428,72.35519825,
0.0143,1.638033985,0.0143,71.98976795,
0.01432,0.5417431025,0.01432,71.98976795,
0.01434,1.272603691,0.01434,71.62433766,
0.01436,0.9071733967,0.01436,72.35519825,
0.01438,0.1763128083,0.01438,71.62433766,
0.0144,-1.650838663,0.0144,71.98976795,
0.01442,-0.9199780742,0.01442,72.35519825,
0.01444,-2.381699251,0.01444,71.98976795,
0.01446,-1.285408368,0.01446,72.35519825,
0.01448,-0.9199780742,0.01448,72.72062854,
0.0145,-0.9199780742,0.0145,72.35519825,
0.01452,-0.9199780742,0.01452,71.62433766,
0.01454,-1.650838663,0.01454,72.35519825,
0.01456,0.1763128083,0.01456,71.62433766,
0.01458,0.5417431025,0.01458,71.98976795,
0.0146,0.5417431025,0.0146,71.98976795,
0.01462,-0.9199780742,0.01462,71.62433766,
0.01464,-0.1891174858,0.01464,71.98976795,
0.01466,-1.285408368,0.01466,71.98976795,
0.01468,-1.650838663,0.01468,71.98976795,
0.0147,-0.1891174858,0.0147,72.72062854,
0.01472,-0.55454778,0.01472,72.35519825,
0.01474,-1.285408368,0.01474,71.62433766,
0.01476,0.5417431025,0.01476,71.98976795,
0.01478,0.5417431025,0.01478,72.35519825,
0.0148,1.272603691,0.0148,71.98976795,
0.01482,2.003464279,0.01482,72.35519825,
0.01484,1.272603691,0.01484,71.98976795,
0.01486,1.638033985,0.01486,71.98976795,
0.01488,0.1763128083,0.01488,72.35519825,
0.0149,1.272603691,0.0149,72.35519825,
0.01492,0.9071733967,0.01492,72.35519825,
0.01494,-1.285408368,0.01494,72.35519825,
0.01496,0.5417431025,0.01496,72.72062854,
0.01498,0.9071733967,0.01498,72.35519825,
0.015,0.1763128083,0.015,72.72062854,
0.01502,0.5417431025,0.01502,72.35519825,
0.01504,1.272603691,0.01504,72.35519825,
0.01506,1.638033985,0.01506,72.35519825,
0.01508,0.9071733967,0.01508,72.35519825,
0.0151,2.003464279,0.0151,72.35519825,
0.01512,0.5417431025,0.01512,72.72062854,
0.01514,1.638033985,0.01514,71.62433766,
0.01516,0.9071733967,0.01516,72.35519825,
0.01518,0.5417431025,0.01518,72.35519825,
0.0152,-0.1891174858,0.0152,72.35519825,
0.01522,-0.55454778,0.01522,71.98976795,
0.01524,-0.55454778,0.01524,72.72062854,
0.01526,-0.55454778,0.01526,72.35519825,
0.01528,0.1763128083,0.01528,71.62433766,
0.0153,0.5417431025,0.0153,73.08605883,
0.01532,0.5417431025,0.01532,72.72062854,
0.01534,-0.55454778,0.01534,72.72062854,
0.01536,0.5417431025,0.01536,72.72062854,
0.01538,-1.650838663,0.01538,71.98976795,
0.0154,1.638033985,0.0154,71.62433766,
0.01542,-1.650838663,0.01542,73.08605883,
0.01544,-3.477990133,0.01544,71.98976795,
0.01546,-3.477990133,0.01546,72.35519825,
0.01548,-0.9199780742,0.01548,72.35519825,
0.0155,-2.381699251,0.0155,72.35519825,
0.01552,0.1763128083,0.01552,72.35519825,
0.01554,-0.55454778,0.01554,72.72062854,
0.01556,-0.55454778,0.01556,72.72062854,
0.01558,0.5417431025,0.01558,72.35519825,
0.0156,-0.1891174858,0.0156,72.35519825,
0.01562,-2.016268957,0.01562,71.98976795,
0.01564,-1.285408368,0.01564,71.98976795,
0.01566,-1.650838663,0.01566,72.35519825,
0.01568,-1.285408368,0.01568,71.98976795,
0.0157,-0.55454778,0.0157,71.62433766,
0.01572,0.1763128083,0.01572,72.72062854,
0.01574,-0.9199780742,0.01574,71.98976795,
0.01576,-0.9199780742,0.01576,71.98976795,
0.01578,1.638033985,0.01578,72.72062854,
0.0158,0.9071733967,0.0158,72.35519825,
0.01582,0.9071733967,0.01582,72.35519825,
0.01584,0.1763128083,0.01584,71.98976795,
0.01586,0.1763128083,0.01586,71.98976795,
0.01588,1.638033985,0.01588,72.35519825,
0.0159,-0.55454778,0.0159,72.35519825,
0.01592,-0.55454778,0.01592,72.35519825,
0.01594,0.9071733967,0.01594,71.98976795,
0.01596,1.272603691,0.01596,72.72062854,
0.01598,-0.9199780742,0.01598,71.98976795,
0.016,0.5417431025,0.016,72.35519825,
0.01602,1.272603691,0.01602,72.72062854,
0.01604,1.638033985,0.01604,72.35519825,
0.01606,2.368894573,0.01606,71.98976795,
0.01608,1.272603691,0.01608,72.72062854,
0.0161,0.5417431025,0.0161,71.98976795,
0.01612,1.272603691,0.01612,72.72062854,
0.01614,1.272603691,0.01614,72.72062854,
0.01616,0.1763128083,0.01616,72.35519825,
0.01618,-0.9199780742,0.01618,72.35519825,
0.0162,-0.55454778,0.0162,72.35519825,
0.01622,-1.650838663,0.01622,72.35519825,
0.01624,0.1763128083,0.01624,72.35519825,
0.01626,0.9071733967,0.01626,71.62433766,
0.01628,0.9071733967,0.01628,72.72062854,
0.0163,1.638033985,0.0163,72.72062854,
0.01632,-0.55454778,0.01632,71.62433766,
0.01634,-0.1891174858,0.01634,71.98976795,
0.01636,-1.650838663,0.01636,73.08605883,
0.01638,0.1763128083,0.01638,72.72062854,
0.0164,0.9071733967,0.0164,73.45148913,
0.01642,-3.112559839,0.01642,73.08605883,
0.01644,-3.112559839,0.01644,71.62433766,
0.01646,-2.747129545,0.01646,72.72062854,
0.01648,-1.285408368,0.01648,72.72062854,
0.0165,-1.650838663,0.0165,72.35519825,
0.01652,0.5417431025,0.01652,72.72062854,
0.01654,-1.285408368,0.01654,72.72062854,
0.01656,0.1763128083,0.01656,71.98976795,
0.01658,-1.285408368,0.01658,71.98976795,
0.0166,-0.9199780742,0.0166,72.35519825,
0.01662,-1.650838663,0.01662,72.35519825,
0.01664,-0.55454778,0.01664,72.35519825,
0.01666,-1.285408368,0.01666,72.35519825,
0.01668,-1.285408368,0.01668,72.72062854,
0.0167,-1.285408368,0.0167,72.35519825,
0.01672,0.9071733967,0.01672,71.98976795,
0.01674,0.1763128083,0.01674,72.72062854,
0.01676,1.638033985,0.01676,72.35519825,
0.01678,0.5417431025,0.01678,71.98976795,
0.0168,0.5417431025,0.0168,72.72062854,
0.01682,1.272603691,0.01682,72.35519825,
0.01684,1.272603691,0.01684,71.98976795,
0.01686,1.272603691,0.01686,72.35519825,
0.01688,0.5417431025,0.01688,72.35519825,
0.0169,0.5417431025,0.0169,71.98976795,
0.01692,0.9071733967,0.01692,72.35519825,
0.01694,0.1763128083,0.01694,72.35519825,
0.01696,1.638033985,0.01696,72.72062854,
0.01698,1.638033985,0.01698,72.35519825,
0.017,2.003464279,0.017,72.35519825,
0.01702,2.368894573,0.01702,72.35519825,
0.01704,2.003464279,0.01704,72.35519825,
0.01706,1.272603691,0.01706,72.72062854,
0.01708,1.638033985,0.01708,72.72062854,
0.0171,1.272603691,0.0171,71.98976795,
0.01712,1.272603691,0.01712,72.35519825,
0.01714,-0.9199780742,0.01714,71.62433766,
0.01716,-0.55454778,0.01716,72.35519825,
0.01718,0.9071733967,0.01718,72.35519825,
0.0172,-0.1891174858,0.0172,71.98976795,
0.01722,0.1763128083,0.01722,71.98976795,
0.01724,1.272603691,0.01724,71.62433766,
0.01726,0.5417431025,0.01726,71.98976795,
0.01728,-0.1891174858,0.01728,72.72062854,
0.0173,-0.55454778,0.0173,72.35519825,
0.01732,-0.55454778,0.01732,72.72062854,
0.01734,-1.650838663,0.01734,71.62433766,
0.01736,-0.9199780742,0.01736,72.72062854,
0.01738,-3.477990133,0.01738,70.89347707,
0.0174,-2.016268957,0.0174,72.35519825,
0.01742,-2.747129545,0.01742,72.72062854,
0.01744,-1.650838663,0.01744,71.62433766,
0.01746,-0.1891174858,0.01746,71.98976795,
0.01748,-0.9199780742,0.01748,72.35519825,
0.0175,-0.55454778,0.0175,71.62433766,
0.01752,-0.9199780742,0.01752,72.72062854,
0.01754,-1.285408368,0.01754,72.72062854,
0.01756,0.1763128083,0.01756,71.98976795,
0.01758,-1.285408368,0.01758,71.98976795,
0.0176,-1.285408368,0.0176,72.35519825,
0.01762,-1.650838663,0.01762,71.98976795,
0.01764,-0.55454778,0.01764,72.35519825,
0.01766,-1.285408368,0.01766,71.98976795,
0.01768,-0.1891174858,0.01768,71.62433766,
0.0177,0.5417431025,0.0177,71.98976795,
0.01772,1.272603691,0.01772,72.35519825,
0.01774,0.1763128083,0.01774,71.98976795,
0.01776,0.1763128083,0.01776,72.35519825,
0.01778,0.5417431025,0.01778,72.35519825,
0.0178,1.272603691,0.0178,71.62433766,
0.01782,1.272603691,0.01782,72.35519825,
0.01784,0.5417431025,0.01784,72.72062854,
0.01786,0.9071733967,0.01786,71.62433766,
0.01788,-0.55454778,0.01788,72.35519825,
0.0179,0.5417431025,0.0179,72.35519825,
0.01792,-0.1891174858,0.01792,72.35519825,
0.01794,0.5417431025,0.01794,72.35519825,
0.01796,1.638033985,0.01796,72.35519825,
0.01798,1.272603691,0.01798,72.35519825,
0.018,3.465185456,0.018,71.98976795,
0.01802,1.272603691,0.01802,72.35519825,
0.01804,1.272603691,0.01804,71.98976795,
0.01806,2.368894573,0.01806,72.35519825,
0.01808,0.9071733967,0.01808,71.98976795,
0.0181,-0.1891174858,0.0181,71.98976795,
0.01812,0.5417431025,0.01812,71.98976795,
0.01814,-0.55454778,0.01814,72.35519825,
0.01816,-0.55454778,0.01816,71.62433766,
0.01818,0.1763128083,0.01818,71.98976795,
0.0182,0.5417431025,0.0182,72.35519825,
0.01822,-0.1891174858,0.01822,71.62433766,
0.01824,1.272603691,0.01824,71.62433766,
0.01826,0.1763128083,0.01826,72.72062854,
0.01828,0.1763128083,0.01828,71.98976795,
0.0183,-0.1891174858,0.0183,72.35519825,
0.01832,-0.9199780742,0.01832,72.35519825,
0.01834,-2.381699251,0.01834,71.98976795,
0.01836,-3.112559839,0.01836,72.72062854,
0.01838,-1.285408368,0.01838,71.98976795,
0.0184,-2.747129545,0.0184,71.98976795,
0.01842,0.1763128083,0.01842,71.98976795,
0.01844,-2.016268957,0.01844,73.08605883,
0.01846,0.1763128083,0.01846,71.62433766,
0.01848,-0.55454778,0.01848,71.98976795,
0.0185,-0.9199780742,0.0185,71.62433766,
0.01852,-1.650838663,0.01852,71.62433766,
0.01854,-1.285408368,0.01854,71.98976795,
0.01856,-2.381699251,0.01856,72.35519825,
0.01858,-2.381699251,0.01858,71.98976795,
0.0186,-0.9199780742,0.0186,71.98976795,
0.01862,-0.9199780742,0.01862,71.62433766,
0.01864,-0.9199780742,0.01864,71.62433766,
0.01866,0.9071733967,0.01866,72.35519825,
0.01868,0.1763128083,0.01868,72.35519825,
0.0187,0.5417431025,0.0187,71.62433766,
0.01872,0.5417431025,0.01872,72.35519825,
0.01874,0.1763128083,0.01874,71.98976795,
0.01876,-0.1891174858,0.01876,71.98976795,
0.01878,1.638033985,0.01878,71.98976795,
0.0188,1.272603691,0.0188,72.35519825,
0.01882,0.5417431025,0.01882,71.62433766,
0.01884,0.5417431025,0.01884,72.35519825,
0.01886,0.5417431025,0.01886,71.98976795,
0.01888,1.272603691,0.01888,71.62433766,
0.0189,-0.9199780742,0.0189,72.72062854,
0.01892,0.1763128083,0.01892,71.98976795,
0.01894,0.1763128083,0.01894,71.62433766,
0.01896,2.368894573,0.01896,71.98976795,
0.01898,0.1763128083,0.01898,71.98976795,
0.019,1.638033985,0.019,71.62433766,
0.01902,1.638033985,0.01902,72.35519825,
0.01904,0.9071733967,0.01904,71.98976795,
0.01906,0.5417431025,0.01906,71.62433766,
0.01908,0.9071733967,0.01908,72.72062854,
0.0191,-0.1891174858,0.0191,72.35519825,
0.01912,-0.55454778,0.01912,71.98976795,
0.01914,-0.1891174858,0.01914,71.98976795,
0.01916,-0.1891174858,0.01916,72.35519825,
0.01918,-0.1891174858,0.01918,71.62433766,
0.0192,0.5417431025,0.0192,73.08605883,
0.01922,0.5417431025,0.01922,71.98976795,
0.01924,0.5417431025,0.01924,71.98976795,
0.01926,-1.650838663,0.01926,73.08605883,
0.01928,-0.9199780742,0.01928,71.98976795,
0.0193,-1.650838663,0.0193,71.98976795,
0.01932,-2.016268957,0.01932,72.72062854,
0.01934,-3.843420428,0.01934,71.62433766,
0.01936,-1.650838663,0.01936,70.89347707,
0.01938,-2.747129545,0.01938,72.35519825,
0.0194,0.5417431025,0.0194,71.98976795,
0.01942,-1.285408368,0.01942,72.35519825,
0.01944,0.1763128083,0.01944,72.72062854,
0.01946,-0.1891174858,0.01946,71.98976795,
0.01948,-1.285408368,0.01948,72.35519825,
0.0195,-1.285408368,0.0195,72.72062854,
0.01952,-1.650838663,0.01952,71.98976795,
0.01954,-0.55454778,0.01954,71.98976795,
0.01956,-0.9199780742,0.01956,72.35519825,
0.01958,-2.016268957,0.01958,72.35519825,
0.0196,-1.285408368,0.0196,71.98976795,
0.01962,-1.285408368,0.01962,72.72062854,
0.01964,-1.650838663,0.01964,72.35519825,
0.01966,-0.1891174858,0.01966,71.98976795,
0.01968,0.1763128083,0.01968,72.35519825,
0.0197,1.272603691,0.0197,71.98976795,
0.01972,0.1763128083,0.01972,71.98976795,
0.01974,2.003464279,0.01974,72.72062854,
0.01976,0.9071733967,0.01976,71.98976795,
0.01978,-0.9199780742,0.01978,71.62433766,
0.0198,0.1763128083,0.0198,72.72062854,
0.01982,0.1763128083,0.01982,71.98976795,
0.01984,0.9071733967,0.01984,71.62433766,
0.01986,0.5417431025,0.01986,72.35519825,
0.01988,-0.9199780742,0.01988,71.98976795,
0.0199,0.1763128083,0.0199,72.35519825,
0.01992,0.9071733967,0.01992,73.08605883,
0.01994,0.5417431025,0.01994,72.35519825,
0.01996,2.368894573,0.01996,71.98976795,
0.01998,2.003464279,0.01998,72.35519825,
0.02,1.638033985,0.02,71.98976795,
0.02002,0.5417431025,0.02002,72.35519825,
0.02004,0.5417431025,0.02004,71.98976795,
0.02006,0.5417431025,0.02006,72.35519825,
0.02008,-0.1891174858,0.02008,72.35519825,
0.0201,-1.285408368,0.0201,72.72062854,
0.02012,0.1763128083,0.02012,71.98976795,
0.02014,-0.9199780742,0.02014,72.72062854,
0.02016,0.5417431025,0.02016,71.98976795,
0.02018,0.9071733967,0.02018,72.35519825,
0.0202,0.1763128083,0.0202,71.98976795,
0.02022,-0.9199780742,0.02022,72.72062854,
0.02024,1.272603691,0.02024,72.35519825,
0.02026,-0.9199780742,0.02026,72.35519825,
0.02028,-0.9199780742,0.02028,72.35519825,
0.0203,-3.843420428,0.0203,71.62433766,
0.02032,-1.285408368,0.02032,72.72062854,
0.02034,-2.747129545,0.02034,71.25890736,
0.02036,-2.747129545,0.02036,71.98976795,
0.02038,-2.016268957,0.02038,71.98976795,
0.0204,-2.016268957,0.0204,71.98976795,
0.02042,-2.016268957,0.02042,72.35519825,
0.02044,-0.55454778,0.02044,71.62433766,
0.02046,0.5417431025,0.02046,73.08605883,
0.02048,-1.285408368,0.02048,72.35519825,
0.0205,-1.285408368,0.0205,71.62433766,
0.02052,-1.650838663,0.02052,72.72062854,
0.02054,-1.650838663,0.02054,72.35519825,
0.02056,-1.285408368,0.02056,71.98976795,
0.02058,-0.9199780742,0.02058,73.08605883,
0.0206,-0.1891174858,0.0206,71.98976795,
0.02062,0.5417431025,0.02062,72.35519825,
0.02064,0.1763128083,0.02064,72.35519825,
0.02066,0.1763128083,0.02066,72.35519825,
0.02068,1.272603691,0.02068,72.35519825,
0.0207,0.1763128083,0.0207,72.72062854,
0.02072,-0.1891174858,0.02072,72.72062854,
0.02074,0.9071733967,0.02074,72.35519825,
0.02076,0.9071733967,0.02076,73.08605883,
0.02078,-0.1891174858,0.02078,71.98976795,
0.0208,0.1763128083,0.0208,72.35519825,
0.02082,0.1763128083,0.02082,73.08605883,
0.02084,0.5417431025,0.02084,71.98976795,
0.02086,0.5417431025,0.02086,72.35519825,
0.02088,0.9071733967,0.02088,72.72062854,
0.0209,0.9071733967,0.0209,72.35519825,
0.02092,2.003464279,0.02092,72.35519825,
0.02094,0.9071733967,0.02094,72.35519825,
0.02096,3.099755162,0.02096,72.35519825,
0.02098,1.272603691,0.02098,72.35519825,
0.021,1.638033985,0.021,72.35519825,
0.02102,0.9071733967,0.02102,72.72062854,
0.02104,0.9071733967,0.02104,71.98976795,
0.02106,-0.55454778,0.02106,72.35519825,
0.02108,-0.55454778,0.02108,72.35519825,
0.0211,-0.9199780742,0.0211,72.35519825,
0.02112,-0.1891174858,0.02112,71.98976795,
0.02114,0.9071733967,0.02114,71.98976795,
0.02116,0.9071733967,0.02116,72.35519825,
0.02118,2.368894573,0.02118,72.35519825,
0.0212,0.1763128083,0.0212,72.72062854,
0.02122,2.003464279,0.02122,72.35519825,
0.02124,-1.650838663,0.02124,73.08605883,
0.02126,-2.381699251,0.02126,72.35519825,
0.02128,-2.381699251,0.02128,71.62433766,
0.0213,-3.843420428,0.0213,72.35519825,
0.02132,-1.650838663,0.02132,72.35519825,
0.02134,-4.208850722,0.02134,72.72062854,
0.02136,-0.9199780742,0.02136,72.35519825,
0.02138,-2.016268957,0.02138,71.98976795,
0.0214,1.272603691,0.0214,72.35519825,
0.02142,0.5417431025,0.02142,71.98976795,
0.02144,1.638033985,0.02144,71.98976795,
0.02146,-0.1891174858,0.02146,72.35519825,
0.02148,-1.285408368,0.02148,72.35519825,
0.0215,-0.55454778,0.0215,72.35519825,
0.02152,-1.285408368,0.02152,72.35519825,
0.02154,-1.285408368,0.02154,72.35519825,
0.02156,-1.285408368,0.02156,72.72062854,
0.02158,0.1763128083,0.02158,72.35519825,
0.0216,0.1763128083,0.0216,72.35519825,
0.02162,-0.1891174858,0.02162,72.35519825,
0.02164,0.5417431025,0.02164,72.35519825,
0.02166,1.638033985,0.02166,71.98976795,
0.02168,0.9071733967,0.02168,72.35519825,
0.0217,0.1763128083,0.0217,71.98976795,
0.02172,0.9071733967,0.02172,71.98976795,
0.02174,0.5417431025,0.02174,72.35519825,
0.02176,-0.1891174858,0.02176,71.98976795,
0.02178,-0.55454778,0.02178,72.72062854,
0.0218,0.9071733967,0.0218,72.72062854,
0.02182,0.1763128083,0.02182,71.98976795,
0.02184,0.1763128083,0.02184,71.62433766,
0.02186,0.5417431025,0.02186,71.98976795,
0.02188,0.9071733967,0.02188,71.98976795,
0.0219,0.5417431025,0.0219,72.35519825,
0.02192,1.638033985,0.02192,71.98976795,
0.02194,1.272603691,0.02194,72.35519825,
0.02196,1.272603691,0.02196,72.72062854,
0.02198,0.5417431025,0.02198,71.98976795,
0.022,0.1763128083,0.022,72.35519825,
0.02202,0.5417431025,0.02202,73.08605883,
0.02204,-1.285408368,0.02204,71.98976795,
0.02206,-0.9199780742,0.02206,71.62433766,
0.02208,-0.1891174858,0.02208,72.35519825,
0.0221,-0.1891174858,0.0221,71.98976795,
0.02212,1.638033985,0.02212,72.35519825,
0.02214,0.5417431025,0.02214,72.72062854,
0.02216,0.5417431025,0.02216,71.98976795,
0.02218,1.272603691,0.02218,71.62433766,
0.0222,-0.1891174858,0.0222,71.62433766,
0.02222,-2.747129545,0.02222,72.35519825,
0.02224,-0.9199780742,0.02224,71.62433766,
0.02226,-2.747129545,0.02226,72.35519825,
0.02228,-2.381699251,0.02228,72.35519825,
0.0223,-3.477990133,0.0223,72.72062854,
0.02232,-2.016268957,0.02232,72.72062854,
0.02234,-0.9199780742,0.02234,71.62433766,
0.02236,-0.55454778,0.02236,71.62433766,
0.02238,1.272603691,0.02238,72.72062854,
0.0224,0.9071733967,0.0224,71.98976795,
0.02242,-1.650838663,0.02242,71.25890736,
0.02244,-0.9199780742,0.02244,71.98976795,
0.02246,-1.650838663,0.02246,71.98976795,
0.02248,-2.016268957,0.02248,71.62433766,
0.0225,-1.285408368,0.0225,72.72062854,
0.02252,-0.55454778,0.02252,72.35519825,
0.02254,-1.285408368,0.02254,71.98976795,
0.02256,-0.1891174858,0.02256,72.35519825,
0.02258,-0.55454778,0.02258,72.35519825,
0.0226,-0.55454778,0.0226,71.98976795,
0.02262,1.272603691,0.02262,72.72062854,
0.02264,1.272603691,0.02264,72.35519825,
0.02266,0.5417431025,0.02266,71.98976795,
0.02268,0.9071733967,0.02268,72.35519825,
0.0227,0.1763128083,0.0227,71.62433766,
0.02272,0.5417431025,0.02272,71.98976795,
0.02274,-0.9199780742,0.02274,72.72062854,
0.02276,-0.55454778,0.02276,71.98976795,
0.02278,-0.1891174858,0.02278,71.62433766,
0.0228,0.1763128083,0.0228,72.72062854,
0.02282,-0.1891174858,0.02282,72.35519825,
0.02284,1.272603691,0.02284,71.62433766,
0.02286,0.5417431025,0.02286,72.72062854,
0.02288,1.272603691,0.02288,71.98976795,
0.0229,1.638033985,0.0229,71.98976795,
0.02292,0.9071733967,0.02292,72.72062854,
0.02294,0.5417431025,0.02294,71.62433766,
0.02296,0.5417431025,0.02296,71.62433766,
0.02298,0.1763128083,0.02298,72.35519825,
0.023,-0.1891174858,0.023,71.62433766,
0.02302,-0.9199780742,0.02302,71.62433766,
0.02304,-0.55454778,0.02304,72.35519825,
0.02306,0.1763128083,0.02306,71.98976795,
0.02308,0.1763128083,0.02308,71.62433766,
0.0231,-0.1891174858,0.0231,72.72062854,
0.02312,-0.1891174858,0.02312,72.35519825,
0.02314,0.1763128083,0.02314,72.35519825,
0.02316,-0.1891174858,0.02316,73.08605883,
0.02318,-0.1891174858,0.02318,72.35519825,
0.0232,-1.285408368,0.0232,71.98976795,
0.02322,-0.1891174858,0.02322,72.35519825,
0.02324,-1.285408368,0.02324,71.98976795,
0.02326,-2.016268957,0.02326,71.62433766,
0.02328,-2.747129545,0.02328,72.72062854,
0.0233,-1.650838663,0.0233,72.72062854,
0.02332,-2.381699251,0.02332,71.98976795,
0.02334,-2.016268957,0.02334,71.98976795,
0.02336,0.1763128083,0.02336,72.72062854,
0.02338,0.1763128083,0.02338,71.25890736,
0.0234,-0.55454778,0.0234,72.72062854,
0.02342,-0.55454778,0.02342,72.35519825,
0.02344,-1.285408368,0.02344,71.62433766,
0.02346,-2.381699251,0.02346,72.72062854,
0.02348,-2.016268957,0.02348,71.98976795,
0.0235,-1.650838663,0.0235,72.35519825,
0.02352,-0.55454778,0.02352,72.35519825,
0.02354,-0.9199780742,0.02354,72.35519825,
0.02356,-0.55454778,0.02356,71.98976795,
0.02358,0.1763128083,0.02358,72.72062854,
0.0236,-0.1891174858,0.0236,71.98976795,
0.02362,1.272603691,0.02362,71.62433766,
0.02364,2.003464279,0.02364,73.08605883,
0.02366,-0.1891174858,0.02366,71.98976795,
0.02368,0.5417431025,0.02368,71.98976795,
0.0237,0.5417431025,0.0237,72.72062854,
0.02372,-0.9199780742,0.02372,72.35519825,
0.02374,0.9071733967,0.02374,71.98976795,
0.02376,0.1763128083,0.02376,72.35519825,
0.02378,-0.9199780742,0.02378,72.72062854,
0.0238,0.5417431025,0.0238,71.62433766,
0.02382,1.272603691,0.02382,72.35519825,
0.02384,0.5417431025,0.02384,72.72062854,
0.02386,1.272603691,0.02386,71.62433766,
0.02388,2.003464279,0.02388,72.72062854,
0.0239,0.9071733967,0.0239,71.98976795,
0.02392,1.272603691,0.02392,71.98976795,
0.02394,0.1763128083,0.02394,72.72062854,
0.02396,0.5417431025,0.02396,72.35519825,
0.02398,-0.9199780742,0.02398,72.35519825,
0.024,0.5417431025,0.024,72.72062854,
0.02402,-2.016268957,0.02402,72.35519825,
0.02404,0.1763128083,0.02404,71.62433766,
0.02406,-0.1891174858,0.02406,72.72062854,
0.02408,0.5417431025,0.02408,72.35519825,
0.0241,0.5417431025,0.0241,72.72062854,
0.02412,0.5417431025,0.02412,71.62433766,
0.02414,-0.1891174858,0.02414,71.98976795,
0.02416,-1.650838663,0.02416,72.72062854,
0.02418,-2.016268957,0.02418,71.62433766,
0.0242,0.5417431025,0.0242,71.98976795,
0.02422,-1.650838663,0.02422,72.35519825,
0.02424,-2.381699251,0.02424,72.35519825,
0.02426,-3.477990133,0.02426,71.62433766,
0.02428,-0.9199780742,0.02428,71.98976795,
0.0243,-0.9199780742,0.0243,72.35519825,
0.02432,-0.55454778,0.02432,72.35519825,
0.02434,-0.1891174858,0.02434,71.62433766,
0.02436,-0.1891174858,0.02436,72.72062854,
0.02438,0.5417431025,0.02438,71.62433766,
0.0244,-1.285408368,0.0244,71.62433766,
0.02442,-0.9199780742,0.02442,72.72062854,
0.02444,-1.285408368,0.02444,72.35519825,
0.02446,-1.285408368,0.02446,71.98976795,
0.02448,-0.1891174858,0.02448,71.98976795,
0.0245,-0.55454778,0.0245,72.35519825,
0.02452,-0.9199780742,0.02452,71.98976795,
0.02454,0.5417431025,0.02454,72.72062854,
0.02456,-0.1891174858,0.02456,72.35519825,
0.02458,1.272603691,0.02458,71.98976795,
0.0246,1.272603691,0.0246,72.35519825,
0.02462,-0.55454778,0.02462,72.35519825,
0.02464,1.638033985,0.02464,72.35519825,
0.02466,0.5417431025,0.02466,72.72062854,
0.02468,-0.1891174858,0.02468,72.35519825,
0.0247,0.9071733967,0.0247,71.62433766,
0.02472,0.5417431025,0.02472,72.35519825,
0.02474,0.1763128083,0.02474,71.62433766,
0.02476,0.1763128083,0.02476,71.62433766,
0.02478,0.9071733967,0.02478,72.35519825,
0.0248,0.5417431025,0.0248,72.35519825,
0.02482,0.9071733967,0.02482,71.98976795,
0.02484,1.638033985,0.02484,72.72062854,
0.02486,1.272603691,0.02486,72.35519825,
0.02488,1.272603691,0.02488,71.98976795,
0.0249,1.272603691,0.0249,72.72062854,
0.02492,-0.1891174858,0.02492,72.35519825,
0.02494,0.5417431025,0.02494,71.98976795,
0.02496,-0.55454778,0.02496,72.35519825,
0.02498,-0.9199780742,0.02498,72.72062854,
0.025,0.1763128083,0.025,71.98976795,
0.02502,-0.1891174858,0.02502,72.35519825,
0.02504,-0.9199780742,0.02504,72.35519825,
0.02506,1.272603691,0.02506,71.98976795,
0.02508,1.272603691,0.02508,72.35519825,
0.0251,-2.016268957,0.0251,71.25890736,
0.02512,-1.285408368,0.02512,71.98976795,
0.02514,-0.9199780742,0.02514,71.25890736,
0.02516,-3.112559839,0.02516,71.62433766,
0.02518,-3.843420428,0.02518,71.25890736,
0.0252,-3.112559839,0.0252,72.72062854,
0.02522,-2.016268957,0.02522,72.35519825,
0.02524,-0.55454778,0.02524,72.35519825,
0.02526,0.5417431025,0.02526,71.25890736,
0.02528,-0.9199780742,0.02528,71.98976795,
0.0253,-1.650838663,0.0253,71.62433766,
0.02532,-0.9199780742,0.02532,72.35519825,
0.02534,0.9071733967,0.02534,72.35519825,
0.02536,-0.1891174858,0.02536,71.62433766,
0.02538,-0.55454778,0.02538,72.35519825,
0.0254,-0.55454778,0.0254,71.98976795,
0.02542,-2.016268957,0.02542,72.35519825,
0.02544,-2.016268957,0.02544,72.35519825,
0.02546,-2.381699251,0.02546,72.35519825,
0.02548,-0.9199780742,0.02548,72.35519825,
0.0255,0.1763128083,0.0255,71.98976795,
0.02552,0.9071733967,0.02552,72.72062854,
0.02554,0.5417431025,0.02554,71.62433766,
0.02556,1.272603691,0.02556,71.98976795,
0.02558,1.272603691,0.02558,72.72062854,
0.0256,-0.55454778,0.0256,72.35519825,
0.02562,0.1763128083,0.02562,72.72062854,
0.02564,0.5417431025,0.02564,72.72062854,
0.02566,1.272603691,0.02566,72.72062854,
0.02568,0.5417431025,0.02568,71.62433766,
0.0257,0.9071733967,0.0257,72.72062854,
0.02572,0.5417431025,0.02572,71.62433766,
0.02574,0.5417431025,0.02574,71.98976795,
0.02576,0.5417431025,0.02576,72.35519825,
0.02578,0.9071733967,0.02578,71.98976795,
0.0258,2.003464279,0.0258,71.98976795,
0.02582,0.9071733967,0.02582,72.35519825,
0.02584,1.272603691,0.02584,71.62433766,
0.02586,1.272603691,0.02586,71.62433766,
0.02588,1.638033985,0.02588,71.98976795,
0.0259,0.1763128083,0.0259,71.25890736,
0.02592,0.9071733967,0.02592,71.98976795,
0.02594,-0.1891174858,0.02594,72.35519825,
0.02596,-1.285408368,0.02596,71.62433766,
0.02598,0.1763128083,0.02598,71.98976795,
0.026,0.9071733967,0.026,71.98976795,
0.02602,-0.1891174858,0.02602,71.62433766,
0.02604,1.638033985,0.02604,71.98976795,
0.02606,-0.55454778,0.02606,71.62433766,
0.02608,0.1763128083,0.02608,71.98976795,
0.0261,0.5417431025,0.0261,72.72062854,
0.02612,1.272603691,0.02612,71.98976795,
0.02614,-1.650838663,0.02614,71.62433766,
0.02616,-1.650838663,0.02616,71.98976795,
0.02618,0.1763128083,0.02618,71.62433766,
0.0262,-2.381699251,0.0262,71.25890736,
0.02622,-1.650838663,0.02622,72.35519825,
0.02624,0.5417431025,0.02624,72.35519825,
0.02626,0.1763128083,0.02626,71.62433766,
0.02628,-0.1891174858,0.02628,71.62433766,
0.0263,0.9071733967,0.0263,71.98976795,
0.02632,-0.1891174858,0.02632,71.98976795,
0.02634,0.5417431025,0.02634,71.98976795,
0.02636,-0.9199780742,0.02636,71.98976795,
0.02638,-1.650838663,0.02638,71.62433766,
0.0264,-0.1891174858,0.0264,72.35519825,
0.02642,-1.285408368,0.02642,72.35519825,
0.02644,-0.9199780742,0.02644,71.62433766,
0.02646,-0.1891174858,0.02646,71.98976795,
0.02648,-0.1891174858,0.02648,71.98976795,
0.0265,-0.9199780742,0.0265,71.62433766,
0.02652,0.5417431025,0.02652,72.72062854,
0.02654,0.5417431025,0.02654,72.72062854,
0.02656,0.9071733967,0.02656,71.62433766,
0.02658,0.9071733967,0.02658,72.35519825,
0.0266,1.272603691,0.0266,72.35519825,
0.02662,-0.1891174858,0.02662,71.62433766,
0.02664,1.272603691,0.02664,72.35519825,
0.02666,-0.1891174858,0.02666,71.98976795,
0.02668,-0.9199780742,0.02668,71.62433766,
0.0267,-0.9199780742,0.0267,72.35519825,
0.02672,-0.1891174858,0.02672,71.98976795,
0.02674,0.1763128083,0.02674,71.98976795,
0.02676,0.5417431025,0.02676,72.35519825,
0.02678,1.638033985,0.02678,72.72062854,
0.0268,1.638033985,0.0268,71.98976795,
0.02682,2.368894573,0.02682,72.35519825,
0.02684,1.272603691,0.02684,72.35519825,
0.02686,0.9071733967,0.02686,71.62433766,
0.02688,1.638033985,0.02688,71.98976795,
0.0269,0.1763128083,0.0269,71.98976795,
0.02692,-0.9199780742,0.02692,71.25890736,
0.02694,-0.9199780742,0.02694,71.98976795,
0.02696,-1.650838663,0.02696,72.35519825,
0.02698,-1.650838663,0.02698,71.98976795,
0.027,0.5417431025,0.027,71.62433766,
0.02702,0.9071733967,0.02702,71.98976795,
0.02704,0.9071733967,0.02704,71.62433766,
0.02706,0.9071733967,0.02706,72.35519825,
0.02708,-0.1891174858,0.02708,72.72062854,
0.0271,-2.016268957,0.0271,71.62433766,
0.02712,-2.016268957,0.02712,72.35519825,
0.02714,-2.381699251,0.02714,71.98976795,
0.02716,-1.650838663,0.02716,71.25890736,
0.02718,-1.650838663,0.02718,71.98976795,
0.0272,-1.285408368,0.0272,71.98976795,
0.02722,-1.650838663,0.02722,71.62433766,
0.02724,-0.55454778,0.02724,72.35519825,
0.02726,0.1763128083,0.02726,72.35519825,
0.02728,0.1763128083,0.02728,71.62433766,
0.0273,-0.55454778,0.0273,72.35519825,
0.02732,-0.1891174858,0.02732,71.98976795,
0.02734,-1.285408368,0.02734,71.62433766,
0.02736,0.5417431025,0.02736,71.98976795,
0.02738,-0.55454778,0.02738,71.98976795,
0.0274,-0.9199780742,0.0274,71.98976795,
0.02742,-0.1891174858,0.02742,71.98976795,
0.02744,-0.55454778,0.02744,71.98976795,
0.02746,-0.55454778,0.02746,71.98976795,
0.02748,0.9071733967,0.02748,72.35519825,
0.0275,1.272603691,0.0275,72.35519825,
0.02752,1.272603691,0.02752,71.98976795,
0.02754,1.272603691,0.02754,71.98976795,
0.02756,0.5417431025,0.02756,71.62433766,
0.02758,-0.9199780742,0.02758,71.98976795,
0.0276,0.5417431025,0.0276,72.72062854,
0.02762,-0.55454778,0.02762,71.98976795,
0.02764,-0.1891174858,0.02764,71.98976795,
0.02766,0.5417431025,0.02766,72.35519825,
0.02768,-0.1891174858,0.02768,71.98976795,
0.0277,-0.55454778,0.0277,71.98976795,
0.02772,1.272603691,0.02772,72.72062854,
0.02774,0.1763128083,0.02774,72.35519825,
0.02776,1.272603691,0.02776,72.35519825,
0.02778,1.638033985,0.02778,72.72062854,
0.0278,0.9071733967,0.0278,71.98976795,
0.02782,0.5417431025,0.02782,71.98976795,
0.02784,1.272603691,0.02784,72.35519825,
0.02786,0.9071733967,0.02786,72.35519825,
0.02788,0.1763128083,0.02788,71.62433766,
0.0279,-0.9199780742,0.0279,72.72062854,
0.02792,-0.9199780742,0.02792,71.98976795,
0.02794,-0.1891174858,0.02794,71.98976795,
0.02796,-0.9199780742,0.02796,72.35519825,
0.02798,0.1763128083,0.02798,71.98976795,
0.028,1.638033985,0.028,71.62433766,
0.02802,0.5417431025,0.02802,73.08605883,
0.02804,-0.1891174858,0.02804,71.98976795,
0.02806,-1.285408368,0.02806,71.25890736,
0.02808,-1.285408368,0.02808,73.45148913,
0.0281,-3.112559839,0.0281,72.72062854,
0.02812,-1.650838663,0.02812,72.72062854,
0.02814,-3.843420428,0.02814,72.72062854,
0.02816,-0.1891174858,0.02816,72.35519825,
0.02818,-3.112559839,0.02818,71.98976795,
0.0282,-1.285408368,0.0282,71.98976795,
0.02822,0.1763128083,0.02822,72.35519825,
0.02824,-0.55454778,0.02824,71.98976795,
0.02826,0.9071733967,0.02826,72.72062854,
0.02828,-0.55454778,0.02828,72.72062854,
0.0283,0.1763128083,0.0283,71.98976795,
0.02832,-3.112559839,0.02832,73.08605883,
0.02834,-1.285408368,0.02834,72.35519825,
0.02836,-2.016268957,0.02836,71.62433766,
0.02838,-0.9199780742,0.02838,72.72062854,
0.0284,-1.285408368,0.0284,71.98976795,
0.02842,-0.9199780742,0.02842,71.98976795,
0.02844,-0.1891174858,0.02844,72.72062854,
0.02846,0.5417431025,0.02846,72.35519825,
0.02848,0.5417431025,0.02848,71.98976795,
0.0285,0.5417431025,0.0285,72.35519825,
0.02852,0.1763128083,0.02852,71.62433766,
0.02854,0.1763128083,0.02854,71.98976795,
0.02856,0.5417431025,0.02856,72.35519825,
0.02858,-0.55454778,0.02858,72.35519825,
0.0286,0.9071733967,0.0286,71.62433766,
0.02862,0.5417431025,0.02862,72.35519825,
0.02864,-0.9199780742,0.02864,72.72062854,
0.02866,0.9071733967,0.02866,71.98976795,
0.02868,0.9071733967,0.02868,72.72062854,
0.0287,1.272603691,0.0287,71.98976795,
0.02872,1.272603691,0.02872,71.98976795,
0.02874,1.638033985,0.02874,72.72062854,
0.02876,-0.1891174858,0.02876,71.98976795,
0.02878,0.1763128083,0.02878,71.62433766,
0.0288,0.9071733967,0.0288,72.72062854,
0.02882,-0.1891174858,0.02882,72.35519825,
0.02884,0.5417431025,0.02884,71.62433766,
0.02886,-0.1891174858,0.02886,72.35519825,
0.02888,-0.9199780742,0.02888,72.72062854,
0.0289,-1.285408368,0.0289,71.98976795,
0.02892,-1.650838663,0.02892,72.72062854,
0.02894,-0.9199780742,0.02894,71.98976795,
0.02896,-0.1891174858,0.02896,71.98976795,
0.02898,-0.1891174858,0.02898,72.35519825,
0.029,-0.1891174858,0.029,71.62433766,
0.02902,0.1763128083,0.02902,71.98976795,
0.02904,0.5417431025,0.02904,73.08605883,
0.02906,-0.55454778,0.02906,71.98976795,
0.02908,-2.747129545,0.02908,71.62433766,
0.0291,-2.016268957,0.0291,71.98976795,
0.02912,-2.016268957,0.02912,72.35519825,
0.02914,-3.112559839,0.02914,71.25890736,
0.02916,-0.9199780742,0.02916,73.08605883,
0.02918,-2.016268957,0.02918,71.62433766,
0.0292,-0.55454778,0.0292,71.25890736,
0.02922,0.1763128083,0.02922,72.72062854,
0.02924,-1.285408368,0.02924,71.62433766,
0.02926,-0.1891174858,0.02926,71.98976795,
0.02928,-1.285408368,0.02928,73.08605883,
0.0293,-0.9199780742,0.0293,71.98976795,
0.02932,-2.381699251,0.02932,71.98976795,
0.02934,-2.016268957,0.02934,72.35519825,
0.02936,-1.650838663,0.02936,71.98976795,
0.02938,-0.55454778,0.02938,71.62433766,
0.0294,0.5417431025,0.0294,72.72062854,
0.02942,-1.285408368,0.02942,72.35519825,
0.02944,0.5417431025,0.02944,71.98976795,
0.02946,1.272603691,0.02946,71.98976795,
0.02948,1.638033985,0.02948,72.35519825,
0.0295,0.1763128083,0.0295,72.72062854,
0.02952,-0.1891174858,0.02952,72.35519825,
0.02954,0.5417431025,0.02954,72.35519825,
0.02956,0.1763128083,0.02956,73.08605883,
0.02958,-0.1891174858,0.02958,71.98976795,
0.0296,0.5417431025,0.0296,71.98976795,
0.02962,0.5417431025,0.02962,71.98976795,
0.02964,0.9071733967,0.02964,71.98976795,
0.02966,0.1763128083,0.02966,71.98976795,
0.02968,0.9071733967,0.02968,72.35519825,
0.0297,1.272603691,0.0297,71.98976795,
0.02972,1.638033985,0.02972,72.35519825,
0.02974,2.003464279,0.02974,72.72062854,
0.02976,0.9071733967,0.02976,71.98976795,
0.02978,0.5417431025,0.02978,72.35519825,
0.0298,1.272603691,0.0298,71.98976795,
0.02982,-0.1891174858,0.02982,71.98976795,
0.02984,-0.55454778,0.02984,71.98976795,
0.02986,-0.1891174858,0.02986,72.72062854,
0.02988,-1.285408368,0.02988,72.35519825,
0.0299,-0.55454778,0.0299,71.98976795,
0.02992,-0.55454778,0.02992,72.72062854,
0.02994,0.1763128083,0.02994,71.98976795,
0.02996,0.5417431025,0.02996,71.98976795,
0.02998,0.1763128083,0.02998,71.62433766,
0.03,0.1763128083,0.03,72.35519825,
0.03002,-1.650838663,0.03002,71.25890736,
0.03004,0.1763128083,0.03004,71.62433766,
0.03006,-0.9199780742,0.03006,71.98976795,
0.03008,-0.9199780742,0.03008,71.98976795,
0.0301,-2.016268957,0.0301,71.25890736,
0.03012,-3.843420428,0.03012,72.72062854,
0.03014,-1.285408368,0.03014,72.72062854,
0.03016,-0.1891174858,0.03016,73.08605883,
0.03018,-1.650838663,0.03018,71.98976795,
0.0302,1.272603691,0.0302,71.62433766,
0.03022,0.1763128083,0.03022,72.35519825,
0.03024,-0.1891174858,0.03024,72.35519825,
0.03026,-0.55454778,0.03026,72.35519825,
0.03028,-0.9199780742,0.03028,71.98976795,
0.0303,-0.55454778,0.0303,72.35519825,
0.03032,-1.285408368,0.03032,71.98976795,
0.03034,-0.9199780742,0.03034,71.62433766,
0.03036,-0.55454778,0.03036,71.98976795,
0.03038,-0.9199780742,0.03038,71.98976795,
0.0304,0.5417431025,0.0304,71.62433766,
0.03042,0.5417431025,0.03042,72.35519825,
0.03044,2.003464279,0.03044,72.35519825,
0.03046,0.9071733967,0.03046,72.72062854,
0.03048,1.638033985,0.03048,72.35519825,
0.0305,0.1763128083,0.0305,71.98976795,
0.03052,-0.1891174858,0.03052,72.35519825,
0.03054,0.5417431025,0.03054,72.35519825,
0.03056,0.5417431025,0.03056,71.98976795,
0.03058,-0.1891174858,0.03058,72.35519825,
0.0306,-1.650838663,0.0306,72.72062854,
0.03062,-1.285408368,0.03062,72.35519825,
0.03064,0.1763128083,0.03064,71.98976795,
0.03066,1.638033985,0.03066,71.98976795,
0.03068,0.5417431025,0.03068,71.98976795,
0.0307,1.272603691,0.0307,71.62433766,
0.03072,2.368894573,0.03072,72.72062854,
0.03074,0.5417431025,0.03074,71.98976795,
0.03076,0.1763128083,0.03076,71.98976795,
0.03078,1.272603691,0.03078,73.08605883,
0.0308,-0.9199780742,0.0308,71.98976795,
0.03082,-0.1891174858,0.03082,71.62433766,
0.03084,-1.285408368,0.03084,72.35519825,
0.03086,-1.285408368,0.03086,72.35519825,
0.03088,-0.55454778,0.03088,71.62433766,
0.0309,-0.55454778,0.0309,72.35519825,
0.03092,-0.55454778,0.03092,72.35519825,
0.03094,-0.1891174858,0.03094,71.25890736,
0.03096,0.1763128083,0.03096,71.98976795,
0.03098,0.1763128083,0.03098,71.98976795,
0.031,-2.016268957,0.031,71.98976795,
0.03102,2.368894573,0.03102,70.89347707,
0.03104,-0.9199780742,0.03104,71.62433766,
0.03106,-3.112559839,0.03106,73.08605883,
0.03108,-2.381699251,0.03108,72.35519825,
0.0311,-4.208850722,0.0311,72.72062854,
0.03112,-1.285408368,0.03112,70.89347707,
0.03114,-0.9199780742,0.03114,72.35519825,
0.03116,-1.285408368,0.03116,71.98976795,
0.03118,-0.9199780742,0.03118,71.25890736,
0.0312,-0.55454778,0.0312,72.72062854,
0.03122,0.1763128083,0.03122,71.25890736,
0.03124,-2.016268957,0.03124,71.62433766,
0.03126,-2.016268957,0.03126,72.72062854,
0.03128,-2.016268957,0.03128,71.98976795,
0.0313,-1.650838663,0.0313,71.98976795,
0.03132,-0.55454778,0.03132,72.72062854,
0.03134,-2.016268957,0.03134,72.35519825,
0.03136,-0.9199780742,0.03136,71.98976795,
0.03138,0.1763128083,0.03138,72.35519825,
0.0314,-0.1891174858,0.0314,71.98976795,
0.03142,0.1763128083,0.03142,72.35519825,
0.03144,2.368894573,0.03144,72.35519825,
0.03146,0.9071733967,0.03146,71.98976795,
0.03148,-0.55454778,0.03148,71.62433766,
0.0315,0.9071733967,0.0315,72.35519825,
0.03152,0.1763128083,0.03152,71.98976795,
0.03154,-1.285408368,0.03154,71.98976795,
0.03156,0.1763128083,0.03156,72.72062854,
0.03158,-0.9199780742,0.03158,72.35519825,
0.0316,-0.1891174858,0.0316,71.98976795,
0.03162,0.9071733967,0.03162,72.72062854,
0.03164,-0.1891174858,0.03164,71.62433766,
0.03166,1.638033985,0.03166,71.62433766,
0.03168,2.003464279,0.03168,72.72062854,
0.0317,0.1763128083,0.0317,71.98976795,
0.03172,-0.55454778,0.03172,71.98976795,
0.03174,0.1763128083,0.03174,72.72062854,
0.03176,-0.55454778,0.03176,71.98976795,
0.03178,-0.55454778,0.03178,71.98976795,
0.0318,0.9071733967,0.0318,72.72062854,
0.03182,-2.381699251,0.03182,71.98976795,
0.03184,-1.650838663,0.03184,72.35519825,
0.03186,-1.285408368,0.03186,73.08605883,
0.03188,0.1763128083,0.03188,72.35519825,
0.0319,-0.1891174858,0.0319,71.98976795,
0.03192,2.003464279,0.03192,71.98976795,
0.03194,-0.1891174858,0.03194,71.98976795,
0.03196,-0.55454778,0.03196,70.89347707,
0.03198,-1.650838663,0.03198,71.62433766,
0.032,-2.016268957,0.032,71.62433766,
0.03202,-3.843420428,0.03202,72.35519825,
0.03204,-0.9199780742,0.03204,72.72062854,
0.03206,-3.112559839,0.03206,72.35519825,
0.03208,-3.477990133,0.03208,72.35519825,
0.0321,-2.016268957,0.0321,71.62433766,
0.03212,-0.55454778,0.03212,72.72062854,
0.03214,-0.9199780742,0.03214,71.62433766,
0.03216,0.1763128083,0.03216,72.35519825,
0.03218,-0.9199780742,0.03218,72.35519825,
0.0322,-0.55454778,0.0322,71.62433766,
0.03222,-1.650838663,0.03222,72.72062854,
0.03224,-1.650838663,0.03224,71.98976795,
0.03226,-0.9199780742,0.03226,71.62433766,
0.03228,-1.285408368,0.03228,72.35519825,
0.0323,-1.650838663,0.0323,72.35519825,
0.03232,-0.1891174858,0.03232,72.35519825,
0.03234,-1.285408368,0.03234,72.72062854,
0.03236,0.1763128083,0.03236,72.35519825,
0.03238,-0.1891174858,0.03238,71.98976795,
0.0324,1.272603691,0.0324,72.35519825,
0.03242,1.272603691,0.03242,72.35519825,
0.03244,0.9071733967,0.03244,71.98976795,
0.03246,1.272603691,0.03246,72.35519825,
0.03248,0.9071733967,0.03248,72.35519825,
0.0325,0.1763128083,0.0325,71.98976795,
0.03252,0.5417431025,0.03252,71.98976795,
0.03254,-0.55454778,0.03254,72.35519825,
0.03256,0.5417431025,0.03256,71.98976795,
0.03258,-0.1891174858,0.03258,72.72062854,
0.0326,0.9071733967,0.0326,71.98976795,
0.03262,0.5417431025,0.03262,72.35519825,
0.03264,2.003464279,0.03264,72.35519825,
0.03266,1.272603691,0.03266,71.98976795,
0.03268,2.003464279,0.03268,72.35519825,
0.0327,1.272603691,0.0327,72.35519825,
0.03272,0.1763128083,0.03272,72.35519825,
0.03274,1.272603691,0.03274,71.98976795,
0.03276,1.638033985,0.03276,72.35519825,
0.03278,-0.55454778,0.03278,72.35519825,
0.0328,-0.9199780742,0.0328,71.62433766,
0.03282,-0.1891174858,0.03282,72.35519825,
0.03284,-0.1891174858,0.03284,72.35519825,
0.03286,0.9071733967,0.03286,71.98976795,
0.03288,0.1763128083,0.03288,73.08605883,
0.0329,-0.55454778,0.0329,71.62433766,
0.03292,-0.1891174858,0.03292,73.08605883,
0.03294,-2.016268957,0.03294,72.72062854,
0.03296,-3.112559839,0.03296,72.72062854,
0.03298,-2.016268957,0.03298,71.98976795,
0.033,-3.477990133,0.033,72.72062854,
0.03302,-5.305141604,0.03302,70.89347707,
0.03304,-4.208850722,0.03304,71.62433766,
0.03306,-1.285408368,0.03306,73.08605883,
0.03308,-3.477990133,0.03308,71.25890736,
0.0331,0.1763128083,0.0331,72.35519825,
0.03312,-0.9199780742,0.03312,72.35519825,
0.03314,-0.1891174858,0.03314,72.35519825,
0.03316,-0.55454778,0.03316,71.98976795,
0.03318,-1.285408368,0.03318,72.35519825,
0.0332,-1.285408368,0.0332,71.98976795,
0.03322,-0.9199780742,0.03322,72.35519825,
0.03324,-2.016268957,0.03324,72.72062854,
0.03326,-1.285408368,0.03326,72.35519825,
0.03328,-0.55454778,0.03328,71.98976795,
0.0333,-1.285408368,0.0333,72.72062854,
0.03332,-0.9199780742,0.03332,72.35519825,
0.03334,0.9071733967,0.03334,71.62433766,
0.03336,0.9071733967,0.03336,72.72062854,
0.03338,0.1763128083,0.03338,72.35519825,
0.0334,0.9071733967,0.0334,71.62433766,
0.03342,-0.55454778,0.03342,72.35519825,
0.03344,-0.55454778,0.03344,71.98976795,
0.03346,0.9071733967,0.03346,71.98976795,
0.03348,-1.285408368,0.03348,71.98976795,
0.0335,-0.55454778,0.0335,72.35519825,
0.03352,0.9071733967,0.03352,71.98976795,
0.03354,-0.1891174858,0.03354,72.35519825,
0.03356,-0.1891174858,0.03356,72.35519825,
0.03358,0.1763128083,0.03358,72.35519825,
0.0336,2.368894573,0.0336,71.98976795,
0.03362,0.1763128083,0.03362,71.98976795,
0.03364,2.368894573,0.03364,71.98976795,
0.03366,0.9071733967,0.03366,72.35519825,
0.03368,0.9071733967,0.03368,72.35519825,
0.0337,0.1763128083,0.0337,71.98976795,
0.03372,-0.1891174858,0.03372,72.72062854,
0.03374,-0.1891174858,0.03374,72.35519825,
0.03376,-0.9199780742,0.03376,72.35519825,
0.03378,-0.55454778,0.03378,72.35519825,
0.0338,-1.285408368,0.0338,71.98976795,
0.03382,-1.285408368,0.03382,72.35519825,
0.03384,-0.1891174858,0.03384,72.72062854,
0.03386,-0.9199780742,0.03386,72.35519825,
0.03388,0.1763128083,0.03388,71.62433766,
0.0339,-0.1891174858,0.0339,71.98976795,
0.03392,-1.285408368,0.03392,72.35519825,
0.03394,-0.9199780742,0.03394,71.98976795,
0.03396,-2.381699251,0.03396,72.35519825,
0.03398,0.5417431025,0.03398,73.08605883,
0.034,-2.747129545,0.034,72.35519825,
0.03402,-3.843420428,0.03402,72.35519825,
0.03404,-0.55454778,0.03404,72.35519825,
0.03406,-0.1891174858,0.03406,71.98976795,
0.03408,-0.1891174858,0.03408,72.35519825,
0.0341,-1.650838663,0.0341,72.35519825,
0.03412,0.1763128083,0.03412,72.35519825,
0.03414,-0.1891174858,0.03414,72.72062854,
0.03416,-1.285408368,0.03416,72.35519825,
0.03418,-1.285408368,0.03418,71.98976795,
0.0342,-2.381699251,0.0342,72.72062854,
0.03422,-0.1891174858,0.03422,71.62433766,
0.03424,-0.1891174858,0.03424,71.98976795,
0.03426,-2.016268957,0.03426,71.62433766,
0.03428,-0.1891174858,0.03428,71.98976795,
0.0343,0.1763128083,0.0343,72.35519825,
0.03432,1.272603691,0.03432,71.62433766,
0.03434,1.272603691,0.03434,71.98976795,
0.03436,2.368894573,0.03436,72.35519825,
0.03438,1.272603691,0.03438,71.62433766,
0.0344,0.9071733967,0.0344,72.35519825,
0.03442,0.9071733967,0.03442,71.98976795,
0.03444,0.1763128083,0.03444,71.25890736,
0.03446,0.5417431025,0.03446,71.98976795,
0.03448,0.1763128083,0.03448,71.62433766,
0.0345,-0.1891174858,0.0345,71.62433766,
0.03452,0.9071733967,0.03452,71.98976795,
0.03454,0.5417431025,0.03454,71.98976795,
0.03456,-0.1891174858,0.03456,71.25890736,
0.03458,1.638033985,0.03458,72.35519825,
0.0346,1.638033985,0.0346,72.35519825,
0.03462,1.272603691,0.03462,71.62433766,
0.03464,1.272603691,0.03464,71.98976795,
0.03466,-0.1891174858,0.03466,71.25890736,
0.03468,0.1763128083,0.03468,71.25890736,
0.0347,1.638033985,0.0347,71.25890736,
0.03472,-0.1891174858,0.03472,71.98976795,
0.03474,-0.9199780742,0.03474,71.98976795,
0.03476,0.5417431025,0.03476,71.98976795,
0.03478,-0.55454778,0.03478,71.62433766,
0.0348,0.1763128083,0.0348,71.98976795,
0.03482,0.5417431025,0.03482,71.98976795,
0.03484,1.272603691,0.03484,71.98976795,
0.03486,-0.1891174858,0.03486,71.98976795,
0.03488,-0.1891174858,0.03488,71.25890736,
0.0349,-1.285408368,0.0349,72.35519825,
0.03492,-1.650838663,0.03492,71.62433766,
0.03494,-2.747129545,0.03494,72.35519825,
0.03496,-2.016268957,0.03496,71.62433766,
0.03498,-3.477990133,0.03498,71.25890736,
0.035,-3.477990133,0.035,73.08605883,
0.03502,-2.381699251,0.03502,71.98976795,
0.03504,-0.9199780742,0.03504,71.62433766,
0.03506,-1.285408368,0.03506,71.98976795,
0.03508,-0.55454778,0.03508,71.62433766,
0.0351,1.638033985,0.0351,70.89347707,
0.03512,0.1763128083,0.03512,72.35519825,
0.03514,-0.55454778,0.03514,71.98976795,
0.03516,-2.016268957,0.03516,71.62433766,
0.03518,-1.285408368,0.03518,71.98976795,
0.0352,-1.650838663,0.0352,72.35519825,
0.03522,-0.9199780742,0.03522,71.62433766,
0.03524,-1.285408368,0.03524,72.35519825,
0.03526,-0.9199780742,0.03526,71.98976795,
0.03528,-0.1891174858,0.03528,71.62433766,
0.0353,0.9071733967,0.0353,71.98976795,
0.03532,0.9071733967,0.03532,71.98976795,
0.03534,1.638033985,0.03534,71.25890736,
0.03536,0.5417431025,0.03536,72.35519825,
0.03538,0.9071733967,0.03538,72.35519825,
0.0354,0.9071733967,0.0354,71.98976795,
0.03542,0.9071733967,0.03542,72.35519825,
0.03544,1.272603691,0.03544,72.35519825,
0.03546,-0.55454778,0.03546,71.98976795,
0.03548,-0.1891174858,0.03548,72.35519825,
0.0355,-0.1891174858,0.0355,71.98976795,
0.03552,0.1763128083,0.03552,72.35519825,
0.03554,1.272603691,0.03554,72.35519825,
0.03556,0.9071733967,0.03556,72.35519825,
0.03558,1.272603691,0.03558,71.98976795,
0.0356,1.638033985,0.0356,72.35519825,
0.03562,0.9071733967,0.03562,71.98976795,
0.03564,1.272603691,0.03564,72.35519825,
0.03566,0.9071733967,0.03566,72.35519825,
0.03568,1.272603691,0.03568,72.35519825,
0.0357,0.1763128083,0.0357,72.35519825,
0.03572,-0.1891174858,0.03572,71.62433766,
0.03574,-0.55454778,0.03574,71.98976795,
0.03576,-0.55454778,0.03576,72.72062854,
0.03578,-0.1891174858,0.03578,71.98976795,
0.0358,-0.55454778,0.0358,71.62433766,
0.03582,3.099755162,0.03582,72.35519825,
0.03584,0.1763128083,0.03584,71.98976795,
0.03586,-0.1891174858,0.03586,72.35519825,
0.03588,-1.285408368,0.03588,71.98976795,
0.0359,-0.9199780742,0.0359,72.72062854,
0.03592,0.1763128083,0.03592,71.98976795,
0.03594,-1.650838663,0.03594,72.35519825,
0.03596,-3.477990133,0.03596,72.35519825,
0.03598,-3.112559839,0.03598,71.62433766,
0.036,-1.650838663,0.036,73.08605883,
0.03602,-1.650838663,0.03602,71.62433766,
0.03604,-0.55454778,0.03604,72.35519825,
0.03606,-0.55454778,0.03606,72.72062854,
0.03608,0.1763128083,0.03608,71.62433766,
0.0361,-0.1891174858,0.0361,71.98976795,
0.03612,-1.285408368,0.03612,71.98976795,
0.03614,-0.9199780742,0.03614,72.35519825,
0.03616,-1.650838663,0.03616,72.72062854,
0.03618,-2.381699251,0.03618,72.35519825,
0.0362,-0.9199780742,0.0362,72.35519825,
0.03622,-1.285408368,0.03622,72.72062854,
0.03624,-0.55454778,0.03624,71.98976795,
0.03626,-0.55454778,0.03626,71.62433766,
0.03628,-0.1891174858,0.03628,72.35519825,
0.0363,0.1763128083,0.0363,71.98976795,
0.03632,0.5417431025,0.03632,71.98976795,
0.03634,0.5417431025,0.03634,71.98976795,
0.03636,0.1763128083,0.03636,71.98976795,
0.03638,-0.1891174858,0.03638,71.62433766,
0.0364,1.638033985,0.0364,73.08605883,
0.03642,-1.285408368,0.03642,72.35519825,
0.03644,-0.1891174858,0.03644,71.62433766,
0.03646,-0.55454778,0.03646,72.35519825,
0.03648,-0.9199780742,0.03648,72.35519825,
0.0365,0.1763128083,0.0365,71.98976795,
0.03652,0.5417431025,0.03652,72.72062854,
0.03654,1.638033985,0.03654,71.98976795,
0.03656,2.734324868,0.03656,71.62433766,
0.03658,1.638033985,0.03658,72.72062854,
0.0366,1.638033985,0.0366,71.98976795,
0.03662,0.5417431025,0.03662,71.62433766,
0.03664,1.272603691,0.03664,72.72062854,
0.03666,0.9071733967,0.03666,72.35519825,
0.03668,-0.55454778,0.03668,71.62433766,
0.0367,-0.1891174858,0.0367,72.35519825,
0.03672,-0.9199780742,0.03672,71.98976795,
0.03674,-1.285408368,0.03674,72.35519825,
0.03676,-0.9199780742,0.03676,72.35519825,
0.03678,0.9071733967,0.03678,71.98976795,
0.0368,0.1763128083,0.0368,71.98976795,
0.03682,0.1763128083,0.03682,71.62433766,
0.03684,-0.9199780742,0.03684,71.98976795,
0.03686,0.5417431025,0.03686,71.98976795,
0.03688,-2.016268957,0.03688,73.08605883,
0.0369,-2.016268957,0.0369,71.98976795,
0.03692,-3.112559839,0.03692,71.62433766,
0.03694,-3.477990133,0.03694,72.35519825,
0.03696,-2.747129545,0.03696,72.35519825,
0.03698,-2.747129545,0.03698,71.98976795,
0.037,-2.016268957,0.037,71.98976795,
0.03702,-1.285408368,0.03702,71.98976795,
0.03704,-1.285408368,0.03704,71.25890736,
0.03706,-1.285408368,0.03706,72.35519825,
0.03708,-1.285408368,0.03708,71.62433766,
0.0371,-0.1891174858,0.0371,71.62433766,
0.03712,-1.650838663,0.03712,72.72062854,
0.03714,-0.9199780742,0.03714,71.98976795,
0.03716,-2.381699251,0.03716,71.98976795,
0.03718,-1.285408368,0.03718,72.35519825,
0.0372,-0.9199780742,0.0372,72.72062854,
0.03722,-1.650838663,0.03722,71.98976795,
0.03724,-0.55454778,0.03724,72.72062854,
0.03726,0.1763128083,0.03726,71.98976795,
0.03728,0.1763128083,0.03728,71.98976795,
0.0373,-0.1891174858,0.0373,72.72062854,
0.03732,0.5417431025,0.03732,71.98976795,
0.03734,-0.55454778,0.03734,71.62433766,
0.03736,0.1763128083,0.03736,72.35519825,
0.03738,-0.1891174858,0.03738,72.35519825,
0.0374,-0.1891174858,0.0374,71.98976795,
0.03742,0.1763128083,0.03742,72.72062854,
0.03744,-0.55454778,0.03744,71.62433766,
0.03746,-0.1891174858,0.03746,71.62433766,
0.03748,1.272603691,0.03748,72.72062854,
0.0375,0.1763128083,0.0375,71.62433766,
0.03752,1.638033985,0.03752,71.98976795,
0.03754,1.638033985,0.03754,72.72062854,
0.03756,1.638033985,0.03756,72.35519825,
0.03758,0.1763128083,0.03758,71.98976795,
0.0376,0.9071733967,0.0376,72.35519825,
0.03762,0.1763128083,0.03762,71.98976795,
0.03764,0.5417431025,0.03764,71.62433766,
0.03766,-0.9199780742,0.03766,72.72062854,
0.03768,-1.650838663,0.03768,71.98976795,
0.0377,-0.9199780742,0.0377,71.98976795,
0.03772,-0.55454778,0.03772,72.72062854,
0.03774,-0.1891174858,0.03774,71.98976795,
0.03776,1.272603691,0.03776,71.62433766,
0.03778,0.1763128083,0.03778,72.35519825,
0.0378,-0.9199780742,0.0378,71.98976795,
0.03782,-0.55454778,0.03782,70.89347707,
0.03784,-2.016268957,0.03784,73.08605883,
0.03786,-3.477990133,0.03786,71.98976795,
0.03788,-1.285408368,0.03788,71.25890736,
0.0379,-2.381699251,0.0379,73.08605883,
0.03792,-3.112559839,0.03792,72.35519825,
0.03794,-4.93971131,0.03794,72.35519825,
0.03796,-2.016268957,0.03796,71.98976795,
0.03798,-2.016268957,0.03798,71.98976795,
0.038,0.5417431025,0.038,72.35519825,
0.03802,1.272603691,0.03802,73.08605883,
0.03804,-0.9199780742,0.03804,72.72062854,
0.03806,-1.285408368,0.03806,72.35519825,
0.03808,-0.9199780742,0.03808,72.35519825,
0.0381,-2.381699251,0.0381,72.35519825,
0.03812,-1.285408368,0.03812,72.35519825,
0.03814,-1.650838663,0.03814,72.35519825,
0.03816,-2.016268957,0.03816,71.98976795,
0.03818,-0.9199780742,0.03818,72.35519825,
0.0382,-0.1891174858,0.0382,71.98976795,
0.03822,-0.1891174858,0.03822,72.72062854,
0.03824,1.272603691,0.03824,71.98976795,
0.03826,2.003464279,0.03826,72.72062854,
0.03828,-0.55454778,0.03828,71.98976795,
0.0383,-0.1891174858,0.0383,72.35519825,
0.03832,1.272603691,0.03832,72.72062854,
0.03834,-0.1891174858,0.03834,72.35519825,
0.03836,-0.55454778,0.03836,71.98976795,
0.03838,0.5417431025,0.03838,72.72062854,
0.0384,-0.1891174858,0.0384,71.98976795,
0.03842,-0.1891174858,0.03842,71.98976795,
0.03844,0.5417431025,0.03844,72.35519825,
0.03846,-0.55454778,0.03846,71.62433766,
0.03848,2.368894573,0.03848,71.98976795,
0.0385,2.734324868,0.0385,72.35519825,
0.03852,2.003464279,0.03852,72.35519825,
0.03854,2.368894573,0.03854,71.98976795,
0.03856,0.9071733967,0.03856,72.35519825,
0.03858,-0.1891174858,0.03858,71.98976795,
0.0386,0.9071733967,0.0386,71.98976795,
0.03862,0.9071733967,0.03862,71.98976795,
0.03864,-0.1891174858,0.03864,71.98976795,
0.03866,-0.1891174858,0.03866,71.98976795,
0.03868,-1.285408368,0.03868,72.35519825,
0.0387,-1.285408368,0.0387,71.98976795,
0.03872,0.9071733967,0.03872,72.35519825,
0.03874,1.638033985,0.03874,72.35519825,
0.03876,0.1763128083,0.03876,71.98976795,
0.03878,2.003464279,0.03878,71.98976795,
0.0388,0.9071733967,0.0388,72.72062854,
0.03882,-1.285408368,0.03882,72.35519825,
0.03884,-2.747129545,0.03884,72.35519825,
0.03886,-1.650838663,0.03886,72.72062854,
0.03888,-0.55454778,0.03888,71.98976795,
0.0389,-3.112559839,0.0389,72.35519825,
0.03892,0.5417431025,0.03892,71.25890736,
0.03894,-2.381699251,0.03894,71.98976795,
0.03896,0.5417431025,0.03896,71.62433766,
0.03898,-0.1891174858,0.03898,71.98976795,
0.039,-0.1891174858,0.039,72.72062854,
0.03902,1.272603691,0.03902,71.25890736,
0.03904,-0.9199780742,0.03904,72.35519825,
0.03906,-1.285408368,0.03906,71.98976795,
0.03908,-2.381699251,0.03908,71.98976795,
0.0391,-1.650838663,0.0391,72.35519825,
0.03912,-1.285408368,0.03912,71.98976795,
0.03914,-0.9199780742,0.03914,71.98976795,
0.03916,-2.016268957,0.03916,72.35519825,
0.03918,-0.1891174858,0.03918,72.35519825,
0.0392,0.9071733967,0.0392,71.98976795,
0.03922,0.5417431025,0.03922,72.72062854,
0.03924,0.9071733967,0.03924,71.98976795,
0.03926,1.272603691,0.03926,71.98976795,
0.03928,0.1763128083,0.03928,72.72062854,
0.0393,0.1763128083,0.0393,71.98976795,
0.03932,-0.1891174858,0.03932,71.62433766,
0.03934,-0.9199780742,0.03934,72.35519825,
0.03936,0.1763128083,0.03936,72.35519825,
0.03938,0.5417431025,0.03938,71.62433766,
0.0394,-0.55454778,0.0394,72.35519825,
0.03942,-0.9199780742,0.03942,72.35519825,
0.03944,0.9071733967,0.03944,71.98976795,
0.03946,0.9071733967,0.03946,72.72062854,
0.03948,1.272603691,0.03948,72.35519825,
0.0395,1.272603691,0.0395,72.35519825,
0.03952,1.272603691,0.03952,72.72062854,
0.03954,0.1763128083,0.03954,71.98976795,
0.03956,0.5417431025,0.03956,72.35519825,
0.03958,0.1763128083,0.03958,71.98976795,
0.0396,-0.1891174858,0.0396,71.98976795,
0.03962,-0.9199780742,0.03962,71.62433766,
0.03964,-0.55454778,0.03964,72.35519825,
0.03966,-0.55454778,0.03966,71.98976795,
0.03968,-0.55454778,0.03968,71.98976795,
0.0397,0.5417431025,0.0397,72.72062854,
0.03972,0.1763128083,0.03972,72.35519825,
0.03974,0.5417431025,0.03974,71.25890736,
0.03976,-0.9199780742,0.03976,71.98976795,
0.03978,-2.381699251,0.03978,72.72062854,
0.0398,-2.381699251,0.0398,72.72062854,
0.03982,-2.381699251,0.03982,73.08605883,
0.03984,-0.9199780742,0.03984,72.35519825,
0.03986,-3.477990133,0.03986,72.72062854,
0.03988,-2.381699251,0.03988,72.72062854,
0.0399,-3.112559839,0.0399,71.25890736,
0.03992,-0.9199780742,0.03992,71.25890736,
0.03994,-1.285408368,0.03994,72.35519825,
0.03996,0.5417431025,0.03996,71.62433766,
0.03998,0.1763128083,0.03998,71.98976795,
0.04,-1.285408368,0.04,70.89347707,
0.04002,-0.55454778,0.04002,72.35519825,
0.04004,-1.285408368,0.04004,72.35519825,
0.04006,-2.016268957,0.04006,71.25890736,
0.04008,-0.9199780742,0.04008,71.98976795,
0.0401,-0.9199780742,0.0401,71.98976795,
0.04012,-1.285408368,0.04012,71.62433766,
0.04014,0.1763128083,0.04014,71.98976795,
0.04016,-0.1891174858,0.04016,71.98976795,
0.04018,-0.1891174858,0.04018,71.62433766,
0.0402,1.272603691,0.0402,72.35519825,
0.04022,1.272603691,0.04022,71.62433766,
0.04024,0.5417431025,0.04024,70.89347707,
0.04026,0.9071733967,0.04026,71.98976795,
0.04028,0.5417431025,0.04028,72.35519825,
0.0403,1.638033985,0.0403,71.62433766,
0.04032,0.9071733967,0.04032,71.98976795,
0.04034,0.1763128083,0.04034,71.98976795,
0.04036,0.5417431025,0.04036,71.62433766,
0.04038,-0.1891174858,0.04038,71.62433766,
0.0404,0.5417431025,0.0404,71.25890736,
0.04042,0.1763128083,0.04042,71.62433766,
0.04044,1.272603691,0.04044,71.98976795,
0.04046,1.272603691,0.04046,72.35519825,
0.04048,1.272603691,0.04048,72.35519825,
0.0405,1.272603691,0.0405,71.62433766,
0.04052,1.272603691,0.04052,71.98976795,
0.04054,0.5417431025,0.04054,71.98976795,
0.04056,0.5417431025,0.04056,71.98976795,
0.04058,0.1763128083,0.04058,71.62433766,
0.0406,0.1763128083,0.0406,72.35519825,
0.04062,-0.1891174858,0.04062,72.35519825,
0.04064,-0.9199780742,0.04064,71.98976795,
0.04066,-1.650838663,0.04066,71.98976795,
0.04068,-0.1891174858,0.04068,72.35519825,
0.0407,-0.55454778,0.0407,72.35519825,
0.04072,0.1763128083,0.04072,71.98976795,
0.04074,0.1763128083,0.04074,70.89347707,
0.04076,-2.381699251,0.04076,71.62433766,
0.04078,-2.381699251,0.04078,72.72062854,
0.0408,-1.650838663,0.0408,71.98976795,
0.04082,-2.381699251,0.04082,72.72062854,
0.04084,-0.55454778,0.04084,71.98976795,
0.04086,-3.843420428,0.04086,72.72062854,
0.04088,-0.55454778,0.04088,73.08605883,
0.0409,-0.9199780742,0.0409,71.62433766,
0.04092,-2.016268957,0.04092,72.35519825,
0.04094,-2.016268957,0.04094,71.62433766,
0.04096,0.5417431025,0.04096,72.35519825,
0.04098,0.1763128083,0.04098,72.35519825,
0.041,-1.285408368,0.041,72.35519825,
0.04102,-0.9199780742,0.04102,72.35519825,
0.04104,-1.650838663,0.04104,72.35519825,
0.04106,-3.112559839,0.04106,72.72062854,
0.04108,-0.55454778,0.04108,72.35519825,
0.0411,-0.9199780742,0.0411,71.98976795,
0.04112,-1.285408368,0.04112,72.35519825,
0.04114,-0.1891174858,0.04114,71.98976795,
0.04116,-0.1891174858,0.04116,72.35519825,
0.04118,-0.55454778,0.04118,71.98976795,
0.0412,0.1763128083,0.0412,71.62433766,
0.04122,0.1763128083,0.04122,72.35519825,
0.04124,0.1763128083,0.04124,72.35519825,
0.04126,0.1763128083,0.04126,72.35519825,
0.04128,-0.1891174858,0.04128,72.35519825,
0.0413,-0.1891174858,0.0413,72.35519825,
0.04132,1.272603691,0.04132,71.98976795,
0.04134,0.5417431025,0.04134,71.98976795,
0.04136,-0.1891174858,0.04136,72.35519825,
0.04138,0.5417431025,0.04138,72.35519825,
0.0414,0.5417431025,0.0414,72.35519825,
0.04142,0.5417431025,0.04142,71.98976795,
0.04144,2.003464279,0.04144,71.98976795,
0.04146,0.9071733967,0.04146,72.35519825,
0.04148,0.5417431025,0.04148,72.35519825,
0.0415,0.5417431025,0.0415,71.98976795,
0.04152,0.1763128083,0.04152,72.72062854,
0.04154,0.1763128083,0.04154,72.72062854,
0.04156,0.9071733967,0.04156,71.98976795,
0.04158,-0.55454778,0.04158,72.35519825,
0.0416,-1.650838663,0.0416,72.35519825,
0.04162,-0.9199780742,0.04162,71.98976795,
0.04164,-0.55454778,0.04164,72.72062854,
0.04166,-0.1891174858,0.04166,71.98976795,
0.04168,-0.55454778,0.04168,71.98976795,
0.0417,0.1763128083,0.0417,72.35519825,
0.04172,1.272603691,0.04172,72.35519825,
0.04174,-0.1891174858,0.04174,72.35519825,
0.04176,-0.55454778,0.04176,72.35519825,
0.04178,-0.9199780742,0.04178,72.72062854,
0.0418,-0.9199780742,0.0418,71.62433766,
0.04182,-0.9199780742,0.04182,71.98976795,
0.04184,-2.381699251,0.04184,71.62433766,
0.04186,-2.381699251,0.04186,71.25890736,
0.04188,-0.9199780742,0.04188,72.35519825,
0.0419,-1.650838663,0.0419,72.72062854,
0.04192,-0.55454778,0.04192,71.62433766,
0.04194,-0.9199780742,0.04194,72.72062854,
0.04196,-1.285408368,0.04196,72.72062854,
0.04198,-0.1891174858,0.04198,71.98976795,
0.042,-0.9199780742,0.042,72.72062854,
0.04202,-2.016268957,0.04202,72.35519825,
0.04204,-2.016268957,0.04204,72.35519825,
0.04206,-1.650838663,0.04206,72.35519825,
0.04208,-1.650838663,0.04208,71.98976795,
0.0421,-0.9199780742,0.0421,71.98976795,
0.04212,-0.1891174858,0.04212,72.72062854,
0.04214,0.5417431025,0.04214,72.35519825,
0.04216,0.5417431025,0.04216,71.98976795,
0.04218,-0.1891174858,0.04218,72.35519825,
0.0422,-0.1891174858,0.0422,71.98976795,
0.04222,0.5417431025,0.04222,71.62433766,
0.04224,0.5417431025,0.04224,72.72062854,
0.04226,0.5417431025,0.04226,72.35519825,
0.04228,0.5417431025,0.04228,71.98976795,
0.0423,0.1763128083,0.0423,72.72062854,
0.04232,-0.55454778,0.04232,72.35519825,
0.04234,-0.9199780742,0.04234,72.35519825,
0.04236,0.5417431025,0.04236,72.72062854,
0.04238,0.9071733967,0.04238,71.98976795,
0.0424,1.272603691,0.0424,71.98976795,
0.04242,1.638033985,0.04242,72.35519825,
0.04244,1.272603691,0.04244,71.98976795,
0.04246,0.9071733967,0.04246,71.98976795,
0.04248,0.9071733967,0.04248,72.35519825,
0.0425,0.1763128083,0.0425,71.98976795,
0.04252,0.5417431025,0.04252,71.98976795,
0.04254,-0.55454778,0.04254,72.35519825,
0.04256,-0.9199780742,0.04256,72.35519825,
0.04258,-1.650838663,0.04258,71.98976795,
0.0426,-0.55454778,0.0426,72.35519825,
0.04262,-1.285408368,0.04262,71.98976795,
0.04264,0.5417431025,0.04264,71.62433766,
0.04266,-0.1891174858,0.04266,72.35519825,
0.04268,1.638033985,0.04268,71.62433766,
0.0427,-0.1891174858,0.0427,72.72062854,
0.04272,-2.381699251,0.04272,72.72062854,
0.04274,-2.016268957,0.04274,72.72062854,
0.04276,-1.285408368,0.04276,72.72062854,
0.04278,-0.55454778,0.04278,71.98976795,
0.0428,-2.747129545,0.0428,71.62433766,
0.04282,-2.747129545,0.04282,71.62433766,
0.04284,-2.016268957,0.04284,72.35519825,
0.04286,-0.1891174858,0.04286,71.98976795,
0.04288,-1.650838663,0.04288,71.98976795,
0.0429,0.9071733967,0.0429,71.98976795,
0.04292,-0.55454778,0.04292,71.62433766,
0.04294,-0.55454778,0.04294,71.98976795,
0.04296,-0.9199780742,0.04296,71.25890736,
0.04298,0.1763128083,0.04298,72.35519825,
0.043,-2.016268957,0.043,71.98976795,
0.04302,-2.016268957,0.04302,71.62433766,
0.04304,-0.9199780742,0.04304,72.35519825,
0.04306,-0.55454778,0.04306,72.35519825,
0.04308,-0.9199780742,0.04308,71.62433766,
0.0431,0.9071733967,0.0431,71.98976795,
0.04312,0.1763128083,0.04312,71.98976795,
0.04314,1.272603691,0.04314,71.62433766,
0.04316,0.9071733967,0.04316,71.98976795,
0.04318,1.638033985,0.04318,71.98976795,
0.0432,0.9071733967,0.0432,71.62433766,
0.04322,2.003464279,0.04322,71.98976795,
0.04324,-0.1891174858,0.04324,71.62433766,
0.04326,0.1763128083,0.04326,71.62433766,
0.04328,0.1763128083,0.04328,71.98976795,
0.0433,-0.55454778,0.0433,71.98976795,
0.04332,-0.9199780742,0.04332,71.62433766,
0.04334,0.5417431025,0.04334,71.62433766,
0.04336,0.9071733967,0.04336,71.98976795,
0.04338,2.003464279,0.04338,71.62433766,
0.0434,2.003464279,0.0434,72.35519825,
0.04342,1.638033985,0.04342,72.35519825,
0.04344,0.9071733967,0.04344,71.25890736,
0.04346,0.9071733967,0.04346,71.98976795,
0.04348,1.272603691,0.04348,71.98976795,
0.0435,-0.55454778,0.0435,71.62433766,
0.04352,-0.1891174858,0.04352,72.35519825,
0.04354,-0.55454778,0.04354,71.62433766,
0.04356,-0.9199780742,0.04356,71.62433766,
0.04358,0.9071733967,0.04358,71.98976795,
0.0436,-0.9199780742,0.0436,71.98976795,
0.04362,-1.285408368,0.04362,71.25890736,
0.04364,0.1763128083,0.04364,71.98976795,
0.04366,-0.9199780742,0.04366,73.08605883,
0.04368,-0.9199780742,0.04368,70.52804678,
0.0437,-1.650838663,0.0437,71.98976795,
0.04372,-1.650838663,0.04372,72.35519825,
0.04374,-0.9199780742,0.04374,70.52804678,
0.04376,-2.381699251,0.04376,72.72062854,
0.04378,-4.208850722,0.04378,71.25890736,
0.0438,-2.016268957,0.0438,70.52804678,
0.04382,-3.477990133,0.04382,72.72062854,
0.04384,-0.55454778,0.04384,72.35519825,
0.04386,-0.9199780742,0.04386,71.62433766,
0.04388,-0.55454778,0.04388,71.62433766,
0.0439,1.272603691,0.0439,72.35519825,
0.04392,-1.285408368,0.04392,71.25890736,
0.04394,-0.55454778,0.04394,71.98976795,
0.04396,-0.9199780742,0.04396,71.98976795,
0.04398,-1.285408368,0.04398,71.98976795,
0.044,-1.285408368,0.044,71.62433766,
0.04402,-1.285408368,0.04402,72.35519825,
0.04404,-0.9199780742,0.04404,71.25890736,
0.04406,-0.9199780742,0.04406,71.98976795,
0.04408,-0.1891174858,0.04408,71.98976795,
0.0441,0.1763128083,0.0441,71.25890736,
0.04412,1.272603691,0.04412,71.98976795,
0.04414,1.272603691,0.04414,72.35519825,
0.04416,0.1763128083,0.04416,71.62433766,
0.04418,1.638033985,0.04418,71.98976795,
0.0442,1.272603691,0.0442,71.98976795,
0.04422,0.1763128083,0.04422,71.62433766,
0.04424,-0.1891174858,0.04424,71.98976795,
0.04426,-0.1891174858,0.04426,71.62433766,
0.04428,0.1763128083,0.04428,71.25890736,
0.0443,1.272603691,0.0443,72.35519825,
0.04432,0.1763128083,0.04432,72.35519825,
0.04434,0.5417431025,0.04434,71.62433766,
0.04436,2.003464279,0.04436,71.98976795,
0.04438,1.272603691,0.04438,72.35519825,
0.0444,1.272603691,0.0444,71.98976795,
0.04442,1.638033985,0.04442,71.98976795,
0.04444,1.272603691,0.04444,71.98976795,
0.04446,-0.1891174858,0.04446,71.62433766,
0.04448,-0.1891174858,0.04448,72.35519825,
0.0445,-0.1891174858,0.0445,71.62433766,
0.04452,-1.285408368,0.04452,71.62433766,
0.04454,-0.55454778,0.04454,72.35519825,
0.04456,-0.9199780742,0.04456,71.62433766,
0.04458,-0.1891174858,0.04458,71.98976795,
0.0446,0.9071733967,0.0446,72.35519825,
0.04462,0.1763128083,0.04462,71.25890736,
0.04464,0.5417431025,0.04464,71.25890736,
0.04466,1.272603691,0.04466,72.72062854,
0.04468,1.272603691,0.04468,71.25890736,
0.0447,-3.477990133,0.0447,71.98976795,
0.04472,-2.016268957,0.04472,72.35519825,
0.04474,-1.285408368,0.04474,71.98976795,
0.04476,-3.112559839,0.04476,72.72062854,
0.04478,-0.9199780742,0.04478,72.35519825,
0.0448,-2.381699251,0.0448,70.89347707,
0.04482,0.5417431025,0.04482,71.98976795,
0.04484,-2.016268957,0.04484,71.98976795,
0.04486,-1.285408368,0.04486,71.25890736,
0.04488,-1.650838663,0.04488,71.98976795,
0.0449,-2.016268957,0.0449,71.98976795,
0.04492,-1.285408368,0.04492,71.98976795,
0.04494,-2.016268957,0.04494,72.72062854,
0.04496,-1.650838663,0.04496,71.98976795,
0.04498,-1.650838663,0.04498,71.98976795,
0.045,-0.9199780742,0.045,72.72062854,
0.04502,-0.9199780742,0.04502,71.98976795,
0.04504,-0.55454778,0.04504,72.35519825,
0.04506,0.1763128083,0.04506,72.35519825,
0.04508,0.5417431025,0.04508,71.98976795,
0.0451,0.5417431025,0.0451,71.98976795,
0.04512,2.368894573,0.04512,72.72062854,
0.04514,0.5417431025,0.04514,71.98976795,
0.04516,0.1763128083,0.04516,71.62433766,
0.04518,0.1763128083,0.04518,72.35519825,
0.0452,-0.55454778,0.0452,71.98976795,
0.04522,0.5417431025,0.04522,71.62433766,
0.04524,0.1763128083,0.04524,72.72062854,
0.04526,-0.55454778,0.04526,72.35519825,
0.04528,-0.9199780742,0.04528,71.98976795,
0.0453,0.5417431025,0.0453,72.72062854,
0.04532,0.9071733967,0.04532,71.98976795,
0.04534,0.5417431025,0.04534,72.35519825,
0.04536,0.9071733967,0.04536,72.35519825,
0.04538,0.9071733967,0.04538,72.35519825,
0.0454,0.5417431025,0.0454,71.98976795,
0.04542,1.638033985,0.04542,72.35519825,
0.04544,-0.55454778,0.04544,71.98976795,
0.04546,-0.55454778,0.04546,71.98976795,
0.04548,-1.285408368,0.04548,72.35519825,
0.0455,-2.016268957,0.0455,71.98976795,
0.04552,-1.650838663,0.04552,71.62433766,
0.04554,-0.1891174858,0.04554,72.72062854,
0.04556,-0.9199780742,0.04556,71.98976795,
0.04558,0.9071733967,0.04558,71.98976795,
0.0456,-0.1891174858,0.0456,71.98976795,
0.04562,0.9071733967,0.04562,70.89347707,
0.04564,0.5417431025,0.04564,71.62433766,
0.04566,-1.650838663,0.04566,71.98976795,
0.04568,0.1763128083,0.04568,72.72062854,
0.0457,-2.747129545,0.0457,71.98976795,
0.04572,-3.112559839,0.04572,72.35519825,
0.04574,-2.016268957,0.04574,71.98976795,
0.04576,-2.016268957,0.04576,72.35519825,
0.04578,-2.016268957,0.04578,71.98976795,
0.0458,-1.285408368,0.0458,72.35519825,
0.04582,0.5417431025,0.04582,71.62433766,
0.04584,-0.55454778,0.04584,73.08605883,
0.04586,-0.55454778,0.04586,71.62433766,
0.04588,-1.285408368,0.04588,72.72062854,
0.0459,-1.285408368,0.0459,72.35519825,
0.04592,-2.016268957,0.04592,72.35519825,
0.04594,-0.9199780742,0.04594,71.98976795,
0.04596,-1.650838663,0.04596,72.72062854,
0.04598,-2.016268957,0.04598,72.72062854,
0.046,-1.285408368,0.046,71.98976795,
0.04602,0.1763128083,0.04602,71.62433766,
0.04604,0.5417431025,0.04604,72.72062854,
0.04606,0.5417431025,0.04606,72.35519825,
0.04608,0.5417431025,0.04608,71.98976795,
0.0461,0.9071733967,0.0461,72.35519825,
0.04612,0.1763128083,0.04612,72.72062854,
0.04614,-0.1891174858,0.04614,71.98976795,
0.04616,0.5417431025,0.04616,72.35519825,
0.04618,0.1763128083,0.04618,72.35519825,
0.0462,-0.9199780742,0.0462,71.98976795,
0.04622,0.1763128083,0.04622,72.35519825,
0.04624,0.1763128083,0.04624,72.35519825,
0.04626,-0.1891174858,0.04626,72.35519825,
0.04628,-0.1891174858,0.04628,72.35519825,
0.0463,0.5417431025,0.0463,72.35519825,
0.04632,0.5417431025,0.04632,71.98976795,
0.04634,0.9071733967,0.04634,72.35519825,
0.04636,-0.1891174858,0.04636,72.35519825,
0.04638,1.638033985,0.04638,71.62433766,
0.0464,0.9071733967,0.0464,72.35519825,
0.04642,0.1763128083,0.04642,71.98976795,
0.04644,-0.1891174858,0.04644,71.98976795,
0.04646,0.5417431025,0.04646,72.35519825,
0.04648,-0.9199780742,0.04648,71.98976795,
0.0465,0.1763128083,0.0465,71.98976795,
0.04652,0.1763128083,0.04652,72.35519825,
0.04654,-0.1891174858,0.04654,71.62433766,
0.04656,2.003464279,0.04656,71.62433766,
0.04658,2.368894573,0.04658,71.62433766,
0.0466,1.272603691,0.0466,71.62433766,
0.04662,-0.1891174858,0.04662,71.62433766,
0.04664,0.5417431025,0.04664,72.72062854,
0.04666,-3.477990133,0.04666,71.25890736,
0.04668,-2.381699251,0.04668,72.35519825,
0.0467,-0.9199780742,0.0467,72.35519825,
0.04672,-2.747129545,0.04672,72.35519825,
0.04674,-3.112559839,0.04674,71.98976795,
0.04676,-1.650838663,0.04676,72.72062854,
0.04678,-1.285408368,0.04678,72.35519825,
0.0468,1.638033985,0.0468,72.35519825,
0.04682,-1.650838663,0.04682,72.72062854,
0.04684,-1.650838663,0.04684,72.72062854,
0.04686,0.1763128083,0.04686,71.98976795,
0.04688,-0.9199780742,0.04688,72.35519825,
0.0469,-3.112559839,0.0469,71.98976795,
0.04692,-1.650838663,0.04692,71.98976795,
0.04694,-1.285408368,0.04694,72.35519825,
0.04696,-1.650838663,0.04696,72.35519825,
0.04698,-1.285408368,0.04698,71.98976795,
0.047,-0.55454778,0.047,71.98976795,
0.04702,0.5417431025,0.04702,72.35519825,
0.04704,0.9071733967,0.04704,71.98976795,
0.04706,1.272603691,0.04706,71.98976795,
0.04708,0.9071733967,0.04708,72.35519825,
0.0471,0.5417431025,0.0471,71.98976795,
0.04712,1.272603691,0.04712,72.35519825,
0.04714,-1.285408368,0.04714,72.35519825,
0.04716,-0.1891174858,0.04716,71.62433766,
0.04718,0.9071733967,0.04718,72.35519825,
0.0472,-0.1891174858,0.0472,71.98976795,
0.04722,0.5417431025,0.04722,71.98976795,
0.04724,-0.1891174858,0.04724,72.35519825,
0.04726,-0.55454778,0.04726,71.98976795,
0.04728,1.638033985,0.04728,71.98976795,
0.0473,2.003464279,0.0473,72.35519825,
0.04732,0.5417431025,0.04732,71.98976795,
0.04734,3.099755162,0.04734,71.98976795,
0.04736,1.272603691,0.04736,72.72062854,
0.04738,0.5417431025,0.04738,71.98976795,
0.0474,-0.1891174858,0.0474,71.98976795,
0.04742,0.1763128083,0.04742,72.35519825,
0.04744,-2.016268957,0.04744,72.35519825,
0.04746,-0.9199780742,0.04746,71.98976795,
0.04748,-1.285408368,0.04748,72.72062854,
0.0475,0.5417431025,0.0475,72.35519825,
0.04752,0.1763128083,0.04752,71.98976795,
0.04754,0.1763128083,0.04754,72.72062854,
0.04756,0.5417431025,0.04756,72.35519825,
0.04758,-0.9199780742,0.04758,72.35519825,
0.0476,-1.285408368,0.0476,71.25890736,
0.04762,-3.477990133,0.04762,71.25890736,
0.04764,-0.1891174858,0.04764,71.98976795,
0.04766,-3.112559839,0.04766,70.89347707,
0.04768,-0.55454778,0.04768,70.89347707,
0.0477,-3.112559839,0.0477,72.35519825,
0.04772,-2.747129545,0.04772,73.08605883,
0.04774,-2.016268957,0.04774,71.98976795,
0.04776,-0.1891174858,0.04776,71.62433766,
0.04778,-0.1891174858,0.04778,72.35519825,
0.0478,-2.381699251,0.0478,72.35519825,
0.04782,-0.55454778,0.04782,71.25890736,
0.04784,-1.285408368,0.04784,72.72062854,
0.04786,-2.016268957,0.04786,71.98976795,
0.04788,0.9071733967,0.04788,71.98976795,
0.0479,-2.016268957,0.0479,71.98976795,
0.04792,-1.285408368,0.04792,72.35519825,
0.04794,-0.55454778,0.04794,71.98976795,
0.04796,-0.1891174858,0.04796,71.98976795,
0.04798,-0.55454778,0.04798,71.62433766,
0.048,0.1763128083,0.048,72.35519825,
0.04802,0.5417431025,0.04802,71.98976795,
0.04804,1.272603691,0.04804,72.35519825,
0.04806,1.272603691,0.04806,71.98976795,
0.04808,1.272603691,0.04808,72.72062854,
0.0481,0.1763128083,0.0481,72.35519825,
0.04812,0.5417431025,0.04812,71.98976795,
0.04814,0.5417431025,0.04814,72.72062854,
0.04816,-0.55454778,0.04816,72.35519825,
0.04818,0.9071733967,0.04818,71.98976795,
0.0482,0.1763128083,0.0482,72.35519825,
0.04822,-0.9199780742,0.04822,72.35519825,
0.04824,0.9071733967,0.04824,71.98976795,
0.04826,1.272603691,0.04826,71.98976795,
0.04828,1.272603691,0.04828,71.98976795,
0.0483,1.638033985,0.0483,71.98976795,
0.04832,1.272603691,0.04832,72.35519825,
0.04834,0.5417431025,0.04834,72.35519825,
0.04836,0.5417431025,0.04836,71.98976795,
0.04838,0.1763128083,0.04838,72.35519825,
0.0484,-1.285408368,0.0484,72.35519825,
0.04842,0.5417431025,0.04842,71.62433766,
0.04844,-0.55454778,0.04844,72.72062854,
0.04846,-0.55454778,0.04846,71.98976795,
0.04848,0.1763128083,0.04848,71.62433766,
0.0485,0.5417431025,0.0485,72.72062854,
0.04852,0.5417431025,0.04852,71.98976795,
0.04854,2.734324868,0.04854,71.98976795,
0.04856,-0.9199780742,0.04856,72.35519825,
0.04858,-2.381699251,0.04858,70.16261648,
0.0486,-1.285408368,0.0486,71.98976795,
0.04862,-2.381699251,0.04862,71.98976795,
0.04864,-3.843420428,0.04864,71.98976795,
0.04866,-1.650838663,0.04866,70.52804678,
0.04868,-2.381699251,0.04868,71.25890736,
0.0487,-3.112559839,0.0487,71.62433766,
0.04872,-0.55454778,0.04872,71.98976795,
0.04874,-0.1891174858,0.04874,72.72062854,
0.04876,-0.55454778,0.04876,71.62433766,
0.04878,0.9071733967,0.04878,72.35519825,
0.0488,-0.9199780742,0.0488,71.62433766,
0.04882,-0.9199780742,0.04882,71.62433766,
0.04884,-0.9199780742,0.04884,72.35519825,
0.04886,-1.285408368,0.04886,71.98976795,
0.04888,-0.9199780742,0.04888,71.62433766,
0.0489,-0.9199780742,0.0489,72.35519825,
0.04892,-0.55454778,0.04892,71.98976795,
0.04894,-0.55454778,0.04894,71.62433766,
0.04896,0.1763128083,0.04896,71.98976795,
0.04898,0.5417431025,0.04898,72.35519825,
0.049,1.272603691,0.049,71.62433766,
0.04902,0.5417431025,0.04902,72.35519825,
0.04904,0.9071733967,0.04904,71.98976795,
0.04906,-0.9199780742,0.04906,71.25890736,
0.04908,0.1763128083,0.04908,71.98976795,
0.0491,1.272603691,0.0491,72.35519825,
0.04912,0.1763128083,0.04912,71.25890736,
0.04914,0.5417431025,0.04914,72.35519825,
0.04916,0.9071733967,0.04916,71.98976795,
0.04918,0.1763128083,0.04918,71.62433766,
0.0492,0.9071733967,0.0492,71.98976795,
0.04922,0.5417431025,0.04922,71.98976795,
0.04924,1.272603691,0.04924,71.62433766,
0.04926,1.272603691,0.04926,71.98976795,
0.04928,0.5417431025,0.04928,71.98976795,
0.0493,1.272603691,0.0493,71.62433766,
0.04932,0.5417431025,0.04932,71.62433766,
0.04934,0.1763128083,0.04934,72.35519825,
0.04936,0.5417431025,0.04936,71.62433766,
0.04938,-0.55454778,0.04938,71.98976795,
0.0494,-0.1891174858,0.0494,71.98976795,
0.04942,-0.9199780742,0.04942,71.62433766,
0.04944,-0.1891174858,0.04944,71.98976795,
0.04946,0.9071733967,0.04946,72.72062854,
0.04948,0.5417431025,0.04948,71.98976795,
0.0495,1.638033985,0.0495,72.35519825,
0.04952,0.5417431025,0.04952,72.72062854,
0.04954,-0.9199780742,0.04954,70.52804678,
0.04956,-2.016268957,0.04956,70.89347707,
0.04958,-0.9199780742,0.04958,71.62433766,
0.0496,-2.016268957,0.0496,71.98976795,
0.04962,-0.1891174858,0.04962,71.62433766,
0.04964,-2.747129545,0.04964,72.35519825,
0.04966,-2.381699251,0.04966,71.62433766,
0.04968,-0.9199780742,0.04968,72.35519825,
0.0497,-0.9199780742,0.0497,71.62433766,
0.04972,-0.9199780742,0.04972,71.25890736,
0.04974,0.5417431025,0.04974,72.35519825,
0.04976,0.1763128083,0.04976,71.98976795,
0.04978,-1.285408368,0.04978,72.35519825,
0.0498,-0.55454778,0.0498,72.35519825,
0.04982,-1.650838663,0.04982,71.98976795,
0.04984,-0.9199780742,0.04984,70.89347707,
0.04986,-2.016268957,0.04986,71.98976795,
0.04988,-1.285408368,0.04988,71.98976795,
0.0499,-1.285408368,0.0499,71.62433766,
0.04992,-0.1891174858,0.04992,71.98976795,
0.04994,0.9071733967,0.04994,71.98976795,
0.04996,0.9071733967,0.04996,71.62433766,
0.04998,1.638033985,0.04998,72.35519825,
0.05,1.638033985,0.05,71.98976795,
0.05002,-0.9199780742,0.05002,72.35519825,
0.05004,0.5417431025,0.05004,72.35519825,
0.05006,0.9071733967,0.05006,71.98976795,
0.05008,-0.9199780742,0.05008,71.98976795,
0.0501,0.5417431025,0.0501,71.98976795,
0.05012,0.1763128083,0.05012,72.35519825,
0.05014,-1.650838663,0.05014,71.98976795,
0.05016,0.9071733967,0.05016,71.98976795,
0.05018,0.9071733967,0.05018,72.35519825,
0.0502,-0.1891174858,0.0502,71.25890736,
0.05022,1.272603691,0.05022,72.35519825,
0.05024,0.9071733967,0.05024,72.35519825,
0.05026,1.638033985,0.05026,71.62433766,
0.05028,2.003464279,0.05028,71.98976795,
0.0503,1.638033985,0.0503,71.98976795,
0.05032,-0.1891174858,0.05032,71.25890736,
0.05034,1.638033985,0.05034,71.62433766,
0.05036,0.5417431025,0.05036,71.62433766,
0.05038,-1.285408368,0.05038,71.25890736,
0.0504,-1.650838663,0.0504,72.35519825,
0.05042,-0.55454778,0.05042,71.98976795,
0.05044,-0.1891174858,0.05044,72.72062854,
0.05046,0.5417431025,0.05046,71.25890736,
0.05048,-0.1891174858,0.05048,72.35519825,
0.0505,-0.9199780742,0.0505,72.72062854,
0.05052,0.9071733967,0.05052,71.98976795,
0.05054,-0.9199780742,0.05054,70.89347707,
0.05056,-0.55454778,0.05056,73.45148913,
0.05058,-2.381699251,0.05058,71.25890736,
0.0506,-4.208850722,0.0506,71.98976795,
0.05062,-5.305141604,0.05062,73.08605883,
0.05064,-3.112559839,0.05064,71.98976795,
0.05066,-2.747129545,0.05066,70.89347707,
0.05068,-1.650838663,0.05068,72.72062854,
0.0507,-0.1891174858,0.0507,71.25890736,
0.05072,0.1763128083,0.05072,72.72062854,
0.05074,0.9071733967,0.05074,71.62433766,
0.05076,-1.285408368,0.05076,72.35519825,
0.05078,-1.285408368,0.05078,72.35519825,
0.0508,-1.285408368,0.0508,71.98976795,
0.05082,-2.016268957,0.05082,71.62433766,
0.05084,-1.650838663,0.05084,71.98976795,
0.05086,-2.381699251,0.05086,72.35519825,
0.05088,-0.55454778,0.05088,71.62433766,
0.0509,-0.1891174858,0.0509,72.35519825,
0.05092,0.1763128083,0.05092,72.35519825,
0.05094,0.9071733967,0.05094,72.35519825,
0.05096,2.003464279,0.05096,71.98976795,
0.05098,-0.1891174858,0.05098,71.62433766,
0.051,-0.1891174858,0.051,71.98976795,
0.05102,0.5417431025,0.05102,72.35519825,
0.05104,-0.1891174858,0.05104,71.98976795,
0.05106,-0.1891174858,0.05106,71.62433766,
0.05108,-0.55454778,0.05108,71.98976795,
0.0511,-0.1891174858,0.0511,72.35519825,
0.05112,-0.9199780742,0.05112,72.35519825,
0.05114,-0.9199780742,0.05114,71.98976795,
0.05116,1.638033985,0.05116,72.35519825,
0.05118,0.5417431025,0.05118,71.98976795,
0.0512,2.003464279,0.0512,71.62433766,
0.05122,1.638033985,0.05122,72.72062854,
0.05124,1.638033985,0.05124,71.98976795,
0.05126,1.272603691,0.05126,71.25890736,
0.05128,0.5417431025,0.05128,72.72062854,
0.0513,-0.9199780742,0.0513,71.98976795,
0.05132,-0.1891174858,0.05132,71.62433766,
0.05134,-0.9199780742,0.05134,72.35519825,
0.05136,-2.016268957,0.05136,71.98976795,
0.05138,-0.1891174858,0.05138,71.62433766,
0.0514,-0.1891174858,0.0514,72.35519825,
0.05142,0.1763128083,0.05142,71.62433766,
0.05144,-0.1891174858,0.05144,70.89347707,
0.05146,0.5417431025,0.05146,71.98976795,
0.05148,0.5417431025,0.05148,71.62433766,
0.0515,-2.747129545,0.0515,71.98976795,
0.05152,-1.650838663,0.05152,71.25890736,
0.05154,-2.016268957,0.05154,71.98976795,
0.05156,-3.112559839,0.05156,71.98976795,
0.05158,-2.747129545,0.05158,71.98976795,
0.0516,-2.381699251,0.0516,71.98976795,
0.05162,-3.112559839,0.05162,71.25890736,
0.05164,-1.650838663,0.05164,72.35519825,
0.05166,-0.55454778,0.05166,72.35519825,
0.05168,0.5417431025,0.05168,71.98976795,
0.0517,-0.1891174858,0.0517,72.72062854,
0.05172,-0.55454778,0.05172,71.98976795,
0.05174,-0.1891174858,0.05174,71.62433766,
0.05176,0.1763128083,0.05176,71.98976795,
0.05178,-2.016268957,0.05178,71.98976795,
0.0518,-1.650838663,0.0518,71.98976795,
0.05182,-1.285408368,0.05182,72.35519825,
0.05184,-1.650838663,0.05184,72.35519825,
0.05186,-1.650838663,0.05186,71.62433766,
0.05188,-0.55454778,0.05188,72.72062854,
0.0519,0.5417431025,0.0519,72.35519825,
0.05192,0.1763128083,0.05192,72.35519825,
0.05194,1.272603691,0.05194,73.08605883,
0.05196,-0.55454778,0.05196,71.98976795,
0.05198,0.5417431025,0.05198,71.62433766,
0.052,0.1763128083,0.052,72.72062854,
0.05202,-0.1891174858,0.05202,71.98976795,
0.05204,0.5417431025,0.05204,71.98976795,
0.05206,0.5417431025,0.05206,72.72062854,
0.05208,-1.650838663,0.05208,72.35519825,
0.0521,-0.9199780742,0.0521,71.98976795,
0.05212,0.9071733967,0.05212,72.35519825,
0.05214,0.1763128083,0.05214,71.98976795,
0.05216,0.5417431025,0.05216,71.62433766,
0.05218,0.9071733967,0.05218,72.35519825,
0.0522,0.9071733967,0.0522,71.62433766,
0.05222,1.272603691,0.05222,71.62433766,
0.05224,0.5417431025,0.05224,72.72062854,
0.05226,-0.1891174858,0.05226,72.35519825,
0.05228,0.5417431025,0.05228,71.62433766,
0.0523,-0.1891174858,0.0523,72.72062854,
0.05232,-0.9199780742,0.05232,72.35519825,
0.05234,-0.55454778,0.05234,72.35519825,
0.05236,-0.9199780742,0.05236,72.35519825,
0.05238,-0.55454778,0.05238,72.35519825,
0.0524,0.1763128083,0.0524,72.35519825,
0.05242,-0.1891174858,0.05242,71.98976795,
0.05244,0.5417431025,0.05244,71.98976795,
0.05246,0.1763128083,0.05246,72.72062854,
0.05248,-2.381699251,0.05248,71.62433766,
0.0525,-1.285408368,0.0525,71.98976795,
0.05252,-3.112559839,0.05252,72.35519825,
0.05254,-2.747129545,0.05254,71.62433766,
0.05256,-3.112559839,0.05256,72.35519825,
0.05258,-2.747129545,0.05258,72.35519825,
0.0526,-1.285408368,0.0526,70.89347707,
0.05262,-2.747129545,0.05262,71.98976795,
0.05264,-1.650838663,0.05264,72.35519825,
0.05266,-0.9199780742,0.05266,72.35519825,
0.05268,0.9071733967,0.05268,72.35519825,
0.0527,-1.650838663,0.0527,71.98976795,
0.05272,-0.55454778,0.05272,72.35519825,
0.05274,-1.650838663,0.05274,71.62433766,
0.05276,-2.381699251,0.05276,71.98976795,
0.05278,-2.016268957,0.05278,71.98976795,
0.0528,-0.9199780742,0.0528,71.98976795,
0.05282,-0.55454778,0.05282,72.35519825,
0.05284,-0.55454778,0.05284,71.98976795,
0.05286,0.9071733967,0.05286,71.62433766,
0.05288,-0.1891174858,0.05288,72.35519825,
0.0529,0.5417431025,0.0529,72.35519825,
0.05292,1.638033985,0.05292,72.35519825,
0.05294,0.1763128083,0.05294,71.98976795,
0.05296,0.1763128083,0.05296,72.35519825,
0.05298,0.5417431025,0.05298,71.98976795,
0.053,-0.1891174858,0.053,72.72062854,
0.05302,-0.1891174858,0.05302,71.98976795,
0.05304,0.9071733967,0.05304,71.98976795,
0.05306,1.272603691,0.05306,72.72062854,
0.05308,0.1763128083,0.05308,72.35519825,
0.0531,-0.1891174858,0.0531,71.98976795,
0.05312,0.5417431025,0.05312,72.35519825,
0.05314,0.9071733967,0.05314,71.98976795,
0.05316,1.272603691,0.05316,71.98976795,
0.05318,2.368894573,0.05318,72.35519825,
0.0532,1.272603691,0.0532,72.35519825,
0.05322,1.638033985,0.05322,71.62433766,
0.05324,1.272603691,0.05324,72.35519825,
0.05326,0.1763128083,0.05326,71.98976795,
0.05328,0.1763128083,0.05328,71.62433766,
0.0533,-0.1891174858,0.0533,72.72062854,
0.05332,-2.747129545,0.05332,71.98976795,
0.05334,-1.285408368,0.05334,71.98976795,
0.05336,0.5417431025,0.05336,72.35519825,
0.05338,0.1763128083,0.05338,72.35519825,
0.0534,0.9071733967,0.0534,71.98976795,
0.05342,1.638033985,0.05342,72.35519825,
0.05344,0.5417431025,0.05344,71.62433766,
0.05346,-1.650838663,0.05346,72.72062854,
0.05348,-2.381699251,0.05348,72.72062854,
0.0535,-0.55454778,0.0535,71.25890736,
0.05352,-2.747129545,0.05352,71.98976795,
0.05354,-1.285408368,0.05354,73.08605883,
0.05356,-2.381699251,0.05356,71.62433766,
0.05358,-1.285408368,0.05358,71.62433766,
0.0536,-1.285408368,0.0536,72.35519825,
0.05362,-1.650838663,0.05362,71.62433766,
0.05364,0.9071733967,0.05364,71.98976795,
0.05366,0.5417431025,0.05366,71.62433766,
0.05368,0.5417431025,0.05368,72.35519825,
0.0537,-1.285408368,0.0537,71.98976795,
0.05372,-2.016268957,0.05372,72.35519825,
0.05374,-2.016268957,0.05374,72.35519825,
0.05376,-0.55454778,0.05376,71.62433766,
0.05378,-2.747129545,0.05378,72.35519825,
0.0538,-2.016268957,0.0538,71.98976795,
0.05382,-1.285408368,0.05382,71.98976795,
0.05384,-0.55454778,0.05384,72.35519825,
0.05386,-0.55454778,0.05386,72.35519825,
0.05388,1.272603691,0.05388,71.62433766,
0.0539,0.9071733967,0.0539,71.98976795,
0.05392,-0.1891174858,0.05392,71.98976795,
0.05394,1.272603691,0.05394,71.62433766,
0.05396,0.9071733967,0.05396,72.72062854,
0.05398,0.5417431025,0.05398,72.35519825,
0.054,0.5417431025,0.054,71.98976795,
0.05402,0.9071733967,0.05402,71.98976795,
0.05404,-0.1891174858,0.05404,72.35519825,
0.05406,-0.9199780742,0.05406,71.98976795,
0.05408,1.638033985,0.05408,72.35519825,
0.0541,0.1763128083,0.0541,72.35519825,
0.05412,1.638033985,0.05412,71.98976795,
0.05414,1.638033985,0.05414,71.98976795,
0.05416,0.9071733967,0.05416,71.98976795,
0.05418,1.638033985,0.05418,71.62433766,
0.0542,1.272603691,0.0542,71.98976795,
0.05422,1.272603691,0.05422,71.98976795,
0.05424,0.1763128083,0.05424,71.98976795,
0.05426,-0.55454778,0.05426,71.62433766,
0.05428,-0.55454778,0.05428,72.35519825,
0.0543,-0.9199780742,0.0543,71.62433766,
0.05432,-0.9199780742,0.05432,71.62433766,
0.05434,-0.9199780742,0.05434,71.98976795,
0.05436,-0.9199780742,0.05436,71.62433766,
0.05438,-0.55454778,0.05438,71.98976795,
0.0544,0.9071733967,0.0544,71.98976795,
0.05442,-0.55454778,0.05442,71.98976795,
0.05444,-2.016268957,0.05444,71.25890736,
0.05446,-1.650838663,0.05446,71.62433766,
0.05448,-0.1891174858,0.05448,70.89347707,
0.0545,-4.574281016,0.0545,71.98976795,
0.05452,-2.747129545,0.05452,71.98976795,
0.05454,-2.747129545,0.05454,72.35519825,
0.05456,-3.112559839,0.05456,72.35519825,
0.05458,-0.55454778,0.05458,71.62433766,
0.0546,-0.9199780742,0.0546,71.98976795,
0.05462,-0.9199780742,0.05462,71.62433766,
0.05464,0.1763128083,0.05464,71.62433766,
0.05466,0.1763128083,0.05466,71.62433766,
0.05468,-0.9199780742,0.05468,71.62433766,
0.0547,-0.1891174858,0.0547,71.98976795,
0.05472,-1.650838663,0.05472,72.35519825,
0.05474,-2.381699251,0.05474,71.62433766,
0.05476,-0.1891174858,0.05476,72.35519825,
0.05478,-1.285408368,0.05478,71.98976795,
0.0548,-1.285408368,0.0548,71.62433766,
0.05482,-0.1891174858,0.05482,71.98976795,
0.05484,1.272603691,0.05484,72.35519825,
0.05486,1.272603691,0.05486,71.62433766,
0.05488,2.368894573,0.05488,72.35519825,
0.0549,0.1763128083,0.0549,71.98976795,
0.05492,0.1763128083,0.05492,71.62433766,
0.05494,2.368894573,0.05494,71.98976795,
0.05496,0.1763128083,0.05496,71.98976795,
0.05498,-0.9199780742,0.05498,71.62433766,
0.055,0.9071733967,0.055,71.98976795,
0.05502,-0.1891174858,0.05502,72.35519825,
0.05504,-0.55454778,0.05504,71.25890736,
0.05506,1.272603691,0.05506,71.98976795,
0.05508,0.5417431025,0.05508,71.98976795,
0.0551,2.003464279,0.0551,71.62433766,
0.05512,0.9071733967,0.05512,71.98976795,
0.05514,1.638033985,0.05514,71.98976795,
0.05516,0.1763128083,0.05516,71.25890736,
0.05518,-0.9199780742,0.05518,71.98976795,
0.0552,0.1763128083,0.0552,71.98976795,
0.05522,-0.1891174858,0.05522,71.25890736,
0.05524,-0.1891174858,0.05524,71.98976795,
0.05526,-1.285408368,0.05526,71.98976795,
0.05528,-0.55454778,0.05528,71.25890736,
0.0553,-1.285408368,0.0553,72.35519825,
0.05532,-0.1891174858,0.05532,71.98976795,
0.05534,0.1763128083,0.05534,71.25890736,
0.05536,2.003464279,0.05536,72.35519825,
0.05538,0.5417431025,0.05538,72.35519825,
0.0554,-1.285408368,0.0554,71.98976795,
0.05542,-0.1891174858,0.05542,72.35519825,
0.05544,-0.9199780742,0.05544,72.72062854,
0.05546,-3.112559839,0.05546,71.98976795,
0.05548,-3.112559839,0.05548,71.25890736,
0.0555,-2.016268957,0.0555,71.62433766,
0.05552,-2.016268957,0.05552,71.98976795,
0.05554,-0.9199780742,0.05554,70.89347707,
0.05556,-0.9199780742,0.05556,71.98976795,
0.05558,-0.55454778,0.05558,71.98976795,
0.0556,-0.9199780742,0.0556,71.25890736,
0.05562,-0.1891174858,0.05562,72.35519825,
0.05564,-0.55454778,0.05564,71.62433766,
0.05566,-0.1891174858,0.05566,71.62433766,
0.05568,-1.285408368,0.05568,71.98976795,
0.0557,-1.650838663,0.0557,71.25890736,
0.05572,-2.016268957,0.05572,71.62433766,
0.05574,-0.9199780742,0.05574,71.98976795,
0.05576,-0.9199780742,0.05576,71.62433766,
0.05578,-0.1891174858,0.05578,71.62433766,
0.0558,0.1763128083,0.0558,71.98976795,
0.05582,0.5417431025,0.05582,71.98976795,
0.05584,0.1763128083,0.05584,71.98976795,
0.05586,0.9071733967,0.05586,71.98976795,
0.05588,1.638033985,0.05588,71.98976795,
0.0559,-0.55454778,0.0559,72.35519825,
0.05592,0.5417431025,0.05592,71.98976795,
0.05594,0.5417431025,0.05594,71.98976795,
0.05596,0.9071733967,0.05596,72.35519825,
0.05598,0.9071733967,0.05598,72.35519825,
0.056,0.1763128083,0.056,72.35519825,
0.05602,0.1763128083,0.05602,72.72062854,
0.05604,0.9071733967,0.05604,71.98976795,
0.05606,0.9071733967,0.05606,71.98976795,
0.05608,1.638033985,0.05608,72.35519825,
0.0561,0.5417431025,0.0561,72.35519825,
0.05612,1.272603691,0.05612,72.35519825,
0.05614,2.003464279,0.05614,72.35519825,
0.05616,0.9071733967,0.05616,72.35519825,
0.05618,1.638033985,0.05618,71.25890736,
0.0562,-0.55454778,0.0562,71.98976795,
0.05622,0.9071733967,0.05622,71.62433766,
0.05624,0.5417431025,0.05624,72.35519825,
0.05626,-0.1891174858,0.05626,72.35519825,
0.05628,-0.55454778,0.05628,71.25890736,
0.0563,-0.1891174858,0.0563,71.98976795,
0.05632,1.638033985,0.05632,71.98976795,
0.05634,1.272603691,0.05634,71.62433766,
0.05636,0.1763128083,0.05636,71.98976795,
0.05638,-1.285408368,0.05638,71.98976795,
0.0564,-1.285408368,0.0564,71.98976795,
0.05642,-0.55454778,0.05642,71.98976795,
0.05644,-3.843420428,0.05644,70.89347707,
0.05646,-0.1891174858,0.05646,70.89347707,
0.05648,-2.016268957,0.05648,72.35519825,
0.0565,-3.477990133,0.0565,71.98976795,
0.05652,-2.747129545,0.05652,71.62433766,
0.05654,0.1763128083,0.05654,71.98976795,
0.05656,-0.9199780742,0.05656,72.72062854,
0.05658,-0.55454778,0.05658,71.98976795,
0.0566,0.1763128083,0.0566,72.35519825,
0.05662,-2.016268957,0.05662,71.62433766,
0.05664,-2.016268957,0.05664,71.25890736,
0.05666,-0.9199780742,0.05666,71.98976795,
0.05668,-0.9199780742,0.05668,71.98976795,
0.0567,-1.650838663,0.0567,71.62433766,
0.05672,-0.9199780742,0.05672,71.98976795,
0.05674,-0.55454778,0.05674,71.98976795,
0.05676,-0.55454778,0.05676,71.62433766,
0.05678,1.272603691,0.05678,71.98976795,
0.0568,0.1763128083,0.0568,72.35519825,
0.05682,0.9071733967,0.05682,71.62433766,
0.05684,-0.55454778,0.05684,71.98976795,
0.05686,1.272603691,0.05686,71.98976795,
0.05688,0.5417431025,0.05688,71.62433766,
0.0569,1.272603691,0.0569,71.62433766,
0.05692,0.1763128083,0.05692,71.98976795,
0.05694,0.1763128083,0.05694,71.25890736,
0.05696,1.272603691,0.05696,72.35519825,
0.05698,0.9071733967,0.05698,71.98976795,
0.057,0.9071733967,0.057,71.25890736,
0.05702,0.5417431025,0.05702,71.98976795,
0.05704,0.9071733967,0.05704,71.98976795,
0.05706,2.368894573,0.05706,71.25890736,
0.05708,1.638033985,0.05708,72.35519825,
0.0571,0.9071733967,0.0571,71.98976795,
0.05712,1.272603691,0.05712,71.98976795,
0.05714,1.638033985,0.05714,71.62433766,
0.05716,0.5417431025,0.05716,72.35519825,
0.05718,0.5417431025,0.05718,71.98976795,
0.0572,-0.1891174858,0.0572,71.98976795,
0.05722,-0.9199780742,0.05722,72.35519825,
0.05724,0.1763128083,0.05724,71.98976795,
0.05726,0.5417431025,0.05726,71.98976795,
0.05728,0.5417431025,0.05728,72.35519825,
0.0573,-0.1891174858,0.0573,72.35519825,
0.05732,0.1763128083,0.05732,72.35519825,
0.05734,0.1763128083,0.05734,72.72062854,
0.05736,-1.285408368,0.05736,71.98976795,
0.05738,1.272603691,0.05738,71.98976795,
0.0574,-0.1891174858,0.0574,71.98976795,
0.05742,-0.55454778,0.05742,72.72062854,
0.05744,-2.381699251,0.05744,72.72062854,
0.05746,-2.747129545,0.05746,72.35519825,
0.05748,-0.55454778,0.05748,72.72062854,
0.0575,-1.285408368,0.0575,71.98976795,
0.05752,-0.1891174858,0.05752,71.62433766,
0.05754,-0.1891174858,0.05754,71.98976795,
0.05756,-1.285408368,0.05756,72.35519825,
0.05758,-0.55454778,0.05758,71.98976795,
0.0576,0.5417431025,0.0576,72.35519825,
0.05762,-0.9199780742,0.05762,71.62433766,
0.05764,-0.55454778,0.05764,72.35519825,
0.05766,-0.55454778,0.05766,71.98976795,
0.05768,-0.9199780742,0.05768,72.35519825,
0.0577,-1.285408368,0.0577,71.98976795,
0.05772,-0.1891174858,0.05772,72.35519825,
0.05774,0.9071733967,0.05774,72.35519825,
0.05776,0.9071733967,0.05776,71.98976795,
0.05778,2.003464279,0.05778,72.35519825,
