"A0_accX_x","A0_accX_y","A1_rmsX_x","A1_rmsX_y"
0,-1.683266947,0,71.62433766,
2e-05,0.143884524,2e-05,72.35519825,
4e-05,1.240175407,4e-05,72.35519825,
6e-05,0.5093148182,6e-05,72.35519825,
8e-05,0.8747451124,8e-05,71.62433766,
0.0001,1.971035995,0.0001,71.98976795,
0.00012,0.143884524,0.00012,72.35519825,
0.00014,0.8747451124,0.00014,71.98976795,
0.00016,-0.5869760643,0.00016,72.35519825,
0.00018,-0.2215457701,0.00018,71.98976795,
0.0002,0.143884524,0.0002,71.98976795,
0.00022,0.143884524,0.00022,72.35519825,
0.00024,-0.2215457701,0.00024,72.35519825,
0.00026,0.8747451124,0.00026,71.62433766,
0.00028,0.143884524,0.00028,72.72062854,
0.0003,0.5093148182,0.0003,71.98976795,
0.00032,0.8747451124,0.00032,71.98976795,
0.00034,1.971035995,0.00034,72.72062854,
0.00036,0.8747451124,0.00036,71.98976795,
0.00038,2.701896583,0.00038,71.98976795,
0.0004,1.971035995,0.0004,72.35519825,
0.00042,0.143884524,0.00042,72.35519825,
0.00044,-0.5869760643,0.00044,71.62433766,
0.00046,-0.5869760643,0.00046,72.72062854,
0.00048,-0.9524063585,0.00048,71.62433766,
0.0005,-0.9524063585,0.0005,71.98976795,
0.00052,0.5093148182,0.00052,72.72062854,
0.00054,0.143884524,0.00054,71.98976795,
0.00056,-0.5869760643,0.00056,71.98976795,
0.00058,1.240175407,0.00058,72.35519825,
0.0006,0.143884524,0.0006,71.62433766,
0.00062,1.605605701,0.00062,71.98976795,
0.00064,-0.9524063585,0.00064,72.72062854,
0.00066,-0.2215457701,0.00066,71.98976795,
0.00068,-2.048697241,0.00068,71.62433766,
0.0007,-3.510418418,0.0007,72.35519825,
0.00072,-2.048697241,0.00072,72.72062854,
0.00074,-2.048697241,0.00074,71.62433766,
0.00076,-2.048697241,0.00076,72.72062854,
0.00078,-0.9524063585,0.00078,71.25890736,
0.0008,-0.2215457701,0.0008,71.98976795,
0.00082,-0.9524063585,0.00082,72.35519825,
0.00084,-0.2215457701,0.00084,72.72062854,
0.00086,0.8747451124,0.00086,71.62433766,
0.00088,-0.9524063585,0.00088,72.35519825,
0.0009,-1.683266947,0.0009,72.35519825,
0.00092,-1.317836653,0.00092,72.35519825,
0.00094,-0.2215457701,0.00094,72.35519825,
0.00096,-1.317836653,0.00096,71.98976795,
0.00098,-0.2215457701,0.00098,71.98976795,
0.001,0.143884524,0.001,72.35519825,
0.00102,-0.5869760643,0.00102,71.98976795,
0.00104,0.5093148182,0.00104,71.62433766,
0.00106,1.605605701,0.00106,71.98976795,
0.00108,0.8747451124,0.00108,71.98976795,
0.0011,2.336466289,0.0011,71.62433766,
0.00112,1.240175407,0.00112,72.35519825,
0.00114,0.5093148182,0.00114,71.62433766,
0.00116,-0.2215457701,0.00116,71.98976795,
0.00118,1.240175407,0.00118,72.72062854,
0.0012,-0.2215457701,0.0012,71.62433766,
0.00122,-0.2215457701,0.00122,71.98976795,
0.00124,0.143884524,0.00124,72.35519825,
0.00126,0.8747451124,0.00126,72.35519825,
0.00128,0.5093148182,0.00128,71.62433766,
0.0013,1.605605701,0.0013,72.35519825,
0.00132,1.971035995,0.00132,71.98976795,
0.00134,0.5093148182,0.00134,71.62433766,
0.00136,0.5093148182,0.00136,72.35519825,
0.00138,1.605605701,0.00138,72.35519825,
0.0014,1.240175407,0.0014,71.98976795,
0.00142,0.5093148182,0.00142,72.35519825,
0.00144,-0.5869760643,0.00144,71.98976795,
0.00146,-0.5869760643,0.00146,71.62433766,
0.00148,-0.9524063585,0.00148,72.35519825,
0.0015,-0.5869760643,0.0015,71.98976795,
0.00152,-0.5869760643,0.00152,71.98976795,
0.00154,0.5093148182,0.00154,71.98976795,
0.00156,-0.2215457701,0.00156,71.25890736,
0.00158,-0.5869760643,0.00158,71.98976795,
0.0016,0.143884524,0.0016,72.35519825,
0.00162,-0.5869760643,0.00162,71.98976795,
0.00164,-3.144988124,0.00164,71.25890736,
0.00166,-0.5869760643,0.00166,72.35519825,
0.00168,-2.048697241,0.00168,71.98976795,
0.0017,-3.510418418,0.0017,72.35519825,
0.00172,-1.683266947,0.00172,71.98976795,
0.00174,-2.048697241,0.00174,71.62433766,
0.00176,-1.317836653,0.00176,71.62433766,
0.00178,-1.317836653,0.00178,72.72062854,
0.0018,-1.683266947,0.0018,71.62433766,
0.00182,1.240175407,0.00182,71.62433766,
0.00184,-0.5869760643,0.00184,71.98976795,
0.00186,0.143884524,0.00186,72.35519825,
0.00188,-0.5869760643,0.00188,72.35519825,
0.0019,-2.048697241,0.0019,72.35519825,
0.00192,-0.9524063585,0.00192,72.35519825,
0.00194,-1.317836653,0.00194,72.72062854,
0.00196,-0.9524063585,0.00196,72.35519825,
0.00198,0.143884524,0.00198,71.98976795,
0.002,0.8747451124,0.002,72.35519825,
0.00202,-0.2215457701,0.00202,72.35519825,
0.00204,1.971035995,0.00204,71.98976795,
0.00206,1.605605701,0.00206,72.72062854,
0.00208,0.8747451124,0.00208,71.98976795,
0.0021,1.605605701,0.0021,71.98976795,
0.00212,0.8747451124,0.00212,72.72062854,
0.00214,0.143884524,0.00214,72.35519825,
0.00216,0.5093148182,0.00216,71.98976795,
0.00218,-0.2215457701,0.00218,72.72062854,
0.0022,-1.317836653,0.0022,72.35519825,
0.00222,0.8747451124,0.00222,71.98976795,
0.00224,0.5093148182,0.00224,72.72062854,
0.00226,1.240175407,0.00226,72.35519825,
0.00228,1.605605701,0.00228,71.98976795,
0.0023,1.240175407,0.0023,72.35519825,
0.00232,0.5093148182,0.00232,72.35519825,
0.00234,1.971035995,0.00234,72.35519825,
0.00236,1.605605701,0.00236,72.72062854,
0.00238,1.240175407,0.00238,72.35519825,
0.0024,0.5093148182,0.0024,71.98976795,
0.00242,-0.2215457701,0.00242,71.98976795,
0.00244,-0.9524063585,0.00244,71.98976795,
0.00246,-0.9524063585,0.00246,72.35519825,
0.00248,0.5093148182,0.00248,72.35519825,
0.0025,0.8747451124,0.0025,72.72062854,
0.00252,0.5093148182,0.00252,71.98976795,
0.00254,0.5093148182,0.00254,72.72062854,
0.00256,-0.2215457701,0.00256,71.98976795,
0.00258,0.8747451124,0.00258,72.35519825,
0.0026,0.5093148182,0.0026,71.62433766,
0.00262,-1.317836653,0.00262,72.35519825,
0.00264,-0.5869760643,0.00264,71.62433766,
0.00266,-1.683266947,0.00266,72.35519825,
0.00268,-2.414127535,0.00268,72.72062854,
0.0027,-2.048697241,0.0027,71.98976795,
0.00272,-1.317836653,0.00272,72.72062854,
0.00274,-1.683266947,0.00274,72.35519825,
0.00276,0.5093148182,0.00276,71.25890736,
0.00278,-0.5869760643,0.00278,72.35519825,
0.0028,-0.5869760643,0.0028,72.35519825,
0.00282,0.143884524,0.00282,72.72062854,
0.00284,-0.9524063585,0.00284,72.35519825,
0.00286,-1.683266947,0.00286,71.98976795,
0.00288,-0.5869760643,0.00288,71.62433766,
0.0029,-0.5869760643,0.0029,72.72062854,
0.00292,-1.317836653,0.00292,71.98976795,
0.00294,0.143884524,0.00294,71.98976795,
0.00296,-0.5869760643,0.00296,72.35519825,
0.00298,-0.5869760643,0.00298,71.98976795,
0.003,0.143884524,0.003,71.98976795,
0.00302,1.971035995,0.00302,72.35519825,
0.00304,1.605605701,0.00304,72.72062854,
0.00306,1.605605701,0.00306,72.35519825,
0.00308,1.971035995,0.00308,71.98976795,
0.0031,0.5093148182,0.0031,71.98976795,
0.00312,0.143884524,0.00312,71.98976795,
0.00314,-0.2215457701,0.00314,71.98976795,
0.00316,-0.5869760643,0.00316,72.35519825,
0.00318,0.143884524,0.00318,72.35519825,
0.0032,-0.5869760643,0.0032,71.98976795,
0.00322,0.8747451124,0.00322,72.35519825,
0.00324,1.971035995,0.00324,71.98976795,
0.00326,2.336466289,0.00326,71.98976795,
0.00328,1.240175407,0.00328,72.35519825,
0.0033,1.971035995,0.0033,72.35519825,
0.00332,1.240175407,0.00332,71.98976795,
0.00334,1.240175407,0.00334,72.35519825,
0.00336,-0.9524063585,0.00336,71.98976795,
0.00338,0.143884524,0.00338,72.35519825,
0.0034,-0.9524063585,0.0034,71.98976795,
0.00342,-0.9524063585,0.00342,72.35519825,
0.00344,-0.5869760643,0.00344,71.98976795,
0.00346,-0.5869760643,0.00346,71.62433766,
0.00348,-0.2215457701,0.00348,72.35519825,
0.0035,0.143884524,0.0035,72.35519825,
0.00352,-0.5869760643,0.00352,72.35519825,
0.00354,-0.5869760643,0.00354,72.72062854,
0.00356,-0.5869760643,0.00356,72.72062854,
0.00358,-0.2215457701,0.00358,71.62433766,
0.0036,-1.683266947,0.0036,72.35519825,
0.00362,-2.414127535,0.00362,72.35519825,
0.00364,-2.048697241,0.00364,70.89347707,
0.00366,-2.779557829,0.00366,72.35519825,
0.00368,-3.875848712,0.00368,71.98976795,
0.0037,-0.2215457701,0.0037,71.98976795,
0.00372,0.5093148182,0.00372,72.72062854,
0.00374,-1.317836653,0.00374,72.35519825,
0.00376,-0.5869760643,0.00376,71.98976795,
0.00378,0.143884524,0.00378,72.72062854,
0.0038,-1.683266947,0.0038,71.98976795,
0.00382,-1.317836653,0.00382,71.62433766,
0.00384,-2.779557829,0.00384,72.72062854,
0.00386,-1.683266947,0.00386,71.98976795,
0.00388,-1.683266947,0.00388,71.62433766,
0.0039,0.143884524,0.0039,72.35519825,
0.00392,-0.9524063585,0.00392,71.98976795,
0.00394,-0.5869760643,0.00394,71.98976795,
0.00396,1.605605701,0.00396,72.35519825,
0.00398,0.5093148182,0.00398,72.35519825,
0.004,0.5093148182,0.004,71.62433766,
0.00402,1.240175407,0.00402,72.72062854,
0.00404,0.8747451124,0.00404,71.98976795,
0.00406,0.143884524,0.00406,71.62433766,
0.00408,-0.9524063585,0.00408,72.72062854,
0.0041,0.143884524,0.0041,71.62433766,
0.00412,0.143884524,0.00412,72.35519825,
0.00414,0.5093148182,0.00414,72.35519825,
0.00416,-0.2215457701,0.00416,71.98976795,
0.00418,-0.2215457701,0.00418,71.62433766,
0.0042,0.8747451124,0.0042,72.35519825,
0.00422,0.5093148182,0.00422,71.98976795,
0.00424,1.240175407,0.00424,71.62433766,
0.00426,1.971035995,0.00426,72.35519825,
0.00428,1.971035995,0.00428,71.62433766,
0.0043,1.240175407,0.0043,71.98976795,
0.00432,0.8747451124,0.00432,72.72062854,
0.00434,0.143884524,0.00434,72.35519825,
0.00436,-0.2215457701,0.00436,71.98976795,
0.00438,-1.317836653,0.00438,71.98976795,
0.0044,-0.9524063585,0.0044,71.98976795,
0.00442,-0.5869760643,0.00442,71.62433766,
0.00444,-0.9524063585,0.00444,72.35519825,
0.00446,0.143884524,0.00446,72.72062854,
0.00448,0.143884524,0.00448,71.62433766,
0.0045,0.8747451124,0.0045,71.98976795,
0.00452,-0.5869760643,0.00452,72.72062854,
0.00454,-1.317836653,0.00454,71.98976795,
0.00456,-1.683266947,0.00456,71.98976795,
0.00458,-2.414127535,0.00458,71.98976795,
0.0046,-2.414127535,0.0046,71.25890736,
0.00462,-2.414127535,0.00462,71.62433766,
0.00464,-3.875848712,0.00464,71.98976795,
0.00466,-2.048697241,0.00466,71.98976795,
0.00468,-2.414127535,0.00468,72.35519825,
0.0047,-0.5869760643,0.0047,72.35519825,
0.00472,-1.683266947,0.00472,72.72062854,
0.00474,-1.317836653,0.00474,72.72062854,
0.00476,-0.2215457701,0.00476,71.98976795,
0.00478,-1.317836653,0.00478,73.08605883,
0.0048,-0.9524063585,0.0048,72.72062854,
0.00482,-1.683266947,0.00482,71.98976795,
0.00484,-2.414127535,0.00484,72.35519825,
0.00486,-0.9524063585,0.00486,72.35519825,
0.00488,-0.9524063585,0.00488,72.35519825,
0.0049,-0.2215457701,0.0049,72.72062854,
0.00492,-0.2215457701,0.00492,71.98976795,
0.00494,1.240175407,0.00494,72.35519825,
0.00496,0.143884524,0.00496,71.98976795,
0.00498,-0.2215457701,0.00498,72.35519825,
0.005,1.605605701,0.005,72.35519825,
0.00502,-0.5869760643,0.00502,72.72062854,
0.00504,0.5093148182,0.00504,72.35519825,
0.00506,0.5093148182,0.00506,72.35519825,
0.00508,1.605605701,0.00508,72.72062854,
0.0051,-0.5869760643,0.0051,71.98976795,
0.00512,0.5093148182,0.00512,71.98976795,
0.00514,0.8747451124,0.00514,72.35519825,
0.00516,-0.9524063585,0.00516,72.72062854,
0.00518,0.8747451124,0.00518,72.35519825,
0.0052,1.971035995,0.0052,72.35519825,
0.00522,0.8747451124,0.00522,71.98976795,
0.00524,1.240175407,0.00524,71.98976795,
0.00526,1.971035995,0.00526,72.35519825,
0.00528,0.143884524,0.00528,71.98976795,
0.0053,1.605605701,0.0053,71.62433766,
0.00532,-0.2215457701,0.00532,72.35519825,
0.00534,-0.2215457701,0.00534,71.98976795,
0.00536,-0.5869760643,0.00536,71.98976795,
0.00538,-0.9524063585,0.00538,72.35519825,
0.0054,-1.683266947,0.0054,72.35519825,
0.00542,-0.9524063585,0.00542,71.98976795,
0.00544,0.8747451124,0.00544,72.72062854,
0.00546,-0.5869760643,0.00546,72.35519825,
0.00548,0.8747451124,0.00548,71.98976795,
0.0055,0.143884524,0.0055,72.72062854,
0.00552,-1.317836653,0.00552,72.35519825,
0.00554,-0.2215457701,0.00554,71.98976795,
0.00556,-0.2215457701,0.00556,73.08605883,
0.00558,-1.683266947,0.00558,72.72062854,
0.0056,-2.048697241,0.0056,72.72062854,
0.00562,-1.317836653,0.00562,73.08605883,
0.00564,-2.414127535,0.00564,72.72062854,
0.00566,0.143884524,0.00566,72.35519825,
0.00568,-2.048697241,0.00568,71.98976795,
0.0057,-2.414127535,0.0057,72.35519825,
0.00572,1.240175407,0.00572,71.98976795,
0.00574,1.240175407,0.00574,72.35519825,
0.00576,-1.317836653,0.00576,71.98976795,
0.00578,-0.5869760643,0.00578,71.98976795,
0.0058,-1.683266947,0.0058,72.35519825,
0.00582,-1.317836653,0.00582,71.98976795,
0.00584,-0.9524063585,0.00584,71.98976795,
0.00586,-0.2215457701,0.00586,71.98976795,
0.00588,-0.5869760643,0.00588,71.98976795,
0.0059,0.8747451124,0.0059,71.62433766,
0.00592,0.143884524,0.00592,72.35519825,
0.00594,0.8747451124,0.00594,71.98976795,
0.00596,0.8747451124,0.00596,72.35519825,
0.00598,1.240175407,0.00598,72.72062854,
0.006,0.143884524,0.006,71.98976795,
0.00602,0.5093148182,0.00602,71.62433766,
0.00604,0.8747451124,0.00604,72.35519825,
0.00606,-0.5869760643,0.00606,71.98976795,
0.00608,0.5093148182,0.00608,71.62433766,
0.0061,0.143884524,0.0061,72.35519825,
0.00612,-1.683266947,0.00612,71.98976795,
0.00614,1.240175407,0.00614,72.35519825,
0.00616,0.143884524,0.00616,72.72062854,
0.00618,1.240175407,0.00618,72.35519825,
0.0062,1.240175407,0.0062,71.98976795,
0.00622,1.605605701,0.00622,71.98976795,
0.00624,0.8747451124,0.00624,72.35519825,
0.00626,0.8747451124,0.00626,71.98976795,
0.00628,0.143884524,0.00628,72.72062854,
0.0063,0.5093148182,0.0063,71.98976795,
0.00632,-0.2215457701,0.00632,71.98976795,
0.00634,-0.5869760643,0.00634,72.72062854,
0.00636,-1.683266947,0.00636,72.72062854,
0.00638,-0.2215457701,0.00638,71.62433766,
0.0064,-0.2215457701,0.0064,72.35519825,
0.00642,0.143884524,0.00642,71.98976795,
0.00644,0.8747451124,0.00644,72.35519825,
0.00646,2.336466289,0.00646,72.72062854,
0.00648,-1.317836653,0.00648,71.98976795,
0.0065,-0.9524063585,0.0065,71.25890736,
0.00652,-0.2215457701,0.00652,72.72062854,
0.00654,-2.048697241,0.00654,71.62433766,
0.00656,-3.144988124,0.00656,71.62433766,
0.00658,-2.414127535,0.00658,72.72062854,
0.0066,-3.144988124,0.0066,71.98976795,
0.00662,-2.048697241,0.00662,71.62433766,
0.00664,-0.2215457701,0.00664,71.62433766,
0.00666,-0.9524063585,0.00666,71.62433766,
0.00668,-0.5869760643,0.00668,71.62433766,
0.0067,-0.5869760643,0.0067,71.25890736,
0.00672,1.240175407,0.00672,71.98976795,
0.00674,0.143884524,0.00674,71.98976795,
0.00676,-0.9524063585,0.00676,71.62433766,
0.00678,-0.2215457701,0.00678,71.98976795,
0.0068,-0.2215457701,0.0068,71.98976795,
0.00682,-1.317836653,0.00682,71.98976795,
0.00684,-1.683266947,0.00684,71.98976795,
0.00686,0.143884524,0.00686,71.62433766,
0.00688,-1.317836653,0.00688,71.98976795,
0.0069,1.971035995,0.0069,71.98976795,
0.00692,1.605605701,0.00692,71.98976795,
0.00694,0.8747451124,0.00694,71.62433766,
0.00696,0.8747451124,0.00696,72.35519825,
0.00698,0.5093148182,0.00698,71.98976795,
0.007,-0.2215457701,0.007,71.62433766,
0.00702,0.8747451124,0.00702,71.98976795,
0.00704,-0.5869760643,0.00704,71.98976795,
0.00706,-0.2215457701,0.00706,71.98976795,
0.00708,0.5093148182,0.00708,71.98976795,
0.0071,-0.5869760643,0.0071,71.98976795,
0.00712,-0.2215457701,0.00712,71.25890736,
0.00714,0.5093148182,0.00714,72.35519825,
0.00716,1.240175407,0.00716,71.98976795,
0.00718,1.240175407,0.00718,71.62433766,
0.0072,2.336466289,0.0072,71.98976795,
0.00722,1.240175407,0.00722,72.35519825,
0.00724,0.5093148182,0.00724,71.62433766,
0.00726,0.8747451124,0.00726,72.35519825,
0.00728,0.5093148182,0.00728,71.62433766,
0.0073,-0.5869760643,0.0073,71.62433766,
0.00732,-0.5869760643,0.00732,71.98976795,
0.00734,-0.5869760643,0.00734,72.35519825,
0.00736,-0.5869760643,0.00736,71.25890736,
0.00738,0.8747451124,0.00738,71.98976795,
0.0074,-0.2215457701,0.0074,71.98976795,
0.00742,1.240175407,0.00742,71.25890736,
0.00744,2.336466289,0.00744,72.35519825,
0.00746,0.5093148182,0.00746,72.35519825,
0.00748,-1.683266947,0.00748,71.25890736,
0.0075,-1.317836653,0.0075,71.98976795,
0.00752,-1.683266947,0.00752,71.98976795,
0.00754,-0.9524063585,0.00754,71.25890736,
0.00756,-0.9524063585,0.00756,71.98976795,
0.00758,-1.683266947,0.00758,72.72062854,
0.0076,-3.144988124,0.0076,71.98976795,
0.00762,-0.5869760643,0.00762,71.98976795,
0.00764,-1.317836653,0.00764,72.35519825,
0.00766,0.143884524,0.00766,71.62433766,
0.00768,1.605605701,0.00768,71.62433766,
0.0077,-0.5869760643,0.0077,71.62433766,
0.00772,-1.683266947,0.00772,71.62433766,
0.00774,-2.414127535,0.00774,71.98976795,
0.00776,-1.317836653,0.00776,71.98976795,
0.00778,-2.048697241,0.00778,71.62433766,
0.0078,-0.9524063585,0.0078,71.98976795,
0.00782,-0.5869760643,0.00782,72.35519825,
0.00784,-2.048697241,0.00784,71.62433766,
0.00786,0.143884524,0.00786,72.35519825,
0.00788,0.143884524,0.00788,71.98976795,
0.0079,0.5093148182,0.0079,71.62433766,
0.00792,1.240175407,0.00792,72.35519825,
0.00794,0.5093148182,0.00794,71.98976795,
0.00796,0.8747451124,0.00796,71.98976795,
0.00798,1.971035995,0.00798,72.35519825,
0.008,0.5093148182,0.008,71.98976795,
0.00802,0.143884524,0.00802,71.62433766,
0.00804,0.143884524,0.00804,71.62433766,
0.00806,-0.2215457701,0.00806,72.35519825,
0.00808,0.143884524,0.00808,71.62433766,
0.0081,1.971035995,0.0081,71.98976795,
0.00812,0.5093148182,0.00812,71.98976795,
0.00814,1.605605701,0.00814,71.25890736,
0.00816,1.605605701,0.00816,71.98976795,
0.00818,2.336466289,0.00818,72.35519825,
0.0082,2.336466289,0.0082,72.35519825,
0.00822,1.240175407,0.00822,72.35519825,
0.00824,0.8747451124,0.00824,71.98976795,
0.00826,0.143884524,0.00826,72.72062854,
0.00828,-0.2215457701,0.00828,72.72062854,
0.0083,0.5093148182,0.0083,71.98976795,
0.00832,-0.9524063585,0.00832,71.98976795,
0.00834,-0.9524063585,0.00834,72.72062854,
0.00836,0.143884524,0.00836,72.35519825,
0.00838,-0.2215457701,0.00838,72.72062854,
0.0084,1.240175407,0.0084,72.35519825,
0.00842,-0.5869760643,0.00842,72.35519825,
0.00844,-0.2215457701,0.00844,72.35519825,
0.00846,-0.2215457701,0.00846,72.72062854,
0.00848,-1.317836653,0.00848,71.98976795,
0.0085,-1.317836653,0.0085,73.08605883,
0.00852,-0.9524063585,0.00852,73.08605883,
0.00854,-2.048697241,0.00854,72.72062854,
0.00856,-4.241279006,0.00856,71.98976795,
0.00858,-0.9524063585,0.00858,71.62433766,
0.0086,-2.414127535,0.0086,72.35519825,
0.00862,-1.683266947,0.00862,71.62433766,
0.00864,-0.9524063585,0.00864,71.62433766,
0.00866,-1.317836653,0.00866,72.35519825,
0.00868,-0.9524063585,0.00868,71.62433766,
0.0087,-1.683266947,0.0087,71.98976795,
0.00872,-1.317836653,0.00872,72.35519825,
0.00874,-2.779557829,0.00874,72.35519825,
0.00876,-0.9524063585,0.00876,71.62433766,
0.00878,-1.317836653,0.00878,72.35519825,
0.0088,-1.317836653,0.0088,71.98976795,
0.00882,0.143884524,0.00882,71.98976795,
0.00884,-0.9524063585,0.00884,72.35519825,
0.00886,-0.5869760643,0.00886,71.98976795,
0.00888,0.143884524,0.00888,71.62433766,
0.0089,0.8747451124,0.0089,72.72062854,
0.00892,-0.2215457701,0.00892,71.62433766,
0.00894,0.5093148182,0.00894,71.25890736,
0.00896,0.8747451124,0.00896,72.35519825,
0.00898,-0.2215457701,0.00898,72.35519825,
0.009,0.143884524,0.009,71.62433766,
0.00902,0.8747451124,0.00902,71.98976795,
0.00904,-0.9524063585,0.00904,71.62433766,
0.00906,-0.2215457701,0.00906,71.62433766,
0.00908,0.5093148182,0.00908,71.98976795,
0.0091,1.240175407,0.0091,71.98976795,
0.00912,1.971035995,0.00912,71.98976795,
0.00914,1.240175407,0.00914,72.35519825,
0.00916,0.5093148182,0.00916,71.98976795,
0.00918,0.143884524,0.00918,71.62433766,
0.0092,1.240175407,0.0092,72.35519825,
0.00922,0.5093148182,0.00922,71.98976795,
0.00924,-0.9524063585,0.00924,71.62433766,
0.00926,0.5093148182,0.00926,72.35519825,
0.00928,-0.9524063585,0.00928,70.89347707,
0.0093,-0.2215457701,0.0093,71.62433766,
0.00932,0.143884524,0.00932,71.98976795,
0.00934,0.5093148182,0.00934,71.25890736,
0.00936,1.605605701,0.00936,71.62433766,
0.00938,1.240175407,0.00938,72.72062854,
0.0094,-0.5869760643,0.0094,71.62433766,
0.00942,-0.9524063585,0.00942,72.35519825,
0.00944,-0.5869760643,0.00944,72.35519825,
0.00946,-0.9524063585,0.00946,71.98976795,
0.00948,-1.317836653,0.00948,70.89347707,
0.0095,-1.683266947,0.0095,73.45148913,
0.00952,-2.048697241,0.00952,71.62433766,
0.00954,-2.048697241,0.00954,70.89347707,
0.00956,-2.048697241,0.00956,71.98976795,
0.00958,-2.414127535,0.00958,71.98976795,
0.0096,-0.9524063585,0.0096,70.89347707,
0.00962,-0.5869760643,0.00962,72.35519825,
0.00964,-2.414127535,0.00964,71.62433766,
0.00966,0.143884524,0.00966,71.25890736,
0.00968,-1.317836653,0.00968,72.35519825,
0.0097,-1.683266947,0.0097,71.98976795,
0.00972,-2.048697241,0.00972,71.62433766,
0.00974,-0.9524063585,0.00974,71.98976795,
0.00976,-1.683266947,0.00976,71.98976795,
0.00978,-0.9524063585,0.00978,71.62433766,
0.0098,-0.9524063585,0.0098,72.35519825,
0.00982,-0.9524063585,0.00982,72.35519825,
0.00984,-0.5869760643,0.00984,71.98976795,
0.00986,0.8747451124,0.00986,72.35519825,
0.00988,1.240175407,0.00988,71.98976795,
0.0099,1.971035995,0.0099,71.98976795,
0.00992,1.605605701,0.00992,72.35519825,
0.00994,0.5093148182,0.00994,71.98976795,
0.00996,0.8747451124,0.00996,71.98976795,
0.00998,-0.2215457701,0.00998,72.35519825,
0.01,-1.317836653,0.01,71.98976795,
0.01002,-0.5869760643,0.01002,71.62433766,
0.01004,0.143884524,0.01004,72.35519825,
0.01006,-0.5869760643,0.01006,71.98976795,
0.01008,0.5093148182,0.01008,71.98976795,
0.0101,0.8747451124,0.0101,71.98976795,
0.01012,0.8747451124,0.01012,71.98976795,
0.01014,1.971035995,0.01014,71.98976795,
0.01016,1.240175407,0.01016,72.72062854,
0.01018,1.605605701,0.01018,71.98976795,
0.0102,0.143884524,0.0102,71.62433766,
0.01022,-0.2215457701,0.01022,71.98976795,
0.01024,-1.317836653,0.01024,71.98976795,
0.01026,-0.9524063585,0.01026,71.98976795,
0.01028,-1.317836653,0.01028,72.35519825,
0.0103,-1.683266947,0.0103,71.98976795,
0.01032,0.5093148182,0.01032,71.98976795,
0.01034,0.5093148182,0.01034,73.08605883,
0.01036,0.143884524,0.01036,72.35519825,
0.01038,0.143884524,0.01038,72.35519825,
0.0104,-1.317836653,0.0104,72.35519825,
0.01042,-1.317836653,0.01042,71.25890736,
0.01044,-0.9524063585,0.01044,72.35519825,
0.01046,-0.5869760643,0.01046,71.98976795,
0.01048,-2.779557829,0.01048,72.35519825,
0.0105,-2.048697241,0.0105,72.35519825,
0.01052,-0.9524063585,0.01052,71.98976795,
0.01054,-2.414127535,0.01054,72.72062854,
0.01056,-1.683266947,0.01056,72.35519825,
0.01058,-2.048697241,0.01058,72.35519825,
0.0106,-0.5869760643,0.0106,72.72062854,
0.01062,0.5093148182,0.01062,72.35519825,
0.01064,-0.2215457701,0.01064,71.98976795,
0.01066,-1.683266947,0.01066,71.98976795,
0.01068,-0.9524063585,0.01068,72.35519825,
0.0107,-0.5869760643,0.0107,72.72062854,
0.01072,-1.683266947,0.01072,71.98976795,
0.01074,-0.9524063585,0.01074,71.98976795,
0.01076,-0.9524063585,0.01076,72.35519825,
0.01078,-2.048697241,0.01078,72.35519825,
0.0108,0.143884524,0.0108,71.62433766,
0.01082,1.240175407,0.01082,72.35519825,
0.01084,0.143884524,0.01084,71.98976795,
0.01086,1.240175407,0.01086,71.98976795,
0.01088,0.8747451124,0.01088,72.35519825,
0.0109,0.5093148182,0.0109,72.35519825,
0.01092,-0.5869760643,0.01092,71.62433766,
0.01094,0.143884524,0.01094,72.72062854,
0.01096,-1.317836653,0.01096,72.35519825,
0.01098,0.143884524,0.01098,71.98976795,
0.011,-0.2215457701,0.011,72.35519825,
0.01102,-0.2215457701,0.01102,72.35519825,
0.01104,0.143884524,0.01104,71.98976795,
0.01106,1.971035995,0.01106,72.35519825,
0.01108,0.5093148182,0.01108,72.35519825,
0.0111,1.971035995,0.0111,71.98976795,
0.01112,-0.2215457701,0.01112,71.98976795,
0.01114,0.8747451124,0.01114,71.98976795,
0.01116,1.240175407,0.01116,71.25890736,
0.01118,1.240175407,0.01118,72.72062854,
0.0112,-0.5869760643,0.0112,72.35519825,
0.01122,-0.5869760643,0.01122,71.98976795,
0.01124,-1.683266947,0.01124,72.35519825,
0.01126,-1.683266947,0.01126,72.35519825,
0.01128,-0.5869760643,0.01128,71.98976795,
0.0113,1.240175407,0.0113,72.35519825,
0.01132,0.5093148182,0.01132,71.98976795,
0.01134,0.143884524,0.01134,71.62433766,
0.01136,-0.9524063585,0.01136,72.35519825,
0.01138,-1.683266947,0.01138,71.62433766,
0.0114,-0.2215457701,0.0114,72.35519825,
0.01142,-0.9524063585,0.01142,71.98976795,
0.01144,-3.510418418,0.01144,72.72062854,
0.01146,-1.683266947,0.01146,72.72062854,
0.01148,-3.510418418,0.01148,71.98976795,
0.0115,-2.779557829,0.0115,71.98976795,
0.01152,-1.317836653,0.01152,71.98976795,
0.01154,0.8747451124,0.01154,72.35519825,
0.01156,1.240175407,0.01156,72.72062854,
0.01158,-0.2215457701,0.01158,71.62433766,
0.0116,-0.9524063585,0.0116,71.98976795,
0.01162,-0.5869760643,0.01162,71.98976795,
0.01164,-1.317836653,0.01164,71.62433766,
0.01166,-0.9524063585,0.01166,72.35519825,
0.01168,-1.683266947,0.01168,71.98976795,
0.0117,0.5093148182,0.0117,71.98976795,
0.01172,-0.2215457701,0.01172,72.35519825,
0.01174,-0.5869760643,0.01174,72.35519825,
0.01176,-0.5869760643,0.01176,72.35519825,
0.01178,0.143884524,0.01178,72.35519825,
0.0118,0.143884524,0.0118,72.35519825,
0.01182,0.5093148182,0.01182,71.98976795,
0.01184,0.143884524,0.01184,72.35519825,
0.01186,0.143884524,0.01186,71.98976795,
0.01188,0.143884524,0.01188,71.98976795,
0.0119,0.5093148182,0.0119,71.98976795,
0.01192,-0.5869760643,0.01192,71.98976795,
0.01194,1.240175407,0.01194,71.98976795,
0.01196,0.5093148182,0.01196,72.35519825,
0.01198,-0.5869760643,0.01198,71.98976795,
0.012,0.143884524,0.012,71.98976795,
0.01202,0.8747451124,0.01202,72.35519825,
0.01204,0.8747451124,0.01204,71.98976795,
0.01206,1.971035995,0.01206,71.62433766,
0.01208,1.240175407,0.01208,72.35519825,
0.0121,1.240175407,0.0121,71.98976795,
0.01212,0.5093148182,0.01212,71.62433766,
0.01214,0.143884524,0.01214,71.98976795,
0.01216,-0.9524063585,0.01216,71.62433766,
0.01218,0.143884524,0.01218,71.98976795,
0.0122,-0.9524063585,0.0122,72.35519825,
0.01222,-1.683266947,0.01222,72.35519825,
0.01224,0.5093148182,0.01224,71.98976795,
0.01226,-0.2215457701,0.01226,72.35519825,
0.01228,-0.5869760643,0.01228,72.35519825,
0.0123,0.8747451124,0.0123,71.62433766,
0.01232,0.5093148182,0.01232,72.72062854,
0.01234,0.8747451124,0.01234,71.62433766,
0.01236,-1.317836653,0.01236,72.72062854,
0.01238,-1.317836653,0.01238,70.89347707,
0.0124,0.5093148182,0.0124,72.72062854,
0.01242,-2.779557829,0.01242,70.89347707,
0.01244,-2.779557829,0.01244,71.62433766,
0.01246,-0.9524063585,0.01246,71.98976795,
0.01248,-0.9524063585,0.01248,72.35519825,
0.0125,-2.414127535,0.0125,71.98976795,
0.01252,0.143884524,0.01252,71.98976795,
0.01254,0.8747451124,0.01254,72.35519825,
0.01256,-0.5869760643,0.01256,71.62433766,
0.01258,-0.9524063585,0.01258,71.98976795,
0.0126,-0.9524063585,0.0126,71.25890736,
0.01262,-1.683266947,0.01262,71.62433766,
0.01264,-2.048697241,0.01264,72.35519825,
0.01266,-1.317836653,0.01266,71.98976795,
0.01268,-1.317836653,0.01268,71.98976795,
0.0127,-0.2215457701,0.0127,71.98976795,
0.01272,-0.5869760643,0.01272,71.98976795,
0.01274,-0.2215457701,0.01274,71.62433766,
0.01276,0.8747451124,0.01276,71.98976795,
0.01278,1.240175407,0.01278,72.35519825,
0.0128,0.5093148182,0.0128,71.25890736,
0.01282,0.8747451124,0.01282,71.98976795,
0.01284,0.143884524,0.01284,71.98976795,
0.01286,1.605605701,0.01286,71.62433766,
0.01288,0.5093148182,0.01288,71.98976795,
0.0129,0.5093148182,0.0129,71.62433766,
0.01292,-0.2215457701,0.01292,71.62433766,
0.01294,1.240175407,0.01294,71.98976795,
0.01296,0.8747451124,0.01296,71.98976795,
0.01298,0.8747451124,0.01298,71.25890736,
0.013,1.971035995,0.013,71.98976795,
0.01302,1.605605701,0.01302,72.35519825,
0.01304,0.8747451124,0.01304,71.62433766,
0.01306,1.971035995,0.01306,72.35519825,
0.01308,0.5093148182,0.01308,72.35519825,
0.0131,-0.2215457701,0.0131,71.62433766,
0.01312,1.240175407,0.01312,71.62433766,
0.01314,0.143884524,0.01314,71.98976795,
0.01316,-0.9524063585,0.01316,71.62433766,
0.01318,0.5093148182,0.01318,71.62433766,
0.0132,0.143884524,0.0132,71.98976795,
0.01322,-1.683266947,0.01322,71.62433766,
0.01324,1.605605701,0.01324,71.98976795,
0.01326,0.5093148182,0.01326,71.98976795,
0.01328,0.5093148182,0.01328,72.35519825,
0.0133,0.143884524,0.0133,71.62433766,
0.01332,0.143884524,0.01332,71.98976795,
0.01334,-2.048697241,0.01334,71.98976795,
0.01336,-2.048697241,0.01336,71.98976795,
0.01338,-0.9524063585,0.01338,73.08605883,
0.0134,-0.9524063585,0.0134,73.08605883,
0.01342,-3.875848712,0.01342,72.35519825,
0.01344,-1.683266947,0.01344,71.25890736,
0.01346,-0.9524063585,0.01346,72.35519825,
0.01348,-1.317836653,0.01348,72.35519825,
0.0135,-1.317836653,0.0135,71.98976795,
0.01352,0.143884524,0.01352,72.72062854,
0.01354,1.605605701,0.01354,71.98976795,
0.01356,-0.9524063585,0.01356,72.35519825,
0.01358,-0.2215457701,0.01358,71.98976795,
0.0136,-1.683266947,0.0136,71.25890736,
0.01362,-1.317836653,0.01362,71.98976795,
0.01364,-1.317836653,0.01364,72.35519825,
0.01366,-0.2215457701,0.01366,72.35519825,
0.01368,-1.683266947,0.01368,71.62433766,
0.0137,-0.2215457701,0.0137,71.62433766,
0.01372,0.5093148182,0.01372,71.98976795,
0.01374,-0.9524063585,0.01374,71.98976795,
0.01376,0.8747451124,0.01376,71.98976795,
0.01378,1.605605701,0.01378,72.72062854,
0.0138,-0.2215457701,0.0138,71.98976795,
0.01382,0.5093148182,0.01382,71.62433766,
0.01384,0.143884524,0.01384,71.98976795,
0.01386,-0.2215457701,0.01386,71.62433766,
0.01388,-0.9524063585,0.01388,71.62433766,
0.0139,0.8747451124,0.0139,72.72062854,
0.01392,-0.2215457701,0.01392,72.35519825,
0.01394,-0.5869760643,0.01394,71.62433766,
0.01396,0.143884524,0.01396,72.72062854,
0.01398,0.5093148182,0.01398,71.98976795,
0.014,0.8747451124,0.014,71.62433766,
0.01402,0.5093148182,0.01402,72.72062854,
0.01404,0.8747451124,0.01404,71.62433766,
0.01406,0.8747451124,0.01406,71.62433766,
0.01408,0.5093148182,0.01408,72.35519825,
0.0141,-0.5869760643,0.0141,71.98976795,
0.01412,-0.2215457701,0.01412,71.25890736,
0.01414,-0.2215457701,0.01414,72.35519825,
0.01416,-0.2215457701,0.01416,71.98976795,
0.01418,-0.5869760643,0.01418,71.98976795,
0.0142,-0.2215457701,0.0142,72.72062854,
0.01422,-0.2215457701,0.01422,71.98976795,
0.01424,2.336466289,0.01424,72.35519825,
0.01426,0.5093148182,0.01426,71.98976795,
0.01428,1.605605701,0.01428,72.35519825,
0.0143,1.240175407,0.0143,71.98976795,
0.01432,-0.5869760643,0.01432,72.35519825,
0.01434,-0.5869760643,0.01434,71.98976795,
0.01436,-2.048697241,0.01436,71.98976795,
0.01438,0.143884524,0.01438,72.35519825,
0.0144,-0.9524063585,0.0144,72.35519825,
0.01442,-2.048697241,0.01442,71.62433766,
0.01444,-0.2215457701,0.01444,71.25890736,
0.01446,-0.5869760643,0.01446,72.35519825,
0.01448,-0.2215457701,0.01448,71.98976795,
0.0145,0.143884524,0.0145,72.72062854,
0.01452,1.605605701,0.01452,71.62433766,
0.01454,0.5093148182,0.01454,72.35519825,
0.01456,-0.2215457701,0.01456,71.98976795,
0.01458,-0.9524063585,0.01458,71.98976795,
0.0146,-0.2215457701,0.0146,72.35519825,
0.01462,-0.5869760643,0.01462,72.72062854,
0.01464,-1.317836653,0.01464,72.35519825,
0.01466,-0.9524063585,0.01466,72.35519825,
0.01468,-0.5869760643,0.01468,72.35519825,
0.0147,0.143884524,0.0147,72.35519825,
0.01472,0.8747451124,0.01472,72.35519825,
0.01474,1.971035995,0.01474,72.35519825,
0.01476,0.8747451124,0.01476,72.35519825,
0.01478,1.605605701,0.01478,71.98976795,
0.0148,0.5093148182,0.0148,72.35519825,
0.01482,0.5093148182,0.01482,72.35519825,
0.01484,0.143884524,0.01484,72.35519825,
0.01486,0.5093148182,0.01486,71.98976795,
0.01488,0.143884524,0.01488,72.35519825,
0.0149,0.8747451124,0.0149,71.98976795,
0.01492,0.5093148182,0.01492,72.35519825,
0.01494,0.8747451124,0.01494,71.98976795,
0.01496,1.971035995,0.01496,71.98976795,
0.01498,0.143884524,0.01498,71.98976795,
0.015,2.701896583,0.015,72.72062854,
0.01502,2.336466289,0.01502,71.98976795,
0.01504,1.240175407,0.01504,72.35519825,
0.01506,0.143884524,0.01506,71.98976795,
0.01508,-0.2215457701,0.01508,71.98976795,
0.0151,1.240175407,0.0151,72.35519825,
0.01512,-0.2215457701,0.01512,72.35519825,
0.01514,-0.5869760643,0.01514,71.98976795,
0.01516,-1.317836653,0.01516,72.35519825,
0.01518,-0.9524063585,0.01518,72.72062854,
0.0152,0.143884524,0.0152,71.25890736,
0.01522,0.8747451124,0.01522,71.98976795,
0.01524,1.240175407,0.01524,71.25890736,
0.01526,0.5093148182,0.01526,71.62433766,
0.01528,0.143884524,0.01528,71.98976795,
0.0153,0.5093148182,0.0153,71.62433766,
0.01532,-1.317836653,0.01532,70.89347707,
0.01534,-2.779557829,0.01534,72.35519825,
0.01536,-0.9524063585,0.01536,72.35519825,
0.01538,-1.317836653,0.01538,71.62433766,
0.0154,-0.9524063585,0.0154,71.62433766,
0.01542,-1.317836653,0.01542,72.72062854,
0.01544,-0.9524063585,0.01544,71.62433766,
0.01546,-0.5869760643,0.01546,71.98976795,
0.01548,0.8747451124,0.01548,72.35519825,
0.0155,0.5093148182,0.0155,71.25890736,
0.01552,-0.5869760643,0.01552,71.62433766,
0.01554,-0.5869760643,0.01554,71.98976795,
0.01556,-2.414127535,0.01556,71.25890736,
0.01558,-1.683266947,0.01558,71.98976795,
0.0156,-1.683266947,0.0156,71.98976795,
0.01562,-1.317836653,0.01562,71.62433766,
0.01564,0.5093148182,0.01564,71.62433766,
0.01566,0.5093148182,0.01566,72.35519825,
0.01568,-0.9524063585,0.01568,71.62433766,
0.0157,1.605605701,0.0157,71.62433766,
0.01572,1.240175407,0.01572,71.98976795,
0.01574,1.971035995,0.01574,71.62433766,
0.01576,0.8747451124,0.01576,71.62433766,
0.01578,0.5093148182,0.01578,71.98976795,
0.0158,-1.317836653,0.0158,71.25890736,
0.01582,1.240175407,0.01582,71.62433766,
0.01584,0.8747451124,0.01584,72.35519825,
0.01586,-0.2215457701,0.01586,71.25890736,
0.01588,0.143884524,0.01588,72.35519825,
0.0159,-0.5869760643,0.0159,71.98976795,
0.01592,0.8747451124,0.01592,70.89347707,
0.01594,1.605605701,0.01594,71.62433766,
0.01596,1.240175407,0.01596,71.98976795,
0.01598,0.143884524,0.01598,71.25890736,
0.016,1.240175407,0.016,71.62433766,
0.01602,0.8747451124,0.01602,71.98976795,
0.01604,0.8747451124,0.01604,71.62433766,
0.01606,1.605605701,0.01606,71.98976795,
0.01608,-0.2215457701,0.01608,71.62433766,
0.0161,-0.2215457701,0.0161,71.62433766,
0.01612,-0.5869760643,0.01612,71.98976795,
0.01614,-0.2215457701,0.01614,71.98976795,
0.01616,-0.5869760643,0.01616,71.62433766,
0.01618,0.143884524,0.01618,72.35519825,
0.0162,-0.2215457701,0.0162,72.35519825,
0.01622,0.5093148182,0.01622,71.98976795,
0.01624,1.240175407,0.01624,71.62433766,
0.01626,0.5093148182,0.01626,71.98976795,
0.01628,-0.2215457701,0.01628,71.98976795,
0.0163,-0.5869760643,0.0163,72.35519825,
0.01632,-1.317836653,0.01632,72.35519825,
0.01634,-1.317836653,0.01634,70.52804678,
0.01636,-1.317836653,0.01636,71.62433766,
0.01638,-3.144988124,0.01638,71.25890736,
0.0164,-2.779557829,0.0164,71.98976795,
0.01642,-0.9524063585,0.01642,71.98976795,
0.01644,0.8747451124,0.01644,72.35519825,
0.01646,-1.317836653,0.01646,71.62433766,
0.01648,0.143884524,0.01648,72.72062854,
0.0165,-0.9524063585,0.0165,71.98976795,
0.01652,-1.683266947,0.01652,71.25890736,
0.01654,-2.414127535,0.01654,71.62433766,
0.01656,-2.414127535,0.01656,71.98976795,
0.01658,-1.683266947,0.01658,71.98976795,
0.0166,-1.317836653,0.0166,71.98976795,
0.01662,-0.9524063585,0.01662,72.35519825,
0.01664,-1.683266947,0.01664,71.25890736,
0.01666,0.5093148182,0.01666,71.98976795,
0.01668,0.5093148182,0.01668,71.98976795,
0.0167,1.605605701,0.0167,71.62433766,
0.01672,1.240175407,0.01672,71.62433766,
0.01674,1.605605701,0.01674,72.35519825,
0.01676,-0.5869760643,0.01676,71.25890736,
0.01678,0.143884524,0.01678,71.98976795,
0.0168,0.5093148182,0.0168,71.98976795,
0.01682,-0.9524063585,0.01682,71.62433766,
0.01684,1.240175407,0.01684,71.62433766,
0.01686,0.5093148182,0.01686,71.98976795,
0.01688,-0.5869760643,0.01688,71.62433766,
0.0169,1.240175407,0.0169,71.98976795,
0.01692,1.971035995,0.01692,71.62433766,
0.01694,0.5093148182,0.01694,71.25890736,
0.01696,1.971035995,0.01696,71.98976795,
0.01698,1.240175407,0.01698,71.62433766,
0.017,0.5093148182,0.017,71.62433766,
0.01702,1.605605701,0.01702,72.35519825,
0.01704,0.143884524,0.01704,71.98976795,
0.01706,-0.5869760643,0.01706,71.62433766,
0.01708,-0.5869760643,0.01708,71.62433766,
0.0171,-1.683266947,0.0171,71.98976795,
0.01712,-0.9524063585,0.01712,71.62433766,
0.01714,-0.5869760643,0.01714,72.72062854,
0.01716,-0.2215457701,0.01716,71.62433766,
0.01718,0.5093148182,0.01718,70.89347707,
0.0172,0.5093148182,0.0172,72.35519825,
0.01722,-0.9524063585,0.01722,71.98976795,
0.01724,-2.048697241,0.01724,71.62433766,
0.01726,-1.317836653,0.01726,71.98976795,
0.01728,-1.683266947,0.01728,72.35519825,
0.0173,-1.683266947,0.0173,72.35519825,
0.01732,-2.779557829,0.01732,71.98976795,
0.01734,-2.414127535,0.01734,71.25890736,
0.01736,-2.779557829,0.01736,71.98976795,
0.01738,-0.5869760643,0.01738,72.35519825,
0.0174,-0.5869760643,0.0174,71.98976795,
0.01742,-0.5869760643,0.01742,72.35519825,
0.01744,1.240175407,0.01744,72.72062854,
0.01746,-0.9524063585,0.01746,72.35519825,
0.01748,-1.683266947,0.01748,71.98976795,
0.0175,-0.9524063585,0.0175,72.35519825,
0.01752,-2.048697241,0.01752,71.98976795,
0.01754,-2.414127535,0.01754,71.98976795,
0.01756,-0.2215457701,0.01756,72.35519825,
0.01758,-1.317836653,0.01758,71.98976795,
0.0176,-1.317836653,0.0176,71.98976795,
0.01762,0.5093148182,0.01762,72.35519825,
0.01764,-0.2215457701,0.01764,71.98976795,
0.01766,0.5093148182,0.01766,71.98976795,
0.01768,0.5093148182,0.01768,72.72062854,
0.0177,0.8747451124,0.0177,71.98976795,
0.01772,0.8747451124,0.01772,71.98976795,
0.01774,1.240175407,0.01774,72.72062854,
0.01776,-0.5869760643,0.01776,72.35519825,
0.01778,-0.2215457701,0.01778,71.98976795,
0.0178,0.5093148182,0.0178,72.72062854,
0.01782,0.143884524,0.01782,71.98976795,
0.01784,-0.5869760643,0.01784,71.62433766,
0.01786,0.8747451124,0.01786,72.35519825,
0.01788,0.143884524,0.01788,72.35519825,
0.0179,0.5093148182,0.0179,71.98976795,
0.01792,0.8747451124,0.01792,72.35519825,
0.01794,1.605605701,0.01794,71.98976795,
0.01796,0.5093148182,0.01796,72.35519825,
0.01798,1.605605701,0.01798,72.35519825,
0.018,0.5093148182,0.018,71.98976795,
0.01802,-0.2215457701,0.01802,71.62433766,
0.01804,0.143884524,0.01804,72.35519825,
0.01806,-2.048697241,0.01806,71.98976795,
0.01808,-0.9524063585,0.01808,71.98976795,
0.0181,-0.5869760643,0.0181,72.35519825,
0.01812,-0.9524063585,0.01812,71.62433766,
0.01814,0.8747451124,0.01814,71.98976795,
0.01816,0.8747451124,0.01816,72.35519825,
0.01818,0.143884524,0.01818,72.35519825,
0.0182,0.143884524,0.0182,71.62433766,
0.01822,-0.2215457701,0.01822,72.35519825,
0.01824,-2.414127535,0.01824,72.35519825,
0.01826,-0.9524063585,0.01826,71.98976795,
0.01828,-2.779557829,0.01828,72.35519825,
0.0183,-4.241279006,0.0183,71.25890736,
0.01832,-4.6067093,0.01832,71.62433766,
0.01834,-2.779557829,0.01834,72.72062854,
0.01836,-2.048697241,0.01836,71.98976795,
0.01838,-2.048697241,0.01838,71.98976795,
0.0184,-1.317836653,0.0184,72.35519825,
0.01842,0.8747451124,0.01842,72.72062854,
0.01844,0.8747451124,0.01844,71.98976795,
0.01846,-0.5869760643,0.01846,71.62433766,
0.01848,-1.683266947,0.01848,71.62433766,
0.0185,-0.5869760643,0.0185,71.98976795,
0.01852,-0.5869760643,0.01852,71.98976795,
0.01854,-0.2215457701,0.01854,71.98976795,
0.01856,-0.9524063585,0.01856,71.98976795,
0.01858,-0.5869760643,0.01858,71.98976795,
0.0186,-0.2215457701,0.0186,71.98976795,
0.01862,0.5093148182,0.01862,72.35519825,
0.01864,0.8747451124,0.01864,71.98976795,
0.01866,0.8747451124,0.01866,71.98976795,
0.01868,0.8747451124,0.01868,71.98976795,
0.0187,1.605605701,0.0187,72.35519825,
0.01872,0.8747451124,0.01872,72.35519825,
0.01874,1.605605701,0.01874,72.35519825,
0.01876,0.5093148182,0.01876,72.35519825,
0.01878,-0.2215457701,0.01878,71.98976795,
0.0188,-0.5869760643,0.0188,72.35519825,
0.01882,-0.5869760643,0.01882,72.35519825,
0.01884,0.143884524,0.01884,71.98976795,
0.01886,0.8747451124,0.01886,72.72062854,
0.01888,0.5093148182,0.01888,71.98976795,
0.0189,0.8747451124,0.0189,71.62433766,
0.01892,1.971035995,0.01892,72.72062854,
0.01894,0.8747451124,0.01894,72.35519825,
0.01896,3.067326877,0.01896,71.98976795,
0.01898,0.143884524,0.01898,71.98976795,
0.019,0.143884524,0.019,72.35519825,
0.01902,0.143884524,0.01902,72.35519825,
0.01904,-0.5869760643,0.01904,71.98976795,
0.01906,-0.9524063585,0.01906,71.98976795,
0.01908,-1.317836653,0.01908,72.35519825,
0.0191,-0.2215457701,0.0191,71.98976795,
0.01912,0.8747451124,0.01912,71.98976795,
0.01914,0.8747451124,0.01914,71.98976795,
0.01916,1.605605701,0.01916,71.98976795,
0.01918,0.143884524,0.01918,71.62433766,
0.0192,-0.5869760643,0.0192,72.35519825,
0.01922,-1.683266947,0.01922,71.98976795,
0.01924,0.8747451124,0.01924,72.35519825,
0.01926,-2.779557829,0.01926,72.72062854,
0.01928,-4.241279006,0.01928,71.62433766,
0.0193,-2.414127535,0.0193,71.62433766,
0.01932,-2.779557829,0.01932,72.72062854,
0.01934,-2.048697241,0.01934,71.62433766,
0.01936,0.143884524,0.01936,72.35519825,
0.01938,0.8747451124,0.01938,71.62433766,
0.0194,-1.683266947,0.0194,71.98976795,
0.01942,-0.5869760643,0.01942,72.35519825,
0.01944,-1.683266947,0.01944,71.98976795,
0.01946,-2.048697241,0.01946,71.62433766,
0.01948,-1.683266947,0.01948,72.35519825,
0.0195,-1.683266947,0.0195,72.35519825,
0.01952,-0.9524063585,0.01952,71.98976795,
0.01954,-0.9524063585,0.01954,71.62433766,
0.01956,-0.2215457701,0.01956,72.35519825,
0.01958,-0.5869760643,0.01958,71.98976795,
0.0196,0.8747451124,0.0196,71.98976795,
0.01962,-0.2215457701,0.01962,72.35519825,
0.01964,1.240175407,0.01964,71.62433766,
0.01966,0.8747451124,0.01966,71.62433766,
0.01968,0.5093148182,0.01968,72.35519825,
0.0197,-0.5869760643,0.0197,71.98976795,
0.01972,0.5093148182,0.01972,71.62433766,
0.01974,-0.2215457701,0.01974,72.35519825,
0.01976,-0.5869760643,0.01976,72.35519825,
0.01978,0.143884524,0.01978,71.98976795,
0.0198,-0.2215457701,0.0198,72.35519825,
0.01982,-0.5869760643,0.01982,72.35519825,
0.01984,0.5093148182,0.01984,71.98976795,
0.01986,0.5093148182,0.01986,72.72062854,
0.01988,1.240175407,0.01988,71.98976795,
0.0199,1.605605701,0.0199,72.35519825,
0.01992,1.240175407,0.01992,72.35519825,
0.01994,-0.5869760643,0.01994,71.98976795,
0.01996,0.8747451124,0.01996,71.62433766,
0.01998,0.8747451124,0.01998,72.72062854,
0.02,-0.5869760643,0.02,71.98976795,
0.02002,-0.9524063585,0.02002,72.35519825,
0.02004,-0.2215457701,0.02004,72.35519825,
0.02006,-1.317836653,0.02006,71.62433766,
0.02008,-0.2215457701,0.02008,71.98976795,
0.0201,0.143884524,0.0201,72.35519825,
0.02012,0.5093148182,0.02012,71.62433766,
0.02014,-0.5869760643,0.02014,71.62433766,
0.02016,0.143884524,0.02016,71.98976795,
0.02018,-1.317836653,0.02018,72.72062854,
0.0202,0.5093148182,0.0202,72.35519825,
0.02022,-0.5869760643,0.02022,71.98976795,
0.02024,-1.683266947,0.02024,72.35519825,
0.02026,-2.779557829,0.02026,72.72062854,
0.02028,-1.683266947,0.02028,72.35519825,
0.0203,-2.048697241,0.0203,71.98976795,
0.02032,0.143884524,0.02032,72.35519825,
0.02034,-1.683266947,0.02034,72.35519825,
0.02036,-2.048697241,0.02036,72.35519825,
0.02038,-0.5869760643,0.02038,71.25890736,
0.0204,0.143884524,0.0204,73.08605883,
0.02042,-1.683266947,0.02042,71.62433766,
0.02044,-1.683266947,0.02044,71.98976795,
0.02046,-0.9524063585,0.02046,72.35519825,
0.02048,-2.779557829,0.02048,71.98976795,
0.0205,-1.683266947,0.0205,71.98976795,
0.02052,-0.9524063585,0.02052,71.98976795,
0.02054,-0.9524063585,0.02054,71.98976795,
0.02056,0.5093148182,0.02056,71.98976795,
0.02058,0.8747451124,0.02058,72.35519825,
0.0206,0.8747451124,0.0206,71.62433766,
0.02062,1.240175407,0.02062,71.98976795,
0.02064,1.605605701,0.02064,71.98976795,
0.02066,-0.5869760643,0.02066,71.62433766,
0.02068,0.5093148182,0.02068,71.62433766,
0.0207,0.143884524,0.0207,71.98976795,
0.02072,-0.2215457701,0.02072,71.62433766,
0.02074,0.8747451124,0.02074,71.62433766,
0.02076,0.143884524,0.02076,71.98976795,
0.02078,-0.5869760643,0.02078,71.62433766,
0.0208,1.605605701,0.0208,72.35519825,
0.02082,0.5093148182,0.02082,72.35519825,
0.02084,0.143884524,0.02084,71.98976795,
0.02086,2.336466289,0.02086,71.98976795,
0.02088,1.240175407,0.02088,72.35519825,
0.0209,0.5093148182,0.0209,71.25890736,
0.02092,1.240175407,0.02092,72.35519825,
0.02094,0.5093148182,0.02094,71.98976795,
0.02096,0.143884524,0.02096,71.25890736,
0.02098,-0.9524063585,0.02098,71.62433766,
0.021,-0.5869760643,0.021,71.98976795,
0.02102,-0.9524063585,0.02102,71.25890736,
0.02104,-0.2215457701,0.02104,71.62433766,
0.02106,-0.5869760643,0.02106,71.98976795,
0.02108,0.5093148182,0.02108,71.62433766,
0.0211,0.5093148182,0.0211,71.98976795,
0.02112,0.5093148182,0.02112,71.25890736,
0.02114,-0.2215457701,0.02114,71.98976795,
0.02116,-0.9524063585,0.02116,71.98976795,
0.02118,-2.779557829,0.02118,71.98976795,
0.0212,-1.317836653,0.0212,71.62433766,
0.02122,-0.2215457701,0.02122,72.72062854,
0.02124,-2.048697241,0.02124,72.35519825,
0.02126,-2.779557829,0.02126,71.98976795,
0.02128,-2.048697241,0.02128,72.35519825,
0.0213,-0.9524063585,0.0213,71.98976795,
0.02132,-0.9524063585,0.02132,71.98976795,
0.02134,-2.414127535,0.02134,72.35519825,
0.02136,-0.9524063585,0.02136,71.98976795,
0.02138,0.5093148182,0.02138,71.98976795,
0.0214,-0.2215457701,0.0214,71.98976795,
0.02142,-1.317836653,0.02142,71.98976795,
0.02144,-1.683266947,0.02144,71.98976795,
0.02146,-1.317836653,0.02146,71.98976795,
0.02148,-0.9524063585,0.02148,71.98976795,
0.0215,-1.317836653,0.0215,71.62433766,
0.02152,-1.317836653,0.02152,71.98976795,
0.02154,0.5093148182,0.02154,71.62433766,
0.02156,0.5093148182,0.02156,71.25890736,
0.02158,1.971035995,0.02158,71.98976795,
0.0216,0.8747451124,0.0216,72.35519825,
0.02162,0.5093148182,0.02162,71.62433766,
0.02164,0.8747451124,0.02164,71.98976795,
0.02166,0.5093148182,0.02166,71.62433766,
0.02168,0.8747451124,0.02168,71.62433766,
0.0217,0.143884524,0.0217,71.98976795,
0.02172,0.8747451124,0.02172,71.98976795,
0.02174,-0.2215457701,0.02174,71.62433766,
0.02176,-0.2215457701,0.02176,72.35519825,
0.02178,0.5093148182,0.02178,71.62433766,
0.0218,-0.5869760643,0.0218,71.62433766,
0.02182,0.8747451124,0.02182,71.98976795,
0.02184,0.143884524,0.02184,71.62433766,
0.02186,0.8747451124,0.02186,71.98976795,
0.02188,2.336466289,0.02188,71.62433766,
0.0219,1.605605701,0.0219,72.35519825,
0.02192,0.5093148182,0.02192,71.25890736,
0.02194,1.605605701,0.02194,71.98976795,
0.02196,-0.2215457701,0.02196,71.98976795,
0.02198,-0.2215457701,0.02198,71.98976795,
0.022,-0.2215457701,0.022,71.62433766,
0.02202,-0.2215457701,0.02202,72.35519825,
0.02204,0.8747451124,0.02204,71.62433766,
0.02206,0.5093148182,0.02206,72.72062854,
0.02208,0.8747451124,0.02208,71.98976795,
0.0221,0.8747451124,0.0221,71.62433766,
0.02212,-0.5869760643,0.02212,71.98976795,
0.02214,-2.048697241,0.02214,71.62433766,
0.02216,-1.317836653,0.02216,71.25890736,
0.02218,-2.048697241,0.02218,71.98976795,
0.0222,-1.683266947,0.0222,71.62433766,
0.02222,-3.144988124,0.02222,71.62433766,
0.02224,-2.414127535,0.02224,72.35519825,
0.02226,-1.683266947,0.02226,71.62433766,
0.02228,-2.414127535,0.02228,71.25890736,
0.0223,0.8747451124,0.0223,71.62433766,
0.02232,0.143884524,0.02232,72.35519825,
0.02234,0.143884524,0.02234,71.62433766,
0.02236,-0.9524063585,0.02236,71.98976795,
0.02238,-1.317836653,0.02238,71.98976795,
0.0224,-0.9524063585,0.0224,71.25890736,
0.02242,-0.9524063585,0.02242,71.98976795,
0.02244,-1.317836653,0.02244,71.62433766,
0.02246,-0.9524063585,0.02246,71.98976795,
0.02248,-0.5869760643,0.02248,71.98976795,
0.0225,-0.5869760643,0.0225,71.62433766,
0.02252,0.8747451124,0.02252,71.25890736,
0.02254,1.240175407,0.02254,71.98976795,
0.02256,0.143884524,0.02256,71.98976795,
0.02258,0.143884524,0.02258,71.62433766,
0.0226,1.605605701,0.0226,71.62433766,
0.02262,0.5093148182,0.02262,71.98976795,
0.02264,-0.2215457701,0.02264,71.62433766,
0.02266,0.143884524,0.02266,71.62433766,
0.02268,0.8747451124,0.02268,71.62433766,
0.0227,0.5093148182,0.0227,71.25890736,
0.02272,0.8747451124,0.02272,71.62433766,
0.02274,0.8747451124,0.02274,71.98976795,
0.02276,0.143884524,0.02276,71.25890736,
0.02278,0.8747451124,0.02278,71.98976795,
0.0228,1.605605701,0.0228,71.98976795,
0.02282,3.067326877,0.02282,72.72062854,
0.02284,1.971035995,0.02284,71.62433766,
0.02286,0.143884524,0.02286,71.98976795,
0.02288,0.8747451124,0.02288,72.35519825,
0.0229,-0.5869760643,0.0229,71.98976795,
0.02292,0.143884524,0.02292,71.98976795,
0.02294,-1.683266947,0.02294,71.98976795,
0.02296,-0.9524063585,0.02296,71.98976795,
0.02298,-0.5869760643,0.02298,71.62433766,
0.023,-0.9524063585,0.023,72.72062854,
0.02302,-0.2215457701,0.02302,71.98976795,
0.02304,0.8747451124,0.02304,71.62433766,
0.02306,0.5093148182,0.02306,72.35519825,
0.02308,-0.5869760643,0.02308,71.98976795,
0.0231,-0.5869760643,0.0231,71.62433766,
0.02312,-0.9524063585,0.02312,71.98976795,
0.02314,-1.683266947,0.02314,71.98976795,
0.02316,-2.414127535,0.02316,71.62433766,
0.02318,-3.875848712,0.02318,72.35519825,
0.0232,-3.144988124,0.0232,71.25890736,
0.02322,-1.317836653,0.02322,71.62433766,
0.02324,-2.048697241,0.02324,72.35519825,
0.02326,-0.2215457701,0.02326,71.98976795,
0.02328,0.8747451124,0.02328,71.98976795,
0.0233,-0.5869760643,0.0233,71.98976795,
0.02332,0.5093148182,0.02332,71.62433766,
0.02334,0.143884524,0.02334,71.25890736,
0.02336,0.143884524,0.02336,71.98976795,
0.02338,-1.317836653,0.02338,71.98976795,
0.0234,-1.683266947,0.0234,71.62433766,
0.02342,-0.5869760643,0.02342,72.72062854,
0.02344,-2.048697241,0.02344,72.35519825,
0.02346,-0.5869760643,0.02346,71.98976795,
0.02348,-1.317836653,0.02348,72.35519825,
0.0235,0.5093148182,0.0235,71.62433766,
0.02352,0.143884524,0.02352,71.98976795,
0.02354,0.143884524,0.02354,71.98976795,
0.02356,0.143884524,0.02356,71.98976795,
0.02358,0.143884524,0.02358,71.98976795,
0.0236,0.8747451124,0.0236,71.98976795,
0.02362,0.5093148182,0.02362,71.98976795,
0.02364,0.5093148182,0.02364,71.98976795,
0.02366,0.5093148182,0.02366,71.98976795,
0.02368,-0.5869760643,0.02368,72.35519825,
0.0237,0.143884524,0.0237,71.98976795,
0.02372,-0.2215457701,0.02372,72.35519825,
0.02374,0.8747451124,0.02374,72.35519825,
0.02376,0.8747451124,0.02376,71.98976795,
0.02378,1.605605701,0.02378,71.98976795,
0.0238,2.701896583,0.0238,72.35519825,
0.02382,1.240175407,0.02382,71.98976795,
0.02384,0.8747451124,0.02384,72.35519825,
0.02386,0.143884524,0.02386,72.35519825,
0.02388,0.8747451124,0.02388,71.98976795,
0.0239,-1.317836653,0.0239,72.35519825,
0.02392,-1.317836653,0.02392,71.98976795,
0.02394,-0.5869760643,0.02394,71.98976795,
0.02396,-0.5869760643,0.02396,72.35519825,
0.02398,-0.9524063585,0.02398,72.35519825,
0.024,0.143884524,0.024,71.98976795,
0.02402,0.8747451124,0.02402,71.98976795,
0.02404,0.8747451124,0.02404,72.35519825,
0.02406,0.8747451124,0.02406,71.62433766,
0.02408,-0.2215457701,0.02408,73.08605883,
0.0241,-1.683266947,0.0241,71.62433766,
0.02412,-1.683266947,0.02412,72.35519825,
0.02414,-3.510418418,0.02414,71.98976795,
0.02416,-3.875848712,0.02416,71.25890736,
0.02418,-2.414127535,0.02418,72.72062854,
0.0242,-2.414127535,0.0242,72.35519825,
0.02422,-3.144988124,0.02422,72.35519825,
0.02424,-2.048697241,0.02424,71.62433766,
0.02426,-0.9524063585,0.02426,71.98976795,
0.02428,-0.9524063585,0.02428,71.98976795,
0.0243,-0.2215457701,0.0243,71.98976795,
0.02432,0.8747451124,0.02432,72.72062854,
0.02434,-0.5869760643,0.02434,71.62433766,
0.02436,-0.5869760643,0.02436,71.62433766,
0.02438,-0.5869760643,0.02438,71.98976795,
0.0244,-1.317836653,0.0244,71.62433766,
0.02442,-1.683266947,0.02442,71.62433766,
0.02444,-0.2215457701,0.02444,71.98976795,
0.02446,-0.9524063585,0.02446,71.98976795,
0.02448,0.143884524,0.02448,71.62433766,
0.0245,0.8747451124,0.0245,72.35519825,
0.02452,0.143884524,0.02452,71.98976795,
0.02454,1.240175407,0.02454,71.98976795,
0.02456,0.5093148182,0.02456,72.35519825,
0.02458,-0.5869760643,0.02458,71.62433766,
0.0246,-0.2215457701,0.0246,71.62433766,
0.02462,0.143884524,0.02462,72.35519825,
0.02464,-1.317836653,0.02464,71.98976795,
0.02466,-0.5869760643,0.02466,71.62433766,
0.02468,0.5093148182,0.02468,71.98976795,
0.0247,0.5093148182,0.0247,71.98976795,
0.02472,1.240175407,0.02472,71.98976795,
0.02474,1.605605701,0.02474,72.72062854,
0.02476,2.336466289,0.02476,71.62433766,
0.02478,1.240175407,0.02478,72.35519825,
0.0248,1.605605701,0.0248,71.98976795,
0.02482,1.240175407,0.02482,71.98976795,
0.02484,1.240175407,0.02484,71.98976795,
0.02486,0.8747451124,0.02486,72.35519825,
0.02488,0.143884524,0.02488,71.98976795,
0.0249,-0.5869760643,0.0249,71.62433766,
0.02492,-1.317836653,0.02492,72.35519825,
0.02494,-0.2215457701,0.02494,71.98976795,
0.02496,0.8747451124,0.02496,72.35519825,
0.02498,1.240175407,0.02498,71.98976795,
0.025,0.8747451124,0.025,72.72062854,
0.02502,1.240175407,0.02502,71.98976795,
0.02504,-0.5869760643,0.02504,71.98976795,
0.02506,0.5093148182,0.02506,71.62433766,
0.02508,0.143884524,0.02508,71.98976795,
0.0251,-0.5869760643,0.0251,71.98976795,
0.02512,-0.5869760643,0.02512,72.35519825,
0.02514,-2.414127535,0.02514,71.98976795,
0.02516,-2.414127535,0.02516,71.62433766,
0.02518,-1.683266947,0.02518,71.98976795,
0.0252,-2.414127535,0.0252,72.72062854,
0.02522,-0.2215457701,0.02522,71.98976795,
0.02524,0.143884524,0.02524,72.35519825,
0.02526,-1.683266947,0.02526,71.98976795,
0.02528,0.5093148182,0.02528,72.35519825,
0.0253,-0.5869760643,0.0253,71.98976795,
0.02532,-1.317836653,0.02532,71.62433766,
0.02534,-0.9524063585,0.02534,71.98976795,
0.02536,-1.317836653,0.02536,72.35519825,
0.02538,-0.9524063585,0.02538,71.98976795,
0.0254,-0.2215457701,0.0254,72.35519825,
0.02542,-0.5869760643,0.02542,71.62433766,
0.02544,0.143884524,0.02544,72.35519825,
0.02546,0.8747451124,0.02546,71.62433766,
0.02548,1.240175407,0.02548,71.98976795,
0.0255,0.8747451124,0.0255,71.98976795,
0.02552,0.143884524,0.02552,72.35519825,
0.02554,0.5093148182,0.02554,71.98976795,
0.02556,1.240175407,0.02556,72.35519825,
0.02558,0.8747451124,0.02558,71.62433766,
0.0256,-0.2215457701,0.0256,71.62433766,
0.02562,0.5093148182,0.02562,72.35519825,
0.02564,0.143884524,0.02564,71.98976795,
0.02566,-0.2215457701,0.02566,71.62433766,
0.02568,0.143884524,0.02568,71.98976795,
0.0257,0.143884524,0.0257,71.98976795,
0.02572,1.605605701,0.02572,71.98976795,
0.02574,0.8747451124,0.02574,71.62433766,
0.02576,2.336466289,0.02576,72.72062854,
0.02578,0.143884524,0.02578,71.62433766,
0.0258,0.8747451124,0.0258,71.62433766,
0.02582,0.8747451124,0.02582,72.35519825,
0.02584,0.143884524,0.02584,71.98976795,
0.02586,-0.2215457701,0.02586,71.62433766,
0.02588,-1.317836653,0.02588,72.35519825,
0.0259,-0.2215457701,0.0259,71.62433766,
0.02592,-1.683266947,0.02592,71.98976795,
0.02594,0.8747451124,0.02594,71.98976795,
0.02596,-0.5869760643,0.02596,71.62433766,
0.02598,0.5093148182,0.02598,71.25890736,
0.026,-0.2215457701,0.026,72.72062854,
0.02602,-0.9524063585,0.02602,71.62433766,
0.02604,-0.2215457701,0.02604,71.62433766,
0.02606,-2.414127535,0.02606,71.98976795,
0.02608,-2.779557829,0.02608,72.35519825,
0.0261,-2.048697241,0.0261,71.98976795,
0.02612,-2.048697241,0.02612,71.98976795,
0.02614,-2.779557829,0.02614,72.35519825,
0.02616,-2.779557829,0.02616,71.62433766,
0.02618,-1.317836653,0.02618,71.98976795,
0.0262,0.143884524,0.0262,71.62433766,
0.02622,-1.317836653,0.02622,71.62433766,
0.02624,-2.414127535,0.02624,71.98976795,
0.02626,-2.048697241,0.02626,71.98976795,
0.02628,-1.683266947,0.02628,71.62433766,
0.0263,-0.2215457701,0.0263,72.35519825,
0.02632,-1.317836653,0.02632,71.62433766,
0.02634,-1.683266947,0.02634,71.62433766,
0.02636,-0.2215457701,0.02636,71.98976795,
0.02638,-1.683266947,0.02638,71.62433766,
0.0264,-2.048697241,0.0264,71.62433766,
0.02642,-0.5869760643,0.02642,72.35519825,
0.02644,0.143884524,0.02644,71.62433766,
0.02646,1.240175407,0.02646,71.25890736,
0.02648,1.240175407,0.02648,71.98976795,
0.0265,0.5093148182,0.0265,71.98976795,
0.02652,0.8747451124,0.02652,71.98976795,
0.02654,0.5093148182,0.02654,72.35519825,
0.02656,-0.9524063585,0.02656,71.62433766,
0.02658,-0.2215457701,0.02658,71.62433766,
0.0266,0.5093148182,0.0266,72.35519825,
0.02662,-0.2215457701,0.02662,71.62433766,
0.02664,-0.5869760643,0.02664,71.98976795,
0.02666,0.143884524,0.02666,72.35519825,
0.02668,0.5093148182,0.02668,71.62433766,
0.0267,0.8747451124,0.0267,71.62433766,
0.02672,1.605605701,0.02672,71.98976795,
0.02674,0.5093148182,0.02674,71.98976795,
0.02676,0.8747451124,0.02676,71.62433766,
0.02678,1.605605701,0.02678,72.35519825,
0.0268,-0.2215457701,0.0268,71.98976795,
0.02682,-1.683266947,0.02682,71.25890736,
0.02684,-1.317836653,0.02684,72.35519825,
0.02686,-1.317836653,0.02686,71.62433766,
0.02688,-0.9524063585,0.02688,71.62433766,
0.0269,-0.9524063585,0.0269,72.35519825,
0.02692,0.5093148182,0.02692,71.62433766,
0.02694,1.240175407,0.02694,71.62433766,
0.02696,1.605605701,0.02696,72.35519825,
0.02698,0.5093148182,0.02698,72.35519825,
0.027,-1.317836653,0.027,71.62433766,
0.02702,-0.5869760643,0.02702,73.08605883,
0.02704,-2.048697241,0.02704,71.62433766,
0.02706,-0.2215457701,0.02706,71.25890736,
0.02708,-2.048697241,0.02708,72.72062854,
0.0271,-3.144988124,0.0271,71.62433766,
0.02712,-4.241279006,0.02712,71.25890736,
0.02714,-1.317836653,0.02714,71.98976795,
0.02716,-1.317836653,0.02716,71.98976795,
0.02718,-2.414127535,0.02718,70.89347707,
0.0272,-1.683266947,0.0272,72.72062854,
0.02722,-0.2215457701,0.02722,71.98976795,
0.02724,-0.9524063585,0.02724,71.98976795,
0.02726,-0.5869760643,0.02726,72.35519825,
0.02728,-2.048697241,0.02728,71.25890736,
0.0273,-1.317836653,0.0273,71.62433766,
0.02732,-1.317836653,0.02732,72.35519825,
0.02734,-2.779557829,0.02734,71.98976795,
0.02736,-0.2215457701,0.02736,71.98976795,
0.02738,-0.5869760643,0.02738,72.72062854,
0.0274,-0.5869760643,0.0274,71.98976795,
0.02742,0.5093148182,0.02742,71.98976795,
0.02744,1.971035995,0.02744,71.98976795,
0.02746,0.8747451124,0.02746,71.62433766,
0.02748,0.8747451124,0.02748,71.62433766,
0.0275,0.8747451124,0.0275,72.35519825,
0.02752,0.143884524,0.02752,71.98976795,
0.02754,0.143884524,0.02754,71.62433766,
0.02756,0.5093148182,0.02756,72.35519825,
0.02758,-0.2215457701,0.02758,72.35519825,
0.0276,0.5093148182,0.0276,71.62433766,
0.02762,1.240175407,0.02762,72.35519825,
0.02764,0.143884524,0.02764,71.98976795,
0.02766,0.8747451124,0.02766,72.35519825,
0.02768,1.605605701,0.02768,72.35519825,
0.0277,0.8747451124,0.0277,72.35519825,
0.02772,0.8747451124,0.02772,71.98976795,
0.02774,0.8747451124,0.02774,72.35519825,
0.02776,0.8747451124,0.02776,71.62433766,
0.02778,1.240175407,0.02778,71.62433766,
0.0278,0.5093148182,0.0278,71.98976795,
0.02782,-0.9524063585,0.02782,71.98976795,
0.02784,-1.683266947,0.02784,72.35519825,
0.02786,-1.683266947,0.02786,71.98976795,
0.02788,-0.5869760643,0.02788,71.62433766,
0.0279,0.8747451124,0.0279,71.98976795,
0.02792,0.8747451124,0.02792,73.08605883,
0.02794,-0.2215457701,0.02794,71.98976795,
0.02796,-0.2215457701,0.02796,71.98976795,
0.02798,0.5093148182,0.02798,72.35519825,
0.028,0.143884524,0.028,71.98976795,
0.02802,-2.048697241,0.02802,72.35519825,
0.02804,-2.414127535,0.02804,71.98976795,
0.02806,-3.144988124,0.02806,72.72062854,
0.02808,-1.317836653,0.02808,71.98976795,
0.0281,-3.875848712,0.0281,72.35519825,
0.02812,-2.414127535,0.02812,72.72062854,
0.02814,-1.317836653,0.02814,72.35519825,
0.02816,1.240175407,0.02816,71.98976795,
0.02818,-2.048697241,0.02818,71.62433766,
0.0282,-1.317836653,0.0282,71.62433766,
0.02822,-0.2215457701,0.02822,72.35519825,
0.02824,-2.048697241,0.02824,72.35519825,
0.02826,-1.317836653,0.02826,72.35519825,
0.02828,-0.5869760643,0.02828,72.35519825,
0.0283,-2.779557829,0.0283,71.98976795,
0.02832,-1.317836653,0.02832,71.98976795,
0.02834,-1.683266947,0.02834,72.35519825,
0.02836,-1.317836653,0.02836,71.98976795,
0.02838,0.143884524,0.02838,71.98976795,
0.0284,0.5093148182,0.0284,72.72062854,
0.02842,-0.2215457701,0.02842,71.98976795,
0.02844,1.240175407,0.02844,71.98976795,
0.02846,0.143884524,0.02846,71.98976795,
0.02848,0.5093148182,0.02848,71.62433766,
0.0285,0.143884524,0.0285,71.98976795,
0.02852,0.5093148182,0.02852,72.35519825,
0.02854,0.8747451124,0.02854,71.62433766,
0.02856,1.240175407,0.02856,71.62433766,
0.02858,0.5093148182,0.02858,72.72062854,
0.0286,-0.9524063585,0.0286,71.98976795,
0.02862,0.8747451124,0.02862,72.35519825,
0.02864,0.143884524,0.02864,71.62433766,
0.02866,1.971035995,0.02866,71.98976795,
0.02868,1.971035995,0.02868,71.98976795,
0.0287,2.701896583,0.0287,71.62433766,
0.02872,1.605605701,0.02872,71.98976795,
0.02874,1.240175407,0.02874,72.35519825,
0.02876,0.8747451124,0.02876,72.35519825,
0.02878,0.5093148182,0.02878,71.98976795,
0.0288,-0.5869760643,0.0288,71.98976795,
0.02882,-0.2215457701,0.02882,72.35519825,
0.02884,-0.9524063585,0.02884,71.62433766,
0.02886,0.5093148182,0.02886,71.62433766,
0.02888,0.5093148182,0.02888,71.62433766,
0.0289,0.8747451124,0.0289,71.62433766,
0.02892,0.8747451124,0.02892,71.62433766,
0.02894,-0.2215457701,0.02894,72.72062854,
0.02896,1.240175407,0.02896,71.62433766,
0.02898,-0.5869760643,0.02898,72.35519825,
0.029,-2.414127535,0.029,71.25890736,
0.02902,-2.779557829,0.02902,71.98976795,
0.02904,-4.6067093,0.02904,72.72062854,
0.02906,-2.779557829,0.02906,72.35519825,
0.02908,-3.510418418,0.02908,72.35519825,
0.0291,-3.144988124,0.0291,72.35519825,
0.02912,-1.683266947,0.02912,71.98976795,
0.02914,-0.5869760643,0.02914,72.35519825,
0.02916,-1.683266947,0.02916,72.35519825,
0.02918,-0.5869760643,0.02918,71.25890736,
0.0292,0.5093148182,0.0292,71.25890736,
0.02922,-1.317836653,0.02922,71.98976795,
0.02924,-1.683266947,0.02924,71.98976795,
0.02926,-2.414127535,0.02926,71.62433766,
0.02928,-2.048697241,0.02928,72.35519825,
0.0293,-2.414127535,0.0293,71.62433766,
0.02932,-0.9524063585,0.02932,71.98976795,
0.02934,-0.2215457701,0.02934,72.35519825,
0.02936,-0.2215457701,0.02936,71.98976795,
0.02938,0.5093148182,0.02938,71.98976795,
0.0294,-0.5869760643,0.0294,72.35519825,
0.02942,0.143884524,0.02942,71.98976795,
0.02944,1.240175407,0.02944,71.98976795,
0.02946,-0.2215457701,0.02946,72.72062854,
0.02948,0.8747451124,0.02948,71.62433766,
0.0295,0.5093148182,0.0295,71.98976795,
0.02952,0.5093148182,0.02952,71.98976795,
0.02954,0.8747451124,0.02954,71.25890736,
0.02956,0.5093148182,0.02956,71.62433766,
0.02958,0.5093148182,0.02958,71.98976795,
0.0296,-0.9524063585,0.0296,71.25890736,
0.02962,1.240175407,0.02962,71.98976795,
0.02964,1.240175407,0.02964,71.98976795,
0.02966,0.8747451124,0.02966,71.25890736,
0.02968,1.605605701,0.02968,71.98976795,
0.0297,1.605605701,0.0297,71.98976795,
0.02972,0.8747451124,0.02972,71.25890736,
0.02974,0.8747451124,0.02974,71.98976795,
0.02976,-0.2215457701,0.02976,71.98976795,
0.02978,-0.9524063585,0.02978,71.62433766,
0.0298,0.143884524,0.0298,71.98976795,
0.02982,-0.5869760643,0.02982,71.98976795,
0.02984,-0.9524063585,0.02984,71.62433766,
0.02986,0.5093148182,0.02986,71.62433766,
0.02988,1.605605701,0.02988,72.35519825,
0.0299,0.143884524,0.0299,71.62433766,
0.02992,-0.9524063585,0.02992,71.98976795,
0.02994,0.5093148182,0.02994,71.98976795,
0.02996,-1.683266947,0.02996,71.62433766,
0.02998,-0.2215457701,0.02998,71.25890736,
0.03,-0.2215457701,0.03,72.35519825,
0.03002,-2.414127535,0.03002,70.89347707,
0.03004,-0.5869760643,0.03004,71.98976795,
0.03006,-3.510418418,0.03006,71.62433766,
0.03008,-0.9524063585,0.03008,71.98976795,
0.0301,-0.5869760643,0.0301,72.35519825,
0.03012,0.143884524,0.03012,72.35519825,
0.03014,-0.2215457701,0.03014,71.62433766,
0.03016,-0.5869760643,0.03016,72.35519825,
0.03018,-1.317836653,0.03018,71.98976795,
0.0302,-2.414127535,0.0302,71.25890736,
0.03022,-1.317836653,0.03022,71.98976795,
0.03024,-1.317836653,0.03024,71.98976795,
0.03026,-1.317836653,0.03026,71.25890736,
0.03028,-1.317836653,0.03028,71.98976795,
0.0303,-1.317836653,0.0303,71.62433766,
0.03032,-0.2215457701,0.03032,71.62433766,
0.03034,1.240175407,0.03034,71.98976795,
0.03036,0.8747451124,0.03036,71.62433766,
0.03038,0.8747451124,0.03038,71.62433766,
0.0304,0.8747451124,0.0304,71.98976795,
0.03042,0.5093148182,0.03042,71.25890736,
0.03044,0.5093148182,0.03044,71.62433766,
0.03046,1.605605701,0.03046,72.35519825,
0.03048,-0.5869760643,0.03048,71.98976795,
0.0305,-0.2215457701,0.0305,71.62433766,
0.03052,-0.9524063585,0.03052,71.98976795,
0.03054,0.5093148182,0.03054,71.62433766,
0.03056,0.5093148182,0.03056,71.25890736,
0.03058,1.971035995,0.03058,71.98976795,
0.0306,1.971035995,0.0306,71.62433766,
0.03062,1.971035995,0.03062,71.62433766,
0.03064,1.240175407,0.03064,71.98976795,
0.03066,0.8747451124,0.03066,71.62433766,
0.03068,0.5093148182,0.03068,70.89347707,
0.0307,1.240175407,0.0307,71.98976795,
0.03072,1.240175407,0.03072,71.98976795,
0.03074,-0.9524063585,0.03074,71.98976795,
0.03076,-0.9524063585,0.03076,72.35519825,
0.03078,0.143884524,0.03078,72.35519825,
0.0308,-1.683266947,0.0308,71.25890736,
0.03082,0.8747451124,0.03082,71.62433766,
0.03084,0.143884524,0.03084,71.98976795,
0.03086,0.8747451124,0.03086,70.89347707,
0.03088,0.143884524,0.03088,71.98976795,
0.0309,0.5093148182,0.0309,72.35519825,
0.03092,-0.5869760643,0.03092,70.89347707,
0.03094,-1.317836653,0.03094,71.62433766,
0.03096,-1.683266947,0.03096,71.62433766,
0.03098,-3.875848712,0.03098,70.89347707,
0.031,-2.414127535,0.031,71.62433766,
0.03102,-3.510418418,0.03102,72.35519825,
0.03104,-2.779557829,0.03104,71.62433766,
0.03106,-0.5869760643,0.03106,71.98976795,
0.03108,-1.317836653,0.03108,71.98976795,
0.0311,-0.5869760643,0.0311,72.35519825,
0.03112,-0.9524063585,0.03112,72.35519825,
0.03114,-0.5869760643,0.03114,72.35519825,
0.03116,-0.2215457701,0.03116,71.25890736,
0.03118,-0.9524063585,0.03118,71.62433766,
0.0312,-0.2215457701,0.0312,71.62433766,
0.03122,-0.5869760643,0.03122,71.62433766,
0.03124,-0.5869760643,0.03124,71.98976795,
0.03126,-0.9524063585,0.03126,71.62433766,
0.03128,-1.317836653,0.03128,71.62433766,
0.0313,-0.9524063585,0.0313,71.98976795,
0.03132,-0.2215457701,0.03132,71.98976795,
0.03134,0.143884524,0.03134,71.25890736,
0.03136,1.240175407,0.03136,72.35519825,
0.03138,0.5093148182,0.03138,71.98976795,
0.0314,0.8747451124,0.0314,71.98976795,
0.03142,0.8747451124,0.03142,71.62433766,
0.03144,-0.2215457701,0.03144,71.62433766,
0.03146,0.5093148182,0.03146,72.35519825,
0.03148,-0.5869760643,0.03148,71.62433766,
0.0315,0.143884524,0.0315,71.98976795,
0.03152,-0.9524063585,0.03152,72.35519825,
0.03154,0.143884524,0.03154,71.98976795,
0.03156,1.240175407,0.03156,72.35519825,
0.03158,0.5093148182,0.03158,72.72062854,
0.0316,0.8747451124,0.0316,71.98976795,
0.03162,1.240175407,0.03162,71.62433766,
0.03164,1.971035995,0.03164,72.35519825,
0.03166,0.143884524,0.03166,71.98976795,
0.03168,0.8747451124,0.03168,71.62433766,
0.0317,0.5093148182,0.0317,72.35519825,
0.03172,-0.9524063585,0.03172,71.62433766,
0.03174,-0.2215457701,0.03174,71.62433766,
0.03176,-0.5869760643,0.03176,71.98976795,
0.03178,-0.9524063585,0.03178,71.25890736,
0.0318,-0.5869760643,0.0318,71.25890736,
0.03182,0.143884524,0.03182,71.98976795,
0.03184,-0.2215457701,0.03184,71.62433766,
0.03186,0.143884524,0.03186,71.25890736,
0.03188,0.143884524,0.03188,72.35519825,
0.0319,-2.414127535,0.0319,72.72062854,
0.03192,-0.5869760643,0.03192,71.98976795,
0.03194,-1.683266947,0.03194,72.72062854,
0.03196,-3.510418418,0.03196,72.35519825,
0.03198,-2.779557829,0.03198,71.62433766,
0.032,-1.317836653,0.032,71.98976795,
0.03202,-2.779557829,0.03202,71.98976795,
0.03204,-2.048697241,0.03204,71.62433766,
0.03206,0.8747451124,0.03206,72.35519825,
0.03208,-0.9524063585,0.03208,71.62433766,
0.0321,0.143884524,0.0321,71.62433766,
0.03212,-0.9524063585,0.03212,71.62433766,
0.03214,-0.9524063585,0.03214,71.98976795,
0.03216,-1.683266947,0.03216,71.25890736,
0.03218,-2.048697241,0.03218,71.98976795,
0.0322,-2.414127535,0.0322,71.62433766,
0.03222,-2.414127535,0.03222,71.62433766,
0.03224,-1.683266947,0.03224,72.35519825,
0.03226,-1.683266947,0.03226,71.98976795,
0.03228,-1.317836653,0.03228,72.35519825,
0.0323,1.605605701,0.0323,72.35519825,
0.03232,0.5093148182,0.03232,71.62433766,
0.03234,-0.2215457701,0.03234,71.98976795,
0.03236,0.8747451124,0.03236,72.35519825,
0.03238,0.143884524,0.03238,71.98976795,
0.0324,0.143884524,0.0324,71.62433766,
0.03242,0.8747451124,0.03242,72.35519825,
0.03244,-0.5869760643,0.03244,72.35519825,
0.03246,-0.2215457701,0.03246,71.98976795,
0.03248,0.143884524,0.03248,72.35519825,
0.0325,-0.5869760643,0.0325,71.62433766,
0.03252,0.5093148182,0.03252,71.98976795,
0.03254,0.143884524,0.03254,71.98976795,
0.03256,1.240175407,0.03256,71.98976795,
0.03258,1.240175407,0.03258,71.62433766,
0.0326,0.8747451124,0.0326,72.35519825,
0.03262,0.143884524,0.03262,71.98976795,
0.03264,0.5093148182,0.03264,71.98976795,
0.03266,1.240175407,0.03266,72.35519825,
0.03268,-0.5869760643,0.03268,71.98976795,
0.0327,0.143884524,0.0327,71.62433766,
0.03272,-0.9524063585,0.03272,72.35519825,
0.03274,-1.683266947,0.03274,71.98976795,
0.03276,-0.5869760643,0.03276,71.62433766,
0.03278,1.240175407,0.03278,72.35519825,
0.0328,0.143884524,0.0328,71.98976795,
0.03282,1.240175407,0.03282,71.98976795,
0.03284,0.8747451124,0.03284,72.35519825,
0.03286,-1.317836653,0.03286,71.62433766,
0.03288,-0.5869760643,0.03288,71.62433766,
0.0329,-0.5869760643,0.0329,72.35519825,
0.03292,-2.048697241,0.03292,71.25890736,
0.03294,-2.779557829,0.03294,71.25890736,
0.03296,-3.875848712,0.03296,73.08605883,
0.03298,-4.241279006,0.03298,71.98976795,
0.033,-3.875848712,0.033,71.62433766,
0.03302,-1.683266947,0.03302,72.72062854,
0.03304,-0.9524063585,0.03304,72.35519825,
0.03306,0.143884524,0.03306,71.98976795,
0.03308,-0.9524063585,0.03308,72.35519825,
0.0331,-1.317836653,0.0331,72.35519825,
0.03312,-1.317836653,0.03312,71.98976795,
0.03314,-1.683266947,0.03314,72.72062854,
0.03316,-1.683266947,0.03316,71.98976795,
0.03318,-1.683266947,0.03318,71.62433766,
0.0332,-0.9524063585,0.0332,72.35519825,
0.03322,-2.048697241,0.03322,71.25890736,
0.03324,-0.5869760643,0.03324,71.62433766,
0.03326,0.143884524,0.03326,71.98976795,
0.03328,1.240175407,0.03328,72.72062854,
0.0333,1.240175407,0.0333,72.35519825,
0.03332,1.240175407,0.03332,71.62433766,
0.03334,0.8747451124,0.03334,71.98976795,
0.03336,0.8747451124,0.03336,71.98976795,
0.03338,-0.2215457701,0.03338,71.62433766,
0.0334,0.5093148182,0.0334,71.98976795,
0.03342,0.5093148182,0.03342,72.72062854,
0.03344,0.143884524,0.03344,71.98976795,
0.03346,0.143884524,0.03346,71.98976795,
0.03348,0.143884524,0.03348,72.35519825,
0.0335,0.5093148182,0.0335,71.98976795,
0.03352,1.240175407,0.03352,71.62433766,
0.03354,1.971035995,0.03354,71.98976795,
0.03356,1.605605701,0.03356,71.98976795,
0.03358,2.701896583,0.03358,72.35519825,
0.0336,1.605605701,0.0336,71.98976795,
0.03362,0.5093148182,0.03362,72.35519825,
0.03364,0.5093148182,0.03364,71.62433766,
0.03366,-0.5869760643,0.03366,71.98976795,
0.03368,-0.9524063585,0.03368,71.62433766,
0.0337,-1.683266947,0.0337,71.98976795,
0.03372,0.143884524,0.03372,72.72062854,
0.03374,-0.9524063585,0.03374,71.62433766,
0.03376,1.240175407,0.03376,71.62433766,
0.03378,2.336466289,0.03378,71.25890736,
0.0338,0.8747451124,0.0338,71.62433766,
0.03382,-1.317836653,0.03382,71.98976795,
0.03384,-0.5869760643,0.03384,71.25890736,
0.03386,-2.048697241,0.03386,72.35519825,
0.03388,-1.317836653,0.03388,71.25890736,
0.0339,-1.683266947,0.0339,71.62433766,
0.03392,-0.5869760643,0.03392,71.98976795,
0.03394,-3.144988124,0.03394,71.98976795,
0.03396,-1.683266947,0.03396,72.35519825,
0.03398,-3.144988124,0.03398,71.62433766,
0.034,-0.2215457701,0.034,72.35519825,
0.03402,-0.5869760643,0.03402,71.62433766,
0.03404,-0.5869760643,0.03404,71.62433766,
0.03406,-0.2215457701,0.03406,71.98976795,
0.03408,-0.5869760643,0.03408,72.35519825,
0.0341,0.143884524,0.0341,72.35519825,
0.03412,-1.317836653,0.03412,72.35519825,
0.03414,-0.9524063585,0.03414,71.98976795,
0.03416,-1.683266947,0.03416,72.35519825,
0.03418,-0.5869760643,0.03418,71.98976795,
0.0342,0.5093148182,0.0342,71.98976795,
0.03422,-0.9524063585,0.03422,72.35519825,
0.03424,0.5093148182,0.03424,71.62433766,
0.03426,0.5093148182,0.03426,71.62433766,
0.03428,0.143884524,0.03428,72.35519825,
0.0343,0.5093148182,0.0343,72.35519825,
0.03432,1.240175407,0.03432,71.25890736,
0.03434,-0.2215457701,0.03434,71.98976795,
0.03436,-0.5869760643,0.03436,71.62433766,
0.03438,0.143884524,0.03438,71.98976795,
0.0344,-0.5869760643,0.0344,71.98976795,
0.03442,0.143884524,0.03442,71.98976795,
0.03444,-0.5869760643,0.03444,71.98976795,
0.03446,0.8747451124,0.03446,72.35519825,
0.03448,0.143884524,0.03448,71.62433766,
0.0345,0.143884524,0.0345,71.98976795,
0.03452,1.605605701,0.03452,72.35519825,
0.03454,0.8747451124,0.03454,71.98976795,
0.03456,1.605605701,0.03456,71.62433766,
0.03458,1.605605701,0.03458,72.35519825,
0.0346,0.143884524,0.0346,71.62433766,
0.03462,1.605605701,0.03462,71.62433766,
0.03464,-0.9524063585,0.03464,72.72062854,
0.03466,-0.9524063585,0.03466,71.98976795,
0.03468,-0.5869760643,0.03468,71.62433766,
0.0347,-0.2215457701,0.0347,72.35519825,
0.03472,-1.683266947,0.03472,71.98976795,
0.03474,0.143884524,0.03474,71.25890736,
0.03476,0.8747451124,0.03476,72.35519825,
0.03478,-0.2215457701,0.03478,71.98976795,
0.0348,0.8747451124,0.0348,71.98976795,
0.03482,-1.317836653,0.03482,72.35519825,
0.03484,-1.317836653,0.03484,71.98976795,
0.03486,-0.2215457701,0.03486,72.35519825,
0.03488,-0.2215457701,0.03488,71.98976795,
0.0349,-2.779557829,0.0349,71.62433766,
0.03492,-2.414127535,0.03492,72.72062854,
0.03494,-0.2215457701,0.03494,72.35519825,
0.03496,-1.683266947,0.03496,71.98976795,
0.03498,-0.9524063585,0.03498,71.62433766,
0.035,-0.2215457701,0.035,72.35519825,
0.03502,0.5093148182,0.03502,70.89347707,
0.03504,0.5093148182,0.03504,71.25890736,
0.03506,-0.5869760643,0.03506,72.35519825,
0.03508,-1.683266947,0.03508,71.62433766,
0.0351,-1.683266947,0.0351,71.62433766,
0.03512,-1.317836653,0.03512,72.35519825,
0.03514,-1.317836653,0.03514,72.35519825,
0.03516,-1.683266947,0.03516,71.62433766,
0.03518,-0.9524063585,0.03518,72.35519825,
0.0352,-0.5869760643,0.0352,71.98976795,
0.03522,-0.2215457701,0.03522,71.62433766,
0.03524,1.240175407,0.03524,71.98976795,
0.03526,0.143884524,0.03526,71.62433766,
0.03528,1.605605701,0.03528,71.25890736,
0.0353,-0.2215457701,0.0353,72.72062854,
0.03532,-0.2215457701,0.03532,71.98976795,
0.03534,0.8747451124,0.03534,71.62433766,
0.03536,0.8747451124,0.03536,71.98976795,
0.03538,0.143884524,0.03538,71.62433766,
0.0354,-0.5869760643,0.0354,71.98976795,
0.03542,-0.2215457701,0.03542,71.98976795,
0.03544,-0.5869760643,0.03544,71.62433766,
0.03546,1.240175407,0.03546,71.62433766,
0.03548,2.336466289,0.03548,72.35519825,
0.0355,1.240175407,0.0355,72.35519825,
0.03552,1.971035995,0.03552,71.62433766,
0.03554,0.5093148182,0.03554,72.35519825,
0.03556,0.8747451124,0.03556,71.62433766,
0.03558,0.8747451124,0.03558,71.98976795,
0.0356,1.240175407,0.0356,72.35519825,
0.03562,-1.317836653,0.03562,71.98976795,
0.03564,-0.5869760643,0.03564,71.62433766,
0.03566,-1.317836653,0.03566,72.35519825,
0.03568,-0.5869760643,0.03568,71.98976795,
0.0357,-0.9524063585,0.0357,72.35519825,
0.03572,0.5093148182,0.03572,72.35519825,
0.03574,0.5093148182,0.03574,72.35519825,
0.03576,-0.2215457701,0.03576,71.62433766,
0.03578,0.8747451124,0.03578,72.72062854,
0.0358,0.5093148182,0.0358,71.25890736,
0.03582,-1.317836653,0.03582,71.62433766,
0.03584,-0.9524063585,0.03584,71.62433766,
0.03586,-3.510418418,0.03586,71.98976795,
0.03588,-2.779557829,0.03588,71.25890736,
0.0359,-2.414127535,0.0359,71.98976795,
0.03592,-1.683266947,0.03592,71.62433766,
0.03594,-2.414127535,0.03594,71.62433766,
0.03596,-0.5869760643,0.03596,72.35519825,
0.03598,-0.2215457701,0.03598,72.35519825,
0.036,-0.9524063585,0.036,71.62433766,
0.03602,-0.9524063585,0.03602,71.98976795,
0.03604,-0.9524063585,0.03604,71.98976795,
0.03606,-0.5869760643,0.03606,71.98976795,
0.03608,-1.683266947,0.03608,71.98976795,
0.0361,-2.414127535,0.0361,71.98976795,
0.03612,-0.9524063585,0.03612,71.62433766,
0.03614,-1.317836653,0.03614,71.98976795,
0.03616,-1.683266947,0.03616,71.98976795,
0.03618,0.5093148182,0.03618,71.62433766,
0.0362,1.240175407,0.0362,72.35519825,
0.03622,0.143884524,0.03622,72.35519825,
0.03624,0.5093148182,0.03624,71.62433766,
0.03626,1.240175407,0.03626,72.72062854,
0.03628,-0.2215457701,0.03628,72.35519825,
0.0363,0.143884524,0.0363,72.35519825,
0.03632,0.5093148182,0.03632,72.35519825,
0.03634,0.143884524,0.03634,71.98976795,
0.03636,1.240175407,0.03636,71.62433766,
0.03638,0.5093148182,0.03638,72.72062854,
0.0364,-0.5869760643,0.0364,71.98976795,
0.03642,-0.2215457701,0.03642,71.98976795,
0.03644,1.240175407,0.03644,72.35519825,
0.03646,0.8747451124,0.03646,71.62433766,
0.03648,1.605605701,0.03648,71.62433766,
0.0365,2.336466289,0.0365,72.72062854,
0.03652,0.5093148182,0.03652,72.35519825,
0.03654,2.701896583,0.03654,71.62433766,
0.03656,1.605605701,0.03656,71.98976795,
0.03658,0.8747451124,0.03658,71.62433766,
0.0366,0.5093148182,0.0366,71.25890736,
0.03662,0.5093148182,0.03662,71.98976795,
0.03664,-1.683266947,0.03664,71.98976795,
0.03666,-0.2215457701,0.03666,71.62433766,
0.03668,0.143884524,0.03668,71.62433766,
0.0367,-0.5869760643,0.0367,72.35519825,
0.03672,0.143884524,0.03672,71.98976795,
0.03674,1.971035995,0.03674,72.72062854,
0.03676,-0.2215457701,0.03676,71.62433766,
0.03678,-0.2215457701,0.03678,71.62433766,
0.0368,-1.683266947,0.0368,71.98976795,
0.03682,-1.317836653,0.03682,71.98976795,
0.03684,-2.414127535,0.03684,71.62433766,
0.03686,-2.048697241,0.03686,71.25890736,
0.03688,-3.144988124,0.03688,71.62433766,
0.0369,-2.414127535,0.0369,71.62433766,
0.03692,-2.048697241,0.03692,72.72062854,
0.03694,-0.5869760643,0.03694,71.98976795,
0.03696,0.5093148182,0.03696,71.25890736,
0.03698,0.143884524,0.03698,72.72062854,
0.037,1.605605701,0.037,72.35519825,
0.03702,-0.2215457701,0.03702,72.35519825,
0.03704,0.143884524,0.03704,72.35519825,
0.03706,-0.2215457701,0.03706,71.98976795,
0.03708,-1.317836653,0.03708,71.98976795,
0.0371,-0.5869760643,0.0371,72.35519825,
0.03712,-0.9524063585,0.03712,72.35519825,
0.03714,-0.2215457701,0.03714,71.98976795,
0.03716,-0.5869760643,0.03716,72.72062854,
0.03718,-0.2215457701,0.03718,72.35519825,
0.0372,0.5093148182,0.0372,71.62433766,
0.03722,1.240175407,0.03722,72.35519825,
0.03724,0.8747451124,0.03724,71.62433766,
0.03726,0.5093148182,0.03726,71.98976795,
0.03728,1.240175407,0.03728,72.35519825,
0.0373,-0.2215457701,0.0373,71.98976795,
0.03732,0.8747451124,0.03732,71.98976795,
0.03734,0.143884524,0.03734,72.35519825,
0.03736,0.143884524,0.03736,71.98976795,
0.03738,0.5093148182,0.03738,71.98976795,
0.0374,0.8747451124,0.0374,72.35519825,
0.03742,0.143884524,0.03742,71.62433766,
0.03744,1.240175407,0.03744,71.62433766,
0.03746,1.605605701,0.03746,71.98976795,
0.03748,0.8747451124,0.03748,71.98976795,
0.0375,0.8747451124,0.0375,71.62433766,
0.03752,1.605605701,0.03752,72.35519825,
0.03754,0.8747451124,0.03754,71.98976795,
0.03756,-0.5869760643,0.03756,71.98976795,
0.03758,1.240175407,0.03758,72.35519825,
0.0376,-0.5869760643,0.0376,71.62433766,
0.03762,-0.2215457701,0.03762,71.98976795,
0.03764,-0.5869760643,0.03764,73.08605883,
0.03766,-0.5869760643,0.03766,71.98976795,
0.03768,1.240175407,0.03768,71.62433766,
0.0377,1.240175407,0.0377,72.72062854,
0.03772,-0.2215457701,0.03772,71.98976795,
0.03774,-1.683266947,0.03774,71.98976795,
0.03776,-1.683266947,0.03776,71.98976795,
0.03778,-1.683266947,0.03778,71.98976795,
0.0378,0.143884524,0.0378,71.62433766,
0.03782,-0.5869760643,0.03782,73.08605883,
0.03784,-4.241279006,0.03784,71.62433766,
0.03786,-1.683266947,0.03786,72.35519825,
0.03788,-2.414127535,0.03788,72.35519825,
0.0379,-0.5869760643,0.0379,71.98976795,
0.03792,-0.5869760643,0.03792,71.98976795,
0.03794,0.8747451124,0.03794,73.08605883,
0.03796,-0.9524063585,0.03796,72.35519825,
0.03798,-1.317836653,0.03798,72.72062854,
0.038,0.5093148182,0.038,72.35519825,
0.03802,-0.9524063585,0.03802,71.62433766,
0.03804,-0.5869760643,0.03804,71.25890736,
0.03806,-1.317836653,0.03806,71.62433766,
0.03808,-0.2215457701,0.03808,71.62433766,
0.0381,-0.5869760643,0.0381,71.98976795,
0.03812,-0.9524063585,0.03812,71.25890736,
0.03814,0.5093148182,0.03814,71.98976795,
0.03816,-0.2215457701,0.03816,71.98976795,
0.03818,0.8747451124,0.03818,71.25890736,
0.0382,1.240175407,0.0382,71.62433766,
0.03822,1.605605701,0.03822,71.98976795,
0.03824,0.143884524,0.03824,71.25890736,
0.03826,0.8747451124,0.03826,71.98976795,
0.03828,-0.2215457701,0.03828,71.62433766,
0.0383,-0.5869760643,0.0383,71.62433766,
0.03832,-0.2215457701,0.03832,71.98976795,
0.03834,-0.5869760643,0.03834,71.98976795,
0.03836,-0.2215457701,0.03836,71.62433766,
0.03838,-0.2215457701,0.03838,71.98976795,
0.0384,0.143884524,0.0384,71.62433766,
0.03842,1.605605701,0.03842,71.62433766,
0.03844,1.971035995,0.03844,71.98976795,
0.03846,0.5093148182,0.03846,71.98976795,
0.03848,1.240175407,0.03848,71.62433766,
0.0385,1.971035995,0.0385,71.62433766,
0.03852,1.605605701,0.03852,71.98976795,
0.03854,0.143884524,0.03854,71.25890736,
0.03856,-0.2215457701,0.03856,71.98976795,
0.03858,0.5093148182,0.03858,71.62433766,
0.0386,0.143884524,0.0386,71.98976795,
0.03862,0.143884524,0.03862,71.98976795,
0.03864,-0.5869760643,0.03864,71.62433766,
0.03866,0.5093148182,0.03866,71.62433766,
0.03868,0.5093148182,0.03868,71.98976795,
0.0387,0.8747451124,0.0387,72.35519825,
0.03872,0.143884524,0.03872,71.25890736,
0.03874,0.143884524,0.03874,71.62433766,
0.03876,-0.9524063585,0.03876,71.98976795,
0.03878,-1.317836653,0.03878,71.25890736,
0.0388,-2.048697241,0.0388,72.35519825,
0.03882,-2.414127535,0.03882,71.62433766,
0.03884,-3.510418418,0.03884,71.62433766,
0.03886,-1.683266947,0.03886,71.98976795,
0.03888,-0.9524063585,0.03888,71.62433766,
0.0389,-0.5869760643,0.0389,70.89347707,
0.03892,1.240175407,0.03892,71.25890736,
0.03894,-0.5869760643,0.03894,71.98976795,
0.03896,1.240175407,0.03896,71.62433766,
0.03898,1.240175407,0.03898,71.62433766,
0.039,-0.9524063585,0.039,71.98976795,
0.03902,-0.9524063585,0.03902,71.62433766,
0.03904,-0.9524063585,0.03904,71.98976795,
0.03906,-0.5869760643,0.03906,72.35519825,
0.03908,-1.317836653,0.03908,72.35519825,
0.0391,-0.9524063585,0.0391,71.98976795,
0.03912,0.5093148182,0.03912,71.98976795,
0.03914,1.605605701,0.03914,71.62433766,
0.03916,1.971035995,0.03916,71.98976795,
0.03918,1.240175407,0.03918,71.98976795,
0.0392,1.240175407,0.0392,71.98976795,
0.03922,1.240175407,0.03922,71.98976795,
0.03924,0.5093148182,0.03924,71.98976795,
0.03926,0.143884524,0.03926,72.72062854,
0.03928,-0.2215457701,0.03928,71.98976795,
0.0393,0.5093148182,0.0393,71.98976795,
0.03932,-0.2215457701,0.03932,72.35519825,
0.03934,0.143884524,0.03934,71.98976795,
0.03936,0.8747451124,0.03936,71.62433766,
0.03938,1.605605701,0.03938,72.35519825,
0.0394,1.240175407,0.0394,71.98976795,
0.03942,2.336466289,0.03942,71.98976795,
0.03944,1.605605701,0.03944,71.98976795,
0.03946,1.240175407,0.03946,71.98976795,
0.03948,0.8747451124,0.03948,71.25890736,
0.0395,0.8747451124,0.0395,72.35519825,
0.03952,0.8747451124,0.03952,71.98976795,
0.03954,0.5093148182,0.03954,71.98976795,
0.03956,-0.9524063585,0.03956,72.35519825,
0.03958,-0.2215457701,0.03958,72.35519825,
0.0396,0.8747451124,0.0396,71.62433766,
0.03962,0.143884524,0.03962,71.98976795,
0.03964,-0.2215457701,0.03964,71.62433766,
0.03966,-0.5869760643,0.03966,71.62433766,
0.03968,0.8747451124,0.03968,71.25890736,
0.0397,0.143884524,0.0397,71.98976795,
0.03972,0.143884524,0.03972,71.98976795,
0.03974,-2.779557829,0.03974,71.98976795,
0.03976,-3.144988124,0.03976,72.72062854,
0.03978,-0.9524063585,0.03978,71.62433766,
0.0398,-2.048697241,0.0398,72.72062854,
0.03982,-2.779557829,0.03982,71.62433766,
0.03984,-0.9524063585,0.03984,71.98976795,
0.03986,-0.5869760643,0.03986,72.35519825,
0.03988,0.5093148182,0.03988,71.98976795,
0.0399,0.143884524,0.0399,71.62433766,
0.03992,-1.683266947,0.03992,71.98976795,
0.03994,0.143884524,0.03994,71.25890736,
0.03996,0.143884524,0.03996,71.25890736,
0.03998,-0.5869760643,0.03998,72.35519825,
0.04,-2.414127535,0.04,72.35519825,
0.04002,-1.317836653,0.04002,71.62433766,
0.04004,-1.317836653,0.04004,72.35519825,
0.04006,-0.5869760643,0.04006,72.35519825,
0.04008,-0.2215457701,0.04008,71.62433766,
0.0401,0.5093148182,0.0401,72.72062854,
0.04012,0.5093148182,0.04012,71.98976795,
0.04014,1.240175407,0.04014,71.62433766,
0.04016,1.605605701,0.04016,72.35519825,
0.04018,0.5093148182,0.04018,71.98976795,
0.0402,1.240175407,0.0402,71.98976795,
0.04022,1.240175407,0.04022,72.35519825,
0.04024,0.143884524,0.04024,71.98976795,
0.04026,1.605605701,0.04026,71.98976795,
0.04028,0.5093148182,0.04028,72.35519825,
0.0403,0.143884524,0.0403,72.35519825,
0.04032,-0.5869760643,0.04032,72.35519825,
0.04034,0.143884524,0.04034,72.35519825,
0.04036,0.5093148182,0.04036,71.62433766,
0.04038,2.336466289,0.04038,71.62433766,
0.0404,1.605605701,0.0404,71.98976795,
0.04042,1.605605701,0.04042,71.62433766,
0.04044,2.336466289,0.04044,71.98976795,
0.04046,1.240175407,0.04046,71.98976795,
0.04048,0.5093148182,0.04048,72.35519825,
0.0405,0.5093148182,0.0405,71.62433766,
0.04052,-0.5869760643,0.04052,72.35519825,
0.04054,-1.317836653,0.04054,71.98976795,
0.04056,-0.9524063585,0.04056,71.62433766,
0.04058,-0.2215457701,0.04058,72.35519825,
0.0406,-0.5869760643,0.0406,71.98976795,
0.04062,1.971035995,0.04062,72.35519825,
0.04064,1.240175407,0.04064,72.35519825,
0.04066,0.5093148182,0.04066,71.62433766,
0.04068,0.143884524,0.04068,71.25890736,
0.0407,0.143884524,0.0407,71.25890736,
0.04072,-1.317836653,0.04072,71.98976795,
0.04074,-1.683266947,0.04074,72.35519825,
0.04076,-0.9524063585,0.04076,71.62433766,
0.04078,-2.779557829,0.04078,71.98976795,
0.0408,-2.414127535,0.0408,71.98976795,
0.04082,-2.414127535,0.04082,72.35519825,
0.04084,-2.048697241,0.04084,71.25890736,
0.04086,-0.2215457701,0.04086,72.35519825,
0.04088,-0.2215457701,0.04088,71.98976795,
0.0409,-0.5869760643,0.0409,71.98976795,
0.04092,0.143884524,0.04092,72.35519825,
0.04094,-0.2215457701,0.04094,71.98976795,
0.04096,0.143884524,0.04096,71.62433766,
0.04098,-0.2215457701,0.04098,71.98976795,
0.041,-0.9524063585,0.041,71.62433766,
0.04102,-0.5869760643,0.04102,71.62433766,
0.04104,0.143884524,0.04104,71.98976795,
0.04106,0.8747451124,0.04106,71.98976795,
0.04108,0.8747451124,0.04108,71.25890736,
0.0411,1.240175407,0.0411,71.98976795,
0.04112,0.8747451124,0.04112,71.98976795,
0.04114,-0.2215457701,0.04114,71.62433766,
0.04116,1.605605701,0.04116,71.62433766,
0.04118,0.8747451124,0.04118,71.98976795,
0.0412,-0.5869760643,0.0412,71.25890736,
0.04122,1.240175407,0.04122,71.98976795,
0.04124,0.8747451124,0.04124,71.98976795,
0.04126,0.143884524,0.04126,71.25890736,
0.04128,0.8747451124,0.04128,71.98976795,
0.0413,1.971035995,0.0413,71.98976795,
0.04132,0.8747451124,0.04132,71.62433766,
0.04134,1.971035995,0.04134,71.62433766,
0.04136,0.8747451124,0.04136,71.98976795,
0.04138,1.240175407,0.04138,71.25890736,
0.0414,2.701896583,0.0414,71.98976795,
0.04142,0.8747451124,0.04142,71.98976795,
0.04144,0.5093148182,0.04144,70.89347707,
0.04146,1.240175407,0.04146,71.62433766,
0.04148,0.5093148182,0.04148,71.98976795,
0.0415,-0.9524063585,0.0415,70.89347707,
0.04152,0.8747451124,0.04152,71.62433766,
0.04154,-0.9524063585,0.04154,71.62433766,
0.04156,0.143884524,0.04156,70.89347707,
0.04158,1.605605701,0.04158,71.98976795,
0.0416,0.5093148182,0.0416,71.25890736,
0.04162,0.8747451124,0.04162,70.89347707,
0.04164,0.8747451124,0.04164,71.25890736,
0.04166,0.5093148182,0.04166,71.98976795,
0.04168,-1.317836653,0.04168,71.25890736,
0.0417,0.5093148182,0.0417,71.98976795,
0.04172,-1.683266947,0.04172,71.62433766,
0.04174,-2.048697241,0.04174,70.52804678,
0.04176,-2.048697241,0.04176,71.62433766,
0.04178,-2.048697241,0.04178,71.98976795,
0.0418,-2.414127535,0.0418,70.89347707,
0.04182,0.8747451124,0.04182,71.62433766,
0.04184,-0.2215457701,0.04184,71.98976795,
0.04186,-0.5869760643,0.04186,71.62433766,
0.04188,-0.5869760643,0.04188,71.98976795,
0.0419,0.5093148182,0.0419,72.35519825,
0.04192,-0.9524063585,0.04192,71.25890736,
0.04194,-0.2215457701,0.04194,71.98976795,
0.04196,-1.317836653,0.04196,71.62433766,
0.04198,-0.9524063585,0.04198,71.25890736,
0.042,0.8747451124,0.042,71.62433766,
0.04202,-0.2215457701,0.04202,71.62433766,
0.04204,-0.2215457701,0.04204,71.62433766,
0.04206,1.605605701,0.04206,71.62433766,
0.04208,1.605605701,0.04208,71.62433766,
0.0421,0.143884524,0.0421,71.25890736,
0.04212,1.240175407,0.04212,71.98976795,
0.04214,1.605605701,0.04214,71.62433766,
0.04216,0.143884524,0.04216,71.62433766,
0.04218,0.5093148182,0.04218,71.98976795,
0.0422,0.8747451124,0.0422,71.62433766,
0.04222,-0.5869760643,0.04222,71.25890736,
0.04224,1.240175407,0.04224,71.62433766,
0.04226,0.143884524,0.04226,71.98976795,
0.04228,0.5093148182,0.04228,71.62433766,
0.0423,1.971035995,0.0423,71.98976795,
0.04232,1.240175407,0.04232,71.62433766,
0.04234,1.240175407,0.04234,71.25890736,
0.04236,1.971035995,0.04236,71.98976795,
0.04238,1.240175407,0.04238,71.98976795,
0.0424,1.240175407,0.0424,71.62433766,
0.04242,1.240175407,0.04242,71.98976795,
0.04244,0.143884524,0.04244,71.62433766,
0.04246,0.5093148182,0.04246,71.25890736,
0.04248,0.143884524,0.04248,71.98976795,
0.0425,0.143884524,0.0425,71.62433766,
0.04252,-0.9524063585,0.04252,71.25890736,
0.04254,-0.5869760643,0.04254,72.35519825,
0.04256,0.8747451124,0.04256,71.62433766,
0.04258,1.605605701,0.04258,71.62433766,
0.0426,0.5093148182,0.0426,71.98976795,
0.04262,0.143884524,0.04262,71.98976795,
0.04264,-0.2215457701,0.04264,71.62433766,
0.04266,1.240175407,0.04266,71.25890736,
0.04268,-1.317836653,0.04268,71.25890736,
0.0427,-0.9524063585,0.0427,70.89347707,
0.04272,-0.5869760643,0.04272,71.62433766,
0.04274,-2.414127535,0.04274,71.62433766,
0.04276,-0.5869760643,0.04276,70.89347707,
0.04278,-0.5869760643,0.04278,71.62433766,
0.0428,-0.5869760643,0.0428,71.98976795,
0.04282,-1.317836653,0.04282,72.35519825,
0.04284,-1.317836653,0.04284,71.62433766,
0.04286,-0.9524063585,0.04286,71.98976795,
0.04288,-0.5869760643,0.04288,72.35519825,
0.0429,-3.144988124,0.0429,71.98976795,
0.04292,-1.317836653,0.04292,71.62433766,
0.04294,-0.5869760643,0.04294,72.35519825,
0.04296,-2.048697241,0.04296,71.62433766,
0.04298,-1.683266947,0.04298,71.62433766,
0.043,0.143884524,0.043,71.98976795,
0.04302,-0.2215457701,0.04302,71.62433766,
0.04304,0.143884524,0.04304,71.98976795,
0.04306,0.8747451124,0.04306,72.72062854,
0.04308,1.605605701,0.04308,71.62433766,
0.0431,0.5093148182,0.0431,71.25890736,
0.04312,1.240175407,0.04312,71.98976795,
0.04314,0.8747451124,0.04314,71.62433766,
0.04316,0.8747451124,0.04316,71.62433766,
0.04318,-0.2215457701,0.04318,72.35519825,
0.0432,0.8747451124,0.0432,71.25890736,
0.04322,0.5093148182,0.04322,71.98976795,
0.04324,-0.2215457701,0.04324,72.35519825,
0.04326,-0.2215457701,0.04326,71.62433766,
0.04328,1.240175407,0.04328,71.62433766,
0.0433,1.240175407,0.0433,71.98976795,
0.04332,1.240175407,0.04332,71.62433766,
0.04334,1.971035995,0.04334,71.98976795,
0.04336,1.605605701,0.04336,72.35519825,
0.04338,0.5093148182,0.04338,71.62433766,
0.0434,0.5093148182,0.0434,71.62433766,
0.04342,1.971035995,0.04342,72.35519825,
0.04344,-0.2215457701,0.04344,71.62433766,
0.04346,-0.5869760643,0.04346,71.62433766,
0.04348,0.143884524,0.04348,71.98976795,
0.0435,-0.2215457701,0.0435,71.62433766,
0.04352,-0.9524063585,0.04352,71.62433766,
0.04354,0.143884524,0.04354,72.35519825,
0.04356,0.143884524,0.04356,71.62433766,
0.04358,1.605605701,0.04358,71.25890736,
0.0436,0.8747451124,0.0436,72.72062854,
0.04362,-2.414127535,0.04362,71.98976795,
0.04364,-0.2215457701,0.04364,72.35519825,
0.04366,-0.5869760643,0.04366,72.35519825,
0.04368,-1.683266947,0.04368,71.62433766,
0.0437,-2.048697241,0.0437,71.62433766,
0.04372,-2.779557829,0.04372,72.72062854,
0.04374,-2.779557829,0.04374,71.25890736,
0.04376,-0.5869760643,0.04376,71.62433766,
0.04378,0.8747451124,0.04378,72.35519825,
0.0438,0.143884524,0.0438,71.62433766,
0.04382,1.605605701,0.04382,71.25890736,
0.04384,0.5093148182,0.04384,72.35519825,
0.04386,-1.317836653,0.04386,71.98976795,
0.04388,-1.317836653,0.04388,71.62433766,
0.0439,-0.5869760643,0.0439,71.98976795,
0.04392,-1.683266947,0.04392,72.35519825,
0.04394,-1.683266947,0.04394,71.62433766,
0.04396,-0.5869760643,0.04396,72.35519825,
0.04398,-1.683266947,0.04398,71.62433766,
0.044,2.336466289,0.044,72.35519825,
0.04402,0.8747451124,0.04402,71.62433766,
0.04404,0.8747451124,0.04404,71.98976795,
0.04406,3.067326877,0.04406,71.98976795,
0.04408,1.971035995,0.04408,72.35519825,
0.0441,0.8747451124,0.0441,71.98976795,
0.04412,0.143884524,0.04412,72.35519825,
0.04414,1.240175407,0.04414,71.98976795,
0.04416,0.8747451124,0.04416,71.98976795,
0.04418,1.605605701,0.04418,71.62433766,
0.0442,0.8747451124,0.0442,71.98976795,
0.04422,0.8747451124,0.04422,72.35519825,
0.04424,1.605605701,0.04424,72.35519825,
0.04426,0.5093148182,0.04426,71.62433766,
0.04428,1.971035995,0.04428,71.98976795,
0.0443,2.336466289,0.0443,71.98976795,
0.04432,2.336466289,0.04432,71.62433766,
0.04434,1.971035995,0.04434,71.62433766,
0.04436,1.971035995,0.04436,71.62433766,
0.04438,1.605605701,0.04438,72.72062854,
0.0444,0.5093148182,0.0444,71.62433766,
0.04442,0.5093148182,0.04442,71.25890736,
0.04444,-0.9524063585,0.04444,72.72062854,
0.04446,0.143884524,0.04446,71.25890736,
0.04448,-0.5869760643,0.04448,71.62433766,
0.0445,0.8747451124,0.0445,71.98976795,
0.04452,0.5093148182,0.04452,71.62433766,
0.04454,0.143884524,0.04454,71.62433766,
0.04456,-0.2215457701,0.04456,72.35519825,
0.04458,0.5093148182,0.04458,71.25890736,
0.0446,0.143884524,0.0446,71.62433766,
0.04462,0.8747451124,0.04462,72.72062854,
0.04464,-1.317836653,0.04464,71.62433766,
0.04466,-0.2215457701,0.04466,71.25890736,
0.04468,-0.5869760643,0.04468,71.62433766,
0.0447,-1.683266947,0.0447,72.35519825,
0.04472,-1.683266947,0.04472,71.98976795,
0.04474,-0.9524063585,0.04474,71.62433766,
0.04476,0.5093148182,0.04476,71.98976795,
0.04478,1.240175407,0.04478,72.35519825,
0.0448,-0.2215457701,0.0448,71.98976795,
0.04482,1.240175407,0.04482,71.25890736,
0.04484,-0.2215457701,0.04484,72.35519825,
0.04486,-1.683266947,0.04486,71.98976795,
0.04488,0.143884524,0.04488,71.62433766,
0.0449,-2.048697241,0.0449,71.98976795,
0.04492,-1.317836653,0.04492,71.62433766,
0.04494,-0.5869760643,0.04494,71.98976795,
0.04496,-0.5869760643,0.04496,72.72062854,
0.04498,0.5093148182,0.04498,71.98976795,
0.045,1.971035995,0.045,71.98976795,
0.04502,0.143884524,0.04502,71.98976795,
0.04504,0.5093148182,0.04504,71.98976795,
0.04506,1.240175407,0.04506,71.98976795,
0.04508,1.240175407,0.04508,72.35519825,
0.0451,0.8747451124,0.0451,71.98976795,
0.04512,1.971035995,0.04512,71.25890736,
0.04514,1.971035995,0.04514,72.35519825,
0.04516,1.605605701,0.04516,71.98976795,
0.04518,1.240175407,0.04518,71.98976795,
0.0452,0.8747451124,0.0452,72.35519825,
0.04522,-0.2215457701,0.04522,71.62433766,
0.04524,1.605605701,0.04524,71.98976795,
0.04526,1.605605701,0.04526,72.35519825,
0.04528,1.605605701,0.04528,71.98976795,
0.0453,1.240175407,0.0453,71.98976795,
0.04532,1.971035995,0.04532,72.35519825,
0.04534,1.240175407,0.04534,71.98976795,
0.04536,1.605605701,0.04536,71.62433766,
0.04538,1.605605701,0.04538,72.35519825,
0.0454,0.143884524,0.0454,71.98976795,
0.04542,1.240175407,0.04542,71.98976795,
0.04544,0.5093148182,0.04544,72.35519825,
0.04546,-0.2215457701,0.04546,71.98976795,
0.04548,0.5093148182,0.04548,71.25890736,
0.0455,0.5093148182,0.0455,72.35519825,
0.04552,0.5093148182,0.04552,71.62433766,
0.04554,0.5093148182,0.04554,71.62433766,
0.04556,-0.2215457701,0.04556,72.35519825,
0.04558,-0.5869760643,0.04558,71.25890736,
0.0456,0.143884524,0.0456,72.35519825,
0.04562,-1.317836653,0.04562,71.98976795,
0.04564,-0.9524063585,0.04564,71.62433766,
0.04566,-2.048697241,0.04566,71.25890736,
0.04568,-2.048697241,0.04568,71.98976795,
0.0457,-2.779557829,0.0457,72.35519825,
0.04572,0.5093148182,0.04572,71.98976795,
0.04574,-1.683266947,0.04574,72.35519825,
0.04576,-2.048697241,0.04576,72.35519825,
0.04578,0.8747451124,0.04578,72.35519825,
0.0458,-0.9524063585,0.0458,71.98976795,
0.04582,-0.5869760643,0.04582,71.62433766,
0.04584,0.143884524,0.04584,71.62433766,
0.04586,-0.9524063585,0.04586,71.98976795,
0.04588,-1.683266947,0.04588,71.62433766,
0.0459,-0.5869760643,0.0459,71.62433766,
0.04592,0.5093148182,0.04592,72.35519825,
0.04594,0.5093148182,0.04594,71.98976795,
0.04596,0.5093148182,0.04596,71.62433766,
0.04598,1.240175407,0.04598,71.62433766,
0.046,0.8747451124,0.046,71.62433766,
0.04602,1.240175407,0.04602,71.62433766,
0.04604,1.971035995,0.04604,71.62433766,
0.04606,0.5093148182,0.04606,71.98976795,
0.04608,1.971035995,0.04608,71.62433766,
0.0461,1.240175407,0.0461,71.98976795,
0.04612,0.8747451124,0.04612,71.62433766,
0.04614,0.143884524,0.04614,71.98976795,
0.04616,0.143884524,0.04616,72.35519825,
0.04618,0.5093148182,0.04618,71.98976795,
0.0462,0.8747451124,0.0462,71.98976795,
0.04622,1.605605701,0.04622,72.35519825,
0.04624,1.240175407,0.04624,72.35519825,
0.04626,3.067326877,0.04626,71.98976795,
0.04628,1.971035995,0.04628,72.35519825,
0.0463,0.8747451124,0.0463,71.98976795,
0.04632,1.971035995,0.04632,71.98976795,
0.04634,1.605605701,0.04634,71.98976795,
0.04636,-0.5869760643,0.04636,71.98976795,
0.04638,-0.5869760643,0.04638,71.25890736,
0.0464,-0.2215457701,0.0464,71.98976795,
0.04642,-0.9524063585,0.04642,71.98976795,
0.04644,0.5093148182,0.04644,71.98976795,
0.04646,0.5093148182,0.04646,72.35519825,
0.04648,1.240175407,0.04648,72.35519825,
0.0465,1.240175407,0.0465,71.98976795,
0.04652,1.605605701,0.04652,71.98976795,
0.04654,-2.414127535,0.04654,72.35519825,
0.04656,0.143884524,0.04656,71.98976795,
0.04658,-1.317836653,0.04658,71.98976795,
0.0466,-2.779557829,0.0466,71.98976795,
0.04662,-1.317836653,0.04662,71.62433766,
0.04664,-2.048697241,0.04664,70.89347707,
0.04666,-0.9524063585,0.04666,71.62433766,
0.04668,-1.683266947,0.04668,71.98976795,
0.0467,-2.414127535,0.0467,71.62433766,
0.04672,1.240175407,0.04672,71.98976795,
0.04674,-0.9524063585,0.04674,71.98976795,
0.04676,1.605605701,0.04676,71.62433766,
0.04678,-1.317836653,0.04678,72.35519825,
0.0468,-0.5869760643,0.0468,71.25890736,
0.04682,-1.683266947,0.04682,70.89347707,
0.04684,0.5093148182,0.04684,71.62433766,
0.04686,-1.317836653,0.04686,71.98976795,
0.04688,-0.5869760643,0.04688,71.25890736,
0.0469,0.5093148182,0.0469,71.62433766,
0.04692,0.143884524,0.04692,71.98976795,
0.04694,1.240175407,0.04694,71.25890736,
0.04696,2.336466289,0.04696,71.98976795,
0.04698,1.240175407,0.04698,71.98976795,
0.047,0.8747451124,0.047,71.62433766,
0.04702,1.605605701,0.04702,71.62433766,
0.04704,0.5093148182,0.04704,71.62433766,
0.04706,0.8747451124,0.04706,71.25890736,
0.04708,1.605605701,0.04708,71.25890736,
0.0471,1.240175407,0.0471,71.98976795,
0.04712,0.5093148182,0.04712,70.89347707,
0.04714,0.8747451124,0.04714,71.98976795,
0.04716,1.240175407,0.04716,71.98976795,
0.04718,1.605605701,0.04718,71.25890736,
0.0472,1.240175407,0.0472,72.35519825,
0.04722,2.336466289,0.04722,71.98976795,
0.04724,2.336466289,0.04724,71.62433766,
0.04726,0.8747451124,0.04726,71.98976795,
0.04728,1.240175407,0.04728,71.98976795,
0.0473,1.605605701,0.0473,71.62433766,
0.04732,1.971035995,0.04732,71.62433766,
0.04734,1.240175407,0.04734,71.62433766,
0.04736,0.143884524,0.04736,71.25890736,
0.04738,-1.317836653,0.04738,71.98976795,
0.0474,-0.9524063585,0.0474,71.62433766,
0.04742,-0.5869760643,0.04742,71.25890736,
0.04744,0.5093148182,0.04744,71.98976795,
0.04746,0.8747451124,0.04746,71.62433766,
0.04748,0.5093148182,0.04748,71.62433766,
0.0475,1.240175407,0.0475,71.98976795,
0.04752,-1.317836653,0.04752,72.35519825,
0.04754,-1.317836653,0.04754,71.98976795,
0.04756,-0.2215457701,0.04756,71.62433766,
0.04758,0.5093148182,0.04758,71.98976795,
0.0476,-0.2215457701,0.0476,70.89347707,
0.04762,-2.414127535,0.04762,71.62433766,
0.04764,-2.414127535,0.04764,71.62433766,
0.04766,-0.5869760643,0.04766,71.62433766,
0.04768,-1.317836653,0.04768,71.98976795,
0.0477,0.5093148182,0.0477,71.98976795,
0.04772,-2.048697241,0.04772,70.52804678,
0.04774,-0.2215457701,0.04774,72.35519825,
0.04776,0.8747451124,0.04776,71.98976795,
0.04778,-0.5869760643,0.04778,71.62433766,
0.0478,-2.048697241,0.0478,71.98976795,
0.04782,-0.9524063585,0.04782,71.98976795,
0.04784,-1.683266947,0.04784,71.62433766,
0.04786,-0.9524063585,0.04786,71.62433766,
0.04788,-1.317836653,0.04788,71.62433766,
0.0479,-1.317836653,0.0479,71.62433766,
0.04792,1.971035995,0.04792,71.98976795,
0.04794,0.5093148182,0.04794,71.98976795,
0.04796,0.5093148182,0.04796,71.62433766,
0.04798,2.336466289,0.04798,71.98976795,
0.048,1.240175407,0.048,71.62433766,
0.04802,0.5093148182,0.04802,71.62433766,
0.04804,0.143884524,0.04804,71.62433766,
0.04806,0.8747451124,0.04806,71.62433766,
0.04808,1.240175407,0.04808,71.98976795,
0.0481,0.5093148182,0.0481,71.98976795,
0.04812,0.143884524,0.04812,71.98976795,
0.04814,0.5093148182,0.04814,71.25890736,
0.04816,1.605605701,0.04816,71.62433766,
0.04818,2.336466289,0.04818,71.62433766,
0.0482,2.336466289,0.0482,71.25890736,
0.04822,2.336466289,0.04822,71.62433766,
0.04824,1.971035995,0.04824,71.62433766,
0.04826,1.240175407,0.04826,71.62433766,
0.04828,1.240175407,0.04828,71.98976795,
0.0483,0.5093148182,0.0483,71.98976795,
0.04832,-0.5869760643,0.04832,71.62433766,
0.04834,0.143884524,0.04834,71.98976795,
0.04836,-1.317836653,0.04836,71.98976795,
0.04838,-0.9524063585,0.04838,71.62433766,
0.0484,0.143884524,0.0484,72.35519825,
0.04842,0.8747451124,0.04842,71.98976795,
0.04844,1.240175407,0.04844,71.62433766,
0.04846,1.240175407,0.04846,71.98976795,
0.04848,0.8747451124,0.04848,71.62433766,
0.0485,0.143884524,0.0485,70.52804678,
0.04852,-0.9524063585,0.04852,72.35519825,
0.04854,-0.9524063585,0.04854,71.98976795,
0.04856,0.8747451124,0.04856,72.35519825,
0.04858,-2.048697241,0.04858,71.98976795,
0.0486,-1.683266947,0.0486,72.35519825,
0.04862,-3.144988124,0.04862,71.98976795,
0.04864,-2.048697241,0.04864,71.62433766,
0.04866,-0.2215457701,0.04866,71.25890736,
0.04868,-0.2215457701,0.04868,71.98976795,
0.0487,-0.5869760643,0.0487,71.62433766,
0.04872,1.605605701,0.04872,71.25890736,
0.04874,-0.9524063585,0.04874,72.35519825,
0.04876,-1.683266947,0.04876,71.62433766,
0.04878,-0.5869760643,0.04878,71.25890736,
0.0488,-1.317836653,0.0488,71.98976795,
0.04882,-1.317836653,0.04882,71.98976795,
0.04884,-0.5869760643,0.04884,71.98976795,
0.04886,-0.2215457701,0.04886,71.98976795,
0.04888,-0.2215457701,0.04888,71.98976795,
0.0489,-0.5869760643,0.0489,71.62433766,
0.04892,1.605605701,0.04892,71.98976795,
0.04894,1.605605701,0.04894,71.98976795,
0.04896,0.8747451124,0.04896,71.25890736,
0.04898,1.605605701,0.04898,72.35519825,
0.049,0.5093148182,0.049,71.98976795,
0.04902,0.143884524,0.04902,71.25890736,
0.04904,0.8747451124,0.04904,71.62433766,
0.04906,-0.9524063585,0.04906,71.98976795,
0.04908,-0.5869760643,0.04908,71.98976795,
0.0491,0.8747451124,0.0491,72.35519825,
0.04912,1.240175407,0.04912,71.62433766,
0.04914,0.8747451124,0.04914,71.62433766,
0.04916,1.240175407,0.04916,71.25890736,
0.04918,1.971035995,0.04918,72.35519825,
0.0492,1.971035995,0.0492,71.98976795,
0.04922,1.240175407,0.04922,71.62433766,
0.04924,0.5093148182,0.04924,71.98976795,
0.04926,0.5093148182,0.04926,71.98976795,
0.04928,1.240175407,0.04928,71.62433766,
0.0493,0.5093148182,0.0493,71.98976795,
0.04932,-0.9524063585,0.04932,72.35519825,
0.04934,0.143884524,0.04934,71.98976795,
0.04936,-0.9524063585,0.04936,71.98976795,
0.04938,-0.2215457701,0.04938,71.98976795,
0.0494,1.240175407,0.0494,72.35519825,
0.04942,1.605605701,0.04942,72.35519825,
0.04944,0.143884524,0.04944,71.62433766,
0.04946,0.143884524,0.04946,72.35519825,
0.04948,0.143884524,0.04948,71.25890736,
0.0495,-0.9524063585,0.0495,71.98976795,
0.04952,-0.9524063585,0.04952,72.72062854,
0.04954,-2.414127535,0.04954,70.89347707,
0.04956,-1.317836653,0.04956,71.25890736,
0.04958,-1.683266947,0.04958,71.25890736,
0.0496,-0.2215457701,0.0496,70.89347707,
0.04962,-1.683266947,0.04962,72.35519825,
0.04964,-0.2215457701,0.04964,71.62433766,
0.04966,-0.5869760643,0.04966,71.25890736,
0.04968,0.5093148182,0.04968,71.98976795,
0.0497,-0.5869760643,0.0497,71.62433766,
0.04972,-0.5869760643,0.04972,70.89347707,
0.04974,-0.5869760643,0.04974,71.62433766,
0.04976,-0.2215457701,0.04976,71.98976795,
0.04978,-0.9524063585,0.04978,71.98976795,
0.0498,-0.2215457701,0.0498,71.98976795,
0.04982,-0.5869760643,0.04982,72.35519825,
0.04984,-1.317836653,0.04984,71.98976795,
0.04986,0.8747451124,0.04986,71.62433766,
0.04988,1.240175407,0.04988,71.62433766,
0.0499,0.8747451124,0.0499,70.89347707,
0.04992,1.971035995,0.04992,71.98976795,
0.04994,-0.2215457701,0.04994,71.98976795,
0.04996,0.5093148182,0.04996,71.62433766,
0.04998,1.605605701,0.04998,71.62433766,
0.05,1.605605701,0.05,71.98976795,
0.05002,0.8747451124,0.05002,71.25890736,
0.05004,-0.2215457701,0.05004,71.98976795,
0.05006,1.240175407,0.05006,71.98976795,
0.05008,-0.9524063585,0.05008,71.62433766,
0.0501,0.5093148182,0.0501,71.98976795,
0.05012,0.8747451124,0.05012,72.35519825,
0.05014,1.605605701,0.05014,71.62433766,
0.05016,3.067326877,0.05016,71.98976795,
0.05018,2.701896583,0.05018,71.62433766,
0.0502,1.971035995,0.0502,71.62433766,
0.05022,0.5093148182,0.05022,71.98976795,
0.05024,1.971035995,0.05024,72.35519825,
0.05026,0.5093148182,0.05026,71.25890736,
0.05028,0.5093148182,0.05028,71.98976795,
0.0503,-0.2215457701,0.0503,71.98976795,
0.05032,-1.317836653,0.05032,71.62433766,
0.05034,-0.2215457701,0.05034,71.98976795,
0.05036,0.8747451124,0.05036,72.35519825,
0.05038,1.605605701,0.05038,71.25890736,
0.0504,0.8747451124,0.0504,71.98976795,
0.05042,0.5093148182,0.05042,71.98976795,
0.05044,0.143884524,0.05044,71.98976795,
0.05046,-0.2215457701,0.05046,71.98976795,
0.05048,-0.5869760643,0.05048,72.35519825,
0.0505,-1.317836653,0.0505,70.16261648,
0.05052,-1.317836653,0.05052,72.35519825,
0.05054,-2.414127535,0.05054,71.62433766,
0.05056,-0.5869760643,0.05056,71.62433766,
0.05058,-0.5869760643,0.05058,71.98976795,
0.0506,-0.9524063585,0.0506,71.98976795,
0.05062,-1.317836653,0.05062,71.98976795,
0.05064,-0.5869760643,0.05064,71.62433766,
0.05066,-1.683266947,0.05066,71.62433766,
0.05068,-0.2215457701,0.05068,71.25890736,
0.0507,0.8747451124,0.0507,71.62433766,
0.05072,-1.683266947,0.05072,71.62433766,
0.05074,-1.317836653,0.05074,71.62433766,
0.05076,-0.2215457701,0.05076,71.62433766,
0.05078,-1.683266947,0.05078,71.98976795,
0.0508,-2.048697241,0.0508,71.25890736,
0.05082,-0.5869760643,0.05082,71.62433766,
0.05084,0.143884524,0.05084,71.98976795,
0.05086,1.971035995,0.05086,70.89347707,
0.05088,2.336466289,0.05088,72.35519825,
0.0509,2.336466289,0.0509,71.62433766,
0.05092,1.605605701,0.05092,71.62433766,
0.05094,2.336466289,0.05094,71.62433766,
0.05096,1.605605701,0.05096,71.62433766,
0.05098,0.5093148182,0.05098,71.25890736,
0.051,0.5093148182,0.051,71.62433766,
0.05102,0.5093148182,0.05102,71.62433766,
0.05104,-0.2215457701,0.05104,71.62433766,
0.05106,0.143884524,0.05106,71.98976795,
0.05108,-0.2215457701,0.05108,71.98976795,
0.0511,0.8747451124,0.0511,71.25890736,
0.05112,2.336466289,0.05112,71.98976795,
0.05114,1.240175407,0.05114,71.98976795,
0.05116,2.336466289,0.05116,70.89347707,
0.05118,1.605605701,0.05118,71.62433766,
0.0512,1.240175407,0.0512,71.25890736,
0.05122,0.5093148182,0.05122,71.62433766,
0.05124,0.5093148182,0.05124,71.62433766,
0.05126,0.143884524,0.05126,72.35519825,
0.05128,-0.9524063585,0.05128,71.25890736,
0.0513,0.8747451124,0.0513,71.98976795,
0.05132,0.143884524,0.05132,72.35519825,
0.05134,0.8747451124,0.05134,71.25890736,
0.05136,1.605605701,0.05136,71.98976795,
0.05138,1.240175407,0.05138,71.25890736,
0.0514,-0.2215457701,0.0514,72.72062854,
0.05142,0.143884524,0.05142,71.62433766,
0.05144,-0.5869760643,0.05144,71.98976795,
0.05146,0.143884524,0.05146,73.08605883,
0.05148,-2.779557829,0.05148,71.25890736,
0.0515,-1.683266947,0.0515,71.98976795,
0.05152,-1.317836653,0.05152,72.35519825,
0.05154,-0.9524063585,0.05154,71.98976795,
0.05156,-1.683266947,0.05156,71.62433766,
0.05158,-0.9524063585,0.05158,72.35519825,
0.0516,-0.2215457701,0.0516,71.62433766,
0.05162,0.8747451124,0.05162,71.98976795,
0.05164,-0.5869760643,0.05164,72.35519825,
0.05166,-0.2215457701,0.05166,71.98976795,
0.05168,-1.683266947,0.05168,71.62433766,
0.0517,-0.5869760643,0.0517,72.35519825,
0.05172,-1.683266947,0.05172,71.62433766,
0.05174,-0.9524063585,0.05174,71.98976795,
0.05176,0.143884524,0.05176,72.72062854,
0.05178,-0.9524063585,0.05178,71.98976795,
0.0518,0.143884524,0.0518,71.25890736,
0.05182,1.971035995,0.05182,72.35519825,
0.05184,0.8747451124,0.05184,71.62433766,
0.05186,1.605605701,0.05186,71.25890736,
0.05188,0.5093148182,0.05188,72.35519825,
0.0519,1.240175407,0.0519,71.62433766,
0.05192,0.143884524,0.05192,71.98976795,
0.05194,0.8747451124,0.05194,71.98976795,
0.05196,-0.2215457701,0.05196,71.98976795,
0.05198,1.240175407,0.05198,71.98976795,
0.052,1.240175407,0.052,72.35519825,
0.05202,0.143884524,0.05202,71.62433766,
0.05204,0.8747451124,0.05204,71.98976795,
0.05206,0.8747451124,0.05206,72.35519825,
0.05208,1.605605701,0.05208,71.62433766,
0.0521,1.240175407,0.0521,71.62433766,
0.05212,1.240175407,0.05212,72.35519825,
0.05214,0.5093148182,0.05214,71.98976795,
0.05216,0.143884524,0.05216,71.98976795,
0.05218,1.971035995,0.05218,71.98976795,
0.0522,0.5093148182,0.0522,71.98976795,
0.05222,0.5093148182,0.05222,71.62433766,
0.05224,0.5093148182,0.05224,72.35519825,
0.05226,-0.5869760643,0.05226,71.62433766,
0.05228,-0.5869760643,0.05228,71.62433766,
0.0523,0.143884524,0.0523,72.35519825,
0.05232,0.143884524,0.05232,71.62433766,
0.05234,0.143884524,0.05234,71.62433766,
0.05236,0.143884524,0.05236,71.98976795,
0.05238,-1.317836653,0.05238,71.25890736,
0.0524,0.5093148182,0.0524,71.62433766,
0.05242,-0.2215457701,0.05242,72.35519825,
0.05244,-0.5869760643,0.05244,71.98976795,
0.05246,-1.683266947,0.05246,71.62433766,
0.05248,-0.5869760643,0.05248,71.62433766,
0.0525,-0.9524063585,0.0525,71.98976795,
0.05252,-1.683266947,0.05252,71.62433766,
0.05254,-0.9524063585,0.05254,72.35519825,
0.05256,-2.048697241,0.05256,71.62433766,
0.05258,0.143884524,0.05258,71.25890736,
0.0526,0.143884524,0.0526,71.25890736,
0.05262,0.143884524,0.05262,72.35519825,
0.05264,-1.317836653,0.05264,70.89347707,
0.05266,-0.9524063585,0.05266,71.98976795,
0.05268,-1.683266947,0.05268,71.62433766,
0.0527,-0.9524063585,0.0527,71.62433766,
0.05272,-0.2215457701,0.05272,72.72062854,
0.05274,-1.317836653,0.05274,71.98976795,
0.05276,-0.2215457701,0.05276,71.62433766,
0.05278,-0.2215457701,0.05278,72.72062854,
0.0528,0.8747451124,0.0528,71.98976795,
0.05282,1.605605701,0.05282,71.25890736,
0.05284,1.605605701,0.05284,72.72062854,
0.05286,0.8747451124,0.05286,71.62433766,
0.05288,1.240175407,0.05288,71.62433766,
0.0529,0.143884524,0.0529,72.35519825,
0.05292,0.8747451124,0.05292,71.62433766,
0.05294,1.605605701,0.05294,71.62433766,
0.05296,0.8747451124,0.05296,72.35519825,
0.05298,0.143884524,0.05298,71.98976795,
0.053,-0.5869760643,0.053,71.62433766,
0.05302,0.5093148182,0.05302,71.98976795,
0.05304,-0.2215457701,0.05304,71.25890736,
0.05306,1.240175407,0.05306,71.62433766,
0.05308,1.240175407,0.05308,71.98976795,
0.0531,0.5093148182,0.0531,71.62433766,
0.05312,0.8747451124,0.05312,71.98976795,
0.05314,0.8747451124,0.05314,71.98976795,
0.05316,1.605605701,0.05316,71.62433766,
0.05318,1.605605701,0.05318,71.62433766,
0.0532,0.5093148182,0.0532,72.35519825,
0.05322,-1.317836653,0.05322,71.98976795,
0.05324,-1.317836653,0.05324,71.62433766,
0.05326,0.143884524,0.05326,72.35519825,
0.05328,-0.5869760643,0.05328,71.98976795,
0.0533,-0.2215457701,0.0533,72.35519825,
0.05332,1.240175407,0.05332,72.35519825,
0.05334,0.8747451124,0.05334,71.98976795,
0.05336,1.605605701,0.05336,71.98976795,
0.05338,-0.5869760643,0.05338,71.25890736,
0.0534,0.5093148182,0.0534,71.98976795,
0.05342,0.8747451124,0.05342,72.35519825,
0.05344,-0.2215457701,0.05344,71.62433766,
0.05346,-1.683266947,0.05346,71.25890736,
0.05348,-3.510418418,0.05348,72.35519825,
0.0535,-1.683266947,0.0535,71.98976795,
0.05352,-2.414127535,0.05352,71.98976795,
0.05354,-1.317836653,0.05354,72.35519825,
0.05356,-0.9524063585,0.05356,71.98976795,
0.05358,-1.317836653,0.05358,71.98976795,
0.0536,-0.2215457701,0.0536,71.25890736,
0.05362,0.143884524,0.05362,71.62433766,
0.05364,-0.2215457701,0.05364,71.62433766,
0.05366,0.5093148182,0.05366,71.98976795,
0.05368,-2.048697241,0.05368,71.62433766,
0.0537,-1.317836653,0.0537,71.62433766,
0.05372,-0.2215457701,0.05372,71.98976795,
0.05374,0.5093148182,0.05374,72.35519825,
0.05376,0.143884524,0.05376,71.98976795,
0.05378,0.8747451124,0.05378,72.35519825,
0.0538,0.5093148182,0.0538,71.62433766,
0.05382,0.5093148182,0.05382,71.98976795,
0.05384,1.605605701,0.05384,72.35519825,
0.05386,0.5093148182,0.05386,71.98976795,
0.05388,1.240175407,0.05388,71.62433766,
0.0539,1.240175407,0.0539,71.98976795,
0.05392,0.5093148182,0.05392,71.98976795,
0.05394,0.143884524,0.05394,71.62433766,
0.05396,0.8747451124,0.05396,71.98976795,
0.05398,0.143884524,0.05398,71.98976795,
0.054,0.8747451124,0.054,71.98976795,
0.05402,0.8747451124,0.05402,72.35519825,
0.05404,0.8747451124,0.05404,71.62433766,
0.05406,1.240175407,0.05406,71.62433766,
0.05408,1.605605701,0.05408,71.62433766,
0.0541,1.240175407,0.0541,71.62433766,
0.05412,2.336466289,0.05412,72.35519825,
0.05414,1.971035995,0.05414,71.98976795,
0.05416,-0.2215457701,0.05416,72.35519825,
0.05418,0.5093148182,0.05418,71.62433766,
0.0542,0.143884524,0.0542,71.98976795,
0.05422,-0.5869760643,0.05422,71.98976795,
0.05424,-0.2215457701,0.05424,71.25890736,
0.05426,1.240175407,0.05426,71.25890736,
0.05428,1.240175407,0.05428,71.25890736,
0.0543,0.143884524,0.0543,72.35519825,
0.05432,0.5093148182,0.05432,71.98976795,
0.05434,-0.5869760643,0.05434,71.62433766,
0.05436,-0.5869760643,0.05436,72.35519825,
0.05438,-1.683266947,0.05438,72.35519825,
0.0544,-0.2215457701,0.0544,72.35519825,
0.05442,-2.048697241,0.05442,72.35519825,
0.05444,-2.048697241,0.05444,71.25890736,
0.05446,-2.048697241,0.05446,72.35519825,
0.05448,-1.317836653,0.05448,71.62433766,
0.0545,-0.2215457701,0.0545,71.98976795,
0.05452,-1.317836653,0.05452,71.98976795,
0.05454,0.143884524,0.05454,72.35519825,
0.05456,0.143884524,0.05456,72.72062854,
0.05458,0.8747451124,0.05458,73.08605883,
0.0546,-1.683266947,0.0546,71.98976795,
0.05462,-0.9524063585,0.05462,71.62433766,
0.05464,-1.317836653,0.05464,72.72062854,
0.05466,-0.9524063585,0.05466,72.35519825,
0.05468,-0.2215457701,0.05468,71.62433766,
0.0547,-0.2215457701,0.0547,72.35519825,
0.05472,-0.9524063585,0.05472,71.98976795,
0.05474,0.8747451124,0.05474,71.98976795,
0.05476,0.5093148182,0.05476,71.98976795,
0.05478,0.5093148182,0.05478,71.62433766,
0.0548,0.8747451124,0.0548,71.62433766,
0.05482,2.336466289,0.05482,71.98976795,
0.05484,0.8747451124,0.05484,71.98976795,
0.05486,1.240175407,0.05486,71.98976795,
0.05488,1.240175407,0.05488,71.98976795,
0.0549,0.8747451124,0.0549,71.62433766,
0.05492,-0.5869760643,0.05492,71.98976795,
0.05494,-0.2215457701,0.05494,71.98976795,
0.05496,0.143884524,0.05496,71.62433766,
0.05498,0.143884524,0.05498,71.62433766,
0.055,0.8747451124,0.055,72.35519825,
0.05502,0.8747451124,0.05502,71.62433766,
0.05504,1.971035995,0.05504,71.98976795,
0.05506,1.605605701,0.05506,71.62433766,
0.05508,0.5093148182,0.05508,71.98976795,
0.0551,1.605605701,0.0551,71.98976795,
0.05512,0.5093148182,0.05512,71.98976795,
0.05514,1.240175407,0.05514,71.98976795,
0.05516,0.143884524,0.05516,71.62433766,
0.05518,0.5093148182,0.05518,71.62433766,
0.0552,-0.2215457701,0.0552,70.89347707,
0.05522,0.143884524,0.05522,71.98976795,
0.05524,-0.5869760643,0.05524,71.98976795,
0.05526,-0.5869760643,0.05526,71.25890736,
0.05528,0.5093148182,0.05528,72.35519825,
0.0553,1.240175407,0.0553,71.62433766,
0.05532,-0.2215457701,0.05532,70.89347707,
0.05534,-0.2215457701,0.05534,71.98976795,
0.05536,-1.317836653,0.05536,71.25890736,
0.05538,-1.683266947,0.05538,70.89347707,
0.0554,-1.317836653,0.0554,70.89347707,
0.05542,-3.144988124,0.05542,71.25890736,
0.05544,-1.683266947,0.05544,70.89347707,
0.05546,-1.683266947,0.05546,71.62433766,
0.05548,-0.5869760643,0.05548,71.62433766,
0.0555,-2.048697241,0.0555,71.62433766,
0.05552,0.8747451124,0.05552,72.35519825,
0.05554,0.8747451124,0.05554,71.25890736,
0.05556,0.8747451124,0.05556,70.89347707,
0.05558,0.5093148182,0.05558,71.62433766,
0.0556,-1.317836653,0.0556,72.35519825,
0.05562,-0.9524063585,0.05562,71.25890736,
0.05564,0.143884524,0.05564,71.62433766,
0.05566,-0.5869760643,0.05566,71.62433766,
0.05568,0.143884524,0.05568,71.25890736,
0.0557,-0.5869760643,0.0557,71.25890736,
0.05572,0.5093148182,0.05572,71.25890736,
0.05574,0.5093148182,0.05574,71.62433766,
0.05576,1.240175407,0.05576,71.62433766,
0.05578,1.240175407,0.05578,71.62433766,
0.0558,0.8747451124,0.0558,71.62433766,
0.05582,0.8747451124,0.05582,71.62433766,
0.05584,1.605605701,0.05584,71.62433766,
0.05586,1.605605701,0.05586,70.89347707,
0.05588,1.240175407,0.05588,71.98976795,
0.0559,0.143884524,0.0559,71.98976795,
0.05592,0.143884524,0.05592,71.62433766,
0.05594,1.605605701,0.05594,71.62433766,
0.05596,0.8747451124,0.05596,72.35519825,
0.05598,0.8747451124,0.05598,71.25890736,
0.056,1.971035995,0.056,71.98976795,
0.05602,2.701896583,0.05602,71.25890736,
0.05604,1.605605701,0.05604,71.25890736,
0.05606,2.336466289,0.05606,71.98976795,
0.05608,1.240175407,0.05608,71.62433766,
0.0561,0.8747451124,0.0561,71.25890736,
0.05612,1.605605701,0.05612,72.35519825,
0.05614,0.5093148182,0.05614,71.62433766,
0.05616,0.143884524,0.05616,71.62433766,
0.05618,-0.2215457701,0.05618,71.98976795,
0.0562,-0.2215457701,0.0562,71.62433766,
0.05622,0.143884524,0.05622,71.98976795,
0.05624,1.605605701,0.05624,71.98976795,
0.05626,0.8747451124,0.05626,71.98976795,
0.05628,0.5093148182,0.05628,70.89347707,
0.0563,0.8747451124,0.0563,71.98976795,
0.05632,0.143884524,0.05632,71.62433766,
0.05634,-0.5869760643,0.05634,70.89347707,
0.05636,-1.683266947,0.05636,71.62433766,
0.05638,-0.9524063585,0.05638,71.98976795,
0.0564,-2.048697241,0.0564,70.89347707,
0.05642,-1.683266947,0.05642,71.25890736,
0.05644,-2.048697241,0.05644,71.25890736,
0.05646,-1.317836653,0.05646,70.89347707,
0.05648,-1.317836653,0.05648,71.62433766,
0.0565,0.5093148182,0.0565,71.25890736,
0.05652,-0.5869760643,0.05652,70.89347707,
0.05654,-1.317836653,0.05654,71.25890736,
0.05656,0.5093148182,0.05656,71.62433766,
0.05658,-0.2215457701,0.05658,71.25890736,
0.0566,-1.683266947,0.0566,71.62433766,
0.05662,-0.5869760643,0.05662,71.98976795,
0.05664,-0.9524063585,0.05664,71.25890736,
0.05666,0.143884524,0.05666,71.98976795,
0.05668,-0.5869760643,0.05668,71.62433766,
0.0567,0.5093148182,0.0567,71.25890736,
0.05672,1.971035995,0.05672,71.62433766,
0.05674,1.240175407,0.05674,71.98976795,
0.05676,1.240175407,0.05676,70.89347707,
0.05678,1.240175407,0.05678,71.98976795,
0.0568,1.240175407,0.0568,71.62433766,
0.05682,1.240175407,0.05682,71.25890736,
0.05684,1.240175407,0.05684,71.62433766,
0.05686,0.5093148182,0.05686,71.62433766,
0.05688,0.8747451124,0.05688,71.62433766,
0.0569,0.8747451124,0.0569,71.98976795,
0.05692,0.8747451124,0.05692,71.98976795,
0.05694,0.8747451124,0.05694,71.25890736,
0.05696,0.8747451124,0.05696,71.98976795,
0.05698,1.971035995,0.05698,71.62433766,
0.057,1.971035995,0.057,71.98976795,
0.05702,1.971035995,0.05702,71.98976795,
0.05704,2.336466289,0.05704,71.62433766,
0.05706,1.240175407,0.05706,71.25890736,
0.05708,0.5093148182,0.05708,71.62433766,
0.0571,0.143884524,0.0571,71.62433766,
0.05712,0.143884524,0.05712,71.62433766,
0.05714,-0.2215457701,0.05714,72.72062854,
0.05716,-1.317836653,0.05716,71.98976795,
0.05718,-0.9524063585,0.05718,71.62433766,
0.0572,1.605605701,0.0572,71.98976795,
0.05722,-0.2215457701,0.05722,71.98976795,
0.05724,0.5093148182,0.05724,71.25890736,
0.05726,0.143884524,0.05726,71.98976795,
0.05728,0.5093148182,0.05728,71.25890736,
0.0573,0.143884524,0.0573,71.98976795,
0.05732,-2.414127535,0.05732,71.98976795,
0.05734,-0.2215457701,0.05734,71.98976795,
0.05736,-2.779557829,0.05736,71.62433766,
0.05738,0.143884524,0.05738,72.35519825,
0.0574,-2.048697241,0.0574,71.62433766,
0.05742,-0.9524063585,0.05742,71.62433766,
0.05744,0.143884524,0.05744,72.72062854,
0.05746,-0.5869760643,0.05746,72.35519825,
0.05748,0.5093148182,0.05748,71.98976795,
0.0575,-1.317836653,0.0575,72.72062854,
0.05752,-1.683266947,0.05752,72.35519825,
0.05754,-0.5869760643,0.05754,71.98976795,
0.05756,-0.5869760643,0.05756,72.72062854,
0.05758,-0.9524063585,0.05758,71.98976795,
0.0576,-1.317836653,0.0576,71.98976795,
0.05762,-0.9524063585,0.05762,72.35519825,
0.05764,-1.317836653,0.05764,71.62433766,
0.05766,-0.5869760643,0.05766,71.62433766,
0.05768,0.143884524,0.05768,71.98976795,
0.0577,-0.5869760643,0.0577,72.35519825,
0.05772,0.8747451124,0.05772,71.62433766,
