"A0_accX_x","A0_accX_y","A1_rmsX_x","A1_rmsX_y"
0,-0.597478531,0,72.72062854,
2e-05,-0.2320482368,2e-05,73.08605883,
4e-05,0.8642426457,4e-05,72.35519825,
6e-05,1.22967294,6e-05,73.81691942,
8e-05,-1.693769413,8e-05,72.72062854,
0.0001,-0.597478531,0.0001,73.45148913,
0.00012,-0.2320482368,0.00012,72.72062854,
0.00014,-2.059199708,0.00014,73.45148913,
0.00016,-0.9629088251,0.00016,72.72062854,
0.00018,-0.597478531,0.00018,73.45148913,
0.0002,-0.9629088251,0.0002,73.08605883,
0.00022,0.8642426457,0.00022,73.08605883,
0.00024,0.8642426457,0.00024,73.08605883,
0.00026,0.1333820574,0.00026,73.08605883,
0.00028,1.595103234,0.00028,72.72062854,
0.0003,1.595103234,0.0003,73.45148913,
0.00032,0.4988123515,0.00032,72.72062854,
0.00034,1.22967294,0.00034,72.72062854,
0.00036,1.595103234,0.00036,73.08605883,
0.00038,1.22967294,0.00038,73.08605883,
0.0004,1.22967294,0.0004,73.08605883,
0.00042,1.960533528,0.00042,72.35519825,
0.00044,1.22967294,0.00044,72.35519825,
0.00046,1.22967294,0.00046,73.08605883,
0.00048,0.4988123515,0.00048,73.08605883,
0.0005,0.4988123515,0.0005,72.35519825,
0.00052,2.325963822,0.00052,72.72062854,
0.00054,1.595103234,0.00054,73.08605883,
0.00056,2.691394117,0.00056,72.72062854,
0.00058,1.960533528,0.00058,72.72062854,
0.0006,0.8642426457,0.0006,72.35519825,
0.00062,1.22967294,0.00062,72.72062854,
0.00064,1.595103234,0.00064,72.72062854,
0.00066,0.8642426457,0.00066,72.72062854,
0.00068,-0.2320482368,0.00068,72.35519825,
0.0007,-0.2320482368,0.0007,72.72062854,
0.00072,0.1333820574,0.00072,72.35519825,
0.00074,0.4988123515,0.00074,71.98976795,
0.00076,0.4988123515,0.00076,72.72062854,
0.00078,1.595103234,0.00078,73.08605883,
0.0008,1.960533528,0.0008,72.35519825,
0.00082,0.8642426457,0.00082,71.98976795,
0.00084,-2.059199708,0.00084,73.45148913,
0.00086,-0.9629088251,0.00086,72.35519825,
0.00088,1.960533528,0.00088,73.81691942,
0.0009,-1.328339119,0.0009,72.35519825,
0.00092,1.595103234,0.00092,71.98976795,
0.00094,-3.520920884,0.00094,73.81691942,
0.00096,-0.2320482368,0.00096,73.81691942,
0.00098,-1.328339119,0.00098,71.98976795,
0.001,0.4988123515,0.001,73.08605883,
0.00102,0.1333820574,0.00102,71.98976795,
0.00104,-0.597478531,0.00104,71.98976795,
0.00106,0.4988123515,0.00106,73.08605883,
0.00108,-0.2320482368,0.00108,72.72062854,
0.0011,-0.597478531,0.0011,71.98976795,
0.00112,-0.9629088251,0.00112,72.72062854,
0.00114,-0.597478531,0.00114,72.35519825,
0.00116,0.1333820574,0.00116,71.98976795,
0.00118,-0.597478531,0.00118,72.72062854,
0.0012,-0.9629088251,0.0012,72.72062854,
0.00122,0.8642426457,0.00122,72.72062854,
0.00124,1.22967294,0.00124,72.35519825,
0.00126,0.4988123515,0.00126,72.72062854,
0.00128,1.960533528,0.00128,72.35519825,
0.0013,1.595103234,0.0013,72.72062854,
0.00132,-0.2320482368,0.00132,73.08605883,
0.00134,0.4988123515,0.00134,72.35519825,
0.00136,0.4988123515,0.00136,72.72062854,
0.00138,0.8642426457,0.00138,73.08605883,
0.0014,0.8642426457,0.0014,72.35519825,
0.00142,2.325963822,0.00142,72.72062854,
0.00144,0.8642426457,0.00144,73.08605883,
0.00146,0.1333820574,0.00146,72.35519825,
0.00148,1.22967294,0.00148,72.72062854,
0.0015,1.595103234,0.0015,72.72062854,
0.00152,1.22967294,0.00152,72.35519825,
0.00154,2.691394117,0.00154,72.72062854,
0.00156,1.22967294,0.00156,72.35519825,
0.00158,1.22967294,0.00158,72.35519825,
0.0016,1.960533528,0.0016,73.08605883,
0.00162,1.22967294,0.00162,73.08605883,
0.00164,-0.2320482368,0.00164,71.98976795,
0.00166,0.4988123515,0.00166,72.72062854,
0.00168,0.4988123515,0.00168,72.72062854,
0.0017,0.8642426457,0.0017,71.98976795,
0.00172,0.1333820574,0.00172,72.72062854,
0.00174,0.8642426457,0.00174,72.35519825,
0.00176,1.960533528,0.00176,72.72062854,
0.00178,2.325963822,0.00178,73.08605883,
0.0018,3.422254705,0.0018,72.35519825,
0.00182,-0.2320482368,0.00182,71.98976795,
0.00184,-1.328339119,0.00184,73.81691942,
0.00186,-2.424630002,0.00186,73.45148913,
0.00188,-3.15549059,0.00188,72.72062854,
0.0019,-3.520920884,0.0019,73.08605883,
0.00192,-0.9629088251,0.00192,73.45148913,
0.00194,-2.059199708,0.00194,73.08605883,
0.00196,-2.424630002,0.00196,72.35519825,
0.00198,0.1333820574,0.00198,73.08605883,
0.002,0.1333820574,0.002,72.35519825,
0.00202,0.1333820574,0.00202,72.72062854,
0.00204,-0.2320482368,0.00204,72.72062854,
0.00206,-1.328339119,0.00206,71.98976795,
0.00208,0.1333820574,0.00208,72.72062854,
0.0021,-0.597478531,0.0021,73.08605883,
0.00212,-0.597478531,0.00212,72.35519825,
0.00214,-0.2320482368,0.00214,72.72062854,
0.00216,-0.597478531,0.00216,72.72062854,
0.00218,-0.597478531,0.00218,72.35519825,
0.0022,0.4988123515,0.0022,72.35519825,
0.00222,1.22967294,0.00222,72.35519825,
0.00224,0.8642426457,0.00224,72.35519825,
0.00226,1.595103234,0.00226,73.08605883,
0.00228,1.595103234,0.00228,73.08605883,
0.0023,0.1333820574,0.0023,72.72062854,
0.00232,0.8642426457,0.00232,72.72062854,
0.00234,0.1333820574,0.00234,72.72062854,
0.00236,0.4988123515,0.00236,73.08605883,
0.00238,0.8642426457,0.00238,73.08605883,
0.0024,0.1333820574,0.0024,72.35519825,
0.00242,0.8642426457,0.00242,73.08605883,
0.00244,0.4988123515,0.00244,72.72062854,
0.00246,1.22967294,0.00246,72.35519825,
0.00248,2.325963822,0.00248,73.08605883,
0.0025,0.8642426457,0.0025,73.08605883,
0.00252,1.22967294,0.00252,72.35519825,
0.00254,1.595103234,0.00254,73.08605883,
0.00256,0.8642426457,0.00256,72.35519825,
0.00258,0.4988123515,0.00258,72.35519825,
0.0026,0.4988123515,0.0026,73.08605883,
0.00262,-0.2320482368,0.00262,72.72062854,
0.00264,-0.2320482368,0.00264,72.35519825,
0.00266,-0.2320482368,0.00266,73.45148913,
0.00268,-0.2320482368,0.00268,72.72062854,
0.0027,0.1333820574,0.0027,72.35519825,
0.00272,1.960533528,0.00272,72.72062854,
0.00274,0.8642426457,0.00274,72.35519825,
0.00276,0.1333820574,0.00276,73.08605883,
0.00278,0.4988123515,0.00278,73.81691942,
0.0028,0.1333820574,0.0028,71.98976795,
0.00282,0.1333820574,0.00282,72.72062854,
0.00284,0.4988123515,0.00284,71.98976795,
0.00286,-0.9629088251,0.00286,73.45148913,
0.00288,0.1333820574,0.00288,72.35519825,
0.0029,0.1333820574,0.0029,72.72062854,
0.00292,0.8642426457,0.00292,72.72062854,
0.00294,0.1333820574,0.00294,72.35519825,
0.00296,-1.328339119,0.00296,73.08605883,
0.00298,-0.9629088251,0.00298,73.08605883,
0.003,0.4988123515,0.003,72.72062854,
0.00302,0.1333820574,0.00302,73.45148913,
0.00304,-1.328339119,0.00304,72.72062854,
0.00306,-1.328339119,0.00306,72.35519825,
0.00308,-0.9629088251,0.00308,73.45148913,
0.0031,-0.9629088251,0.0031,72.35519825,
0.00312,-0.9629088251,0.00312,72.72062854,
0.00314,-0.597478531,0.00314,73.08605883,
0.00316,0.1333820574,0.00316,72.72062854,
0.00318,0.4988123515,0.00318,72.72062854,
0.0032,0.4988123515,0.0032,72.72062854,
0.00322,1.22967294,0.00322,72.72062854,
0.00324,1.22967294,0.00324,72.35519825,
0.00326,1.22967294,0.00326,73.08605883,
0.00328,0.8642426457,0.00328,72.35519825,
0.0033,0.8642426457,0.0033,72.72062854,
0.00332,0.1333820574,0.00332,73.08605883,
0.00334,0.1333820574,0.00334,72.72062854,
0.00336,0.4988123515,0.00336,71.98976795,
0.00338,0.8642426457,0.00338,73.81691942,
0.0034,-0.9629088251,0.0034,71.98976795,
0.00342,0.1333820574,0.00342,72.35519825,
0.00344,1.22967294,0.00344,72.72062854,
0.00346,1.960533528,0.00346,73.08605883,
0.00348,1.960533528,0.00348,72.72062854,
0.0035,2.691394117,0.0035,73.08605883,
0.00352,2.325963822,0.00352,72.35519825,
0.00354,1.595103234,0.00354,71.98976795,
0.00356,1.22967294,0.00356,72.35519825,
0.00358,1.595103234,0.00358,73.08605883,
0.0036,0.4988123515,0.0036,72.72062854,
0.00362,0.1333820574,0.00362,72.72062854,
0.00364,-0.9629088251,0.00364,72.72062854,
0.00366,-0.2320482368,0.00366,73.08605883,
0.00368,1.22967294,0.00368,72.72062854,
0.0037,0.8642426457,0.0037,72.72062854,
0.00372,0.8642426457,0.00372,72.72062854,
0.00374,1.595103234,0.00374,72.35519825,
0.00376,-0.9629088251,0.00376,72.72062854,
0.00378,-0.9629088251,0.00378,72.72062854,
0.0038,2.691394117,0.0038,73.08605883,
0.00382,-1.693769413,0.00382,71.25890736,
0.00384,-2.059199708,0.00384,73.08605883,
0.00386,-3.15549059,0.00386,72.72062854,
0.00388,-2.790060296,0.00388,72.35519825,
0.0039,-0.597478531,0.0039,73.45148913,
0.00392,-1.328339119,0.00392,73.45148913,
0.00394,-0.597478531,0.00394,72.72062854,
0.00396,0.1333820574,0.00396,73.08605883,
0.00398,0.4988123515,0.00398,72.72062854,
0.004,-0.2320482368,0.004,72.35519825,
0.00402,-0.2320482368,0.00402,72.72062854,
0.00404,-0.2320482368,0.00404,73.45148913,
0.00406,-1.328339119,0.00406,72.35519825,
0.00408,-1.328339119,0.00408,72.72062854,
0.0041,-1.328339119,0.0041,73.45148913,
0.00412,-0.597478531,0.00412,73.08605883,
0.00414,0.4988123515,0.00414,72.72062854,
0.00416,1.22967294,0.00416,73.08605883,
0.00418,1.22967294,0.00418,72.72062854,
0.0042,2.691394117,0.0042,72.72062854,
0.00422,-0.2320482368,0.00422,72.72062854,
0.00424,1.960533528,0.00424,73.08605883,
0.00426,0.4988123515,0.00426,72.72062854,
0.00428,1.960533528,0.00428,73.08605883,
0.0043,1.595103234,0.0043,73.08605883,
0.00432,0.4988123515,0.00432,72.72062854,
0.00434,1.960533528,0.00434,73.08605883,
0.00436,1.22967294,0.00436,72.72062854,
0.00438,0.1333820574,0.00438,73.08605883,
0.0044,1.22967294,0.0044,72.72062854,
0.00442,1.595103234,0.00442,72.72062854,
0.00444,2.325963822,0.00444,72.72062854,
0.00446,2.325963822,0.00446,72.72062854,
0.00448,2.691394117,0.00448,73.08605883,
0.0045,2.691394117,0.0045,72.72062854,
0.00452,3.056824411,0.00452,73.08605883,
0.00454,0.8642426457,0.00454,73.45148913,
0.00456,1.22967294,0.00456,73.08605883,
0.00458,1.22967294,0.00458,72.72062854,
0.0046,0.1333820574,0.0046,73.08605883,
0.00462,-0.9629088251,0.00462,73.08605883,
0.00464,0.4988123515,0.00464,73.08605883,
0.00466,0.8642426457,0.00466,73.08605883,
0.00468,1.22967294,0.00468,73.08605883,
0.0047,1.22967294,0.0047,72.72062854,
0.00472,2.691394117,0.00472,71.98976795,
0.00474,1.22967294,0.00474,73.08605883,
0.00476,0.1333820574,0.00476,73.08605883,
0.00478,-1.328339119,0.00478,73.08605883,
0.0048,-3.520920884,0.0048,71.62433766,
0.00482,-0.9629088251,0.00482,72.35519825,
0.00484,-0.2320482368,0.00484,72.72062854,
0.00486,1.595103234,0.00486,72.35519825,
0.00488,-1.693769413,0.00488,73.08605883,
0.0049,-0.597478531,0.0049,73.08605883,
0.00492,1.595103234,0.00492,73.08605883,
0.00494,1.960533528,0.00494,72.72062854,
0.00496,0.8642426457,0.00496,73.08605883,
0.00498,0.1333820574,0.00498,72.72062854,
0.005,0.8642426457,0.005,72.35519825,
0.00502,-0.597478531,0.00502,72.72062854,
0.00504,0.8642426457,0.00504,72.72062854,
0.00506,-0.597478531,0.00506,72.72062854,
0.00508,-1.328339119,0.00508,73.08605883,
0.0051,1.595103234,0.0051,72.72062854,
0.00512,0.1333820574,0.00512,72.72062854,
0.00514,0.8642426457,0.00514,72.72062854,
0.00516,1.22967294,0.00516,72.35519825,
0.00518,1.960533528,0.00518,72.72062854,
0.0052,1.22967294,0.0052,72.72062854,
0.00522,0.1333820574,0.00522,72.72062854,
0.00524,0.8642426457,0.00524,73.45148913,
0.00526,0.1333820574,0.00526,72.72062854,
0.00528,0.8642426457,0.00528,72.35519825,
0.0053,1.22967294,0.0053,73.45148913,
0.00532,0.8642426457,0.00532,72.72062854,
0.00534,0.1333820574,0.00534,72.72062854,
0.00536,-0.2320482368,0.00536,73.45148913,
0.00538,0.8642426457,0.00538,72.72062854,
0.0054,1.22967294,0.0054,71.98976795,
0.00542,1.595103234,0.00542,73.45148913,
0.00544,1.22967294,0.00544,72.72062854,
0.00546,1.960533528,0.00546,72.35519825,
0.00548,1.22967294,0.00548,73.45148913,
0.0055,0.4988123515,0.0055,71.98976795,
0.00552,0.8642426457,0.00552,71.98976795,
0.00554,0.1333820574,0.00554,73.08605883,
0.00556,-0.2320482368,0.00556,72.72062854,
0.00558,-0.2320482368,0.00558,72.35519825,
0.0056,-0.597478531,0.0056,73.45148913,
0.00562,-0.2320482368,0.00562,73.08605883,
0.00564,1.22967294,0.00564,72.35519825,
0.00566,0.4988123515,0.00566,73.45148913,
0.00568,0.4988123515,0.00568,71.98976795,
0.0057,0.8642426457,0.0057,73.08605883,
0.00572,0.4988123515,0.00572,73.08605883,
0.00574,-2.059199708,0.00574,72.72062854,
0.00576,-2.790060296,0.00576,73.08605883,
0.00578,0.8642426457,0.00578,73.08605883,
0.0058,-2.059199708,0.0058,73.08605883,
0.00582,-2.790060296,0.00582,72.35519825,
0.00584,-1.328339119,0.00584,73.45148913,
0.00586,1.22967294,0.00586,73.08605883,
0.00588,0.4988123515,0.00588,71.98976795,
0.0059,1.595103234,0.0059,73.08605883,
0.00592,0.4988123515,0.00592,72.72062854,
0.00594,-0.9629088251,0.00594,72.72062854,
0.00596,0.4988123515,0.00596,72.72062854,
0.00598,-1.328339119,0.00598,72.72062854,
0.006,-1.693769413,0.006,72.72062854,
0.00602,-0.9629088251,0.00602,73.45148913,
0.00604,-0.597478531,0.00604,72.72062854,
0.00606,0.4988123515,0.00606,72.72062854,
0.00608,0.4988123515,0.00608,73.45148913,
0.0061,-0.2320482368,0.0061,73.08605883,
0.00612,0.8642426457,0.00612,71.98976795,
0.00614,0.8642426457,0.00614,73.45148913,
0.00616,1.22967294,0.00616,72.72062854,
0.00618,1.595103234,0.00618,72.35519825,
0.0062,1.595103234,0.0062,73.08605883,
0.00622,1.595103234,0.00622,72.35519825,
0.00624,0.4988123515,0.00624,72.35519825,
0.00626,0.8642426457,0.00626,73.45148913,
0.00628,0.1333820574,0.00628,72.72062854,
0.0063,1.22967294,0.0063,71.98976795,
0.00632,0.8642426457,0.00632,73.08605883,
0.00634,0.4988123515,0.00634,72.72062854,
0.00636,1.22967294,0.00636,73.08605883,
0.00638,3.056824411,0.00638,73.45148913,
0.0064,1.595103234,0.0064,72.72062854,
0.00642,1.960533528,0.00642,72.72062854,
0.00644,2.325963822,0.00644,73.45148913,
0.00646,1.960533528,0.00646,72.72062854,
0.00648,1.22967294,0.00648,72.35519825,
0.0065,1.595103234,0.0065,73.45148913,
0.00652,-0.2320482368,0.00652,72.72062854,
0.00654,-0.9629088251,0.00654,72.35519825,
0.00656,-0.9629088251,0.00656,73.45148913,
0.00658,-0.597478531,0.00658,72.72062854,
0.0066,1.22967294,0.0066,72.72062854,
0.00662,0.4988123515,0.00662,72.72062854,
0.00664,0.1333820574,0.00664,73.08605883,
0.00666,1.22967294,0.00666,72.35519825,
0.00668,-0.597478531,0.00668,73.08605883,
0.0067,-2.059199708,0.0067,71.25890736,
0.00672,-0.9629088251,0.00672,73.45148913,
0.00674,-0.9629088251,0.00674,74.18234972,
0.00676,-2.424630002,0.00676,71.25890736,
0.00678,-3.886351179,0.00678,72.72062854,
0.0068,-0.597478531,0.0068,73.08605883,
0.00682,-1.328339119,0.00682,72.35519825,
0.00684,0.4988123515,0.00684,72.72062854,
0.00686,-0.2320482368,0.00686,73.08605883,
0.00688,-0.597478531,0.00688,72.35519825,
0.0069,0.1333820574,0.0069,72.72062854,
0.00692,-0.597478531,0.00692,73.08605883,
0.00694,-2.059199708,0.00694,73.08605883,
0.00696,-1.328339119,0.00696,72.72062854,
0.00698,-1.328339119,0.00698,73.08605883,
0.007,-0.597478531,0.007,72.35519825,
0.00702,-1.693769413,0.00702,72.35519825,
0.00704,-0.9629088251,0.00704,73.45148913,
0.00706,-0.2320482368,0.00706,72.35519825,
0.00708,-0.2320482368,0.00708,72.72062854,
0.0071,0.1333820574,0.0071,73.08605883,
0.00712,0.1333820574,0.00712,72.72062854,
0.00714,1.22967294,0.00714,73.08605883,
0.00716,1.595103234,0.00716,73.08605883,
0.00718,0.1333820574,0.00718,72.72062854,
0.0072,1.595103234,0.0072,72.72062854,
0.00722,1.22967294,0.00722,73.08605883,
0.00724,1.22967294,0.00724,73.08605883,
0.00726,1.960533528,0.00726,72.72062854,
0.00728,1.595103234,0.00728,73.08605883,
0.0073,-0.2320482368,0.0073,73.08605883,
0.00732,0.4988123515,0.00732,72.72062854,
0.00734,1.22967294,0.00734,73.45148913,
0.00736,1.22967294,0.00736,72.72062854,
0.00738,1.22967294,0.00738,72.72062854,
0.0074,1.960533528,0.0074,73.08605883,
0.00742,0.8642426457,0.00742,73.08605883,
0.00744,1.22967294,0.00744,73.08605883,
0.00746,1.22967294,0.00746,73.45148913,
0.00748,-0.2320482368,0.00748,73.08605883,
0.0075,1.22967294,0.0075,73.08605883,
0.00752,-0.597478531,0.00752,73.08605883,
0.00754,-0.597478531,0.00754,73.08605883,
0.00756,-0.2320482368,0.00756,72.72062854,
0.00758,1.595103234,0.00758,73.08605883,
0.0076,0.8642426457,0.0076,72.35519825,
0.00762,3.056824411,0.00762,71.98976795,
0.00764,2.325963822,0.00764,73.08605883,
0.00766,0.8642426457,0.00766,71.98976795,
0.00768,-1.328339119,0.00768,72.35519825,
0.0077,-0.597478531,0.0077,73.08605883,
0.00772,-3.520920884,0.00772,72.35519825,
0.00774,-0.597478531,0.00774,72.72062854,
0.00776,1.595103234,0.00776,72.35519825,
0.00778,-4.251781473,0.00778,74.18234972,
0.0078,-0.9629088251,0.0078,72.35519825,
0.00782,-0.9629088251,0.00782,72.35519825,
0.00784,-0.2320482368,0.00784,73.45148913,
0.00786,0.1333820574,0.00786,72.35519825,
0.00788,-0.597478531,0.00788,73.45148913,
0.0079,-0.9629088251,0.0079,73.08605883,
0.00792,-0.597478531,0.00792,72.72062854,
0.00794,0.4988123515,0.00794,73.08605883,
0.00796,-1.693769413,0.00796,72.72062854,
0.00798,-1.693769413,0.00798,73.08605883,
0.008,-0.2320482368,0.008,73.08605883,
0.00802,-0.2320482368,0.00802,72.72062854,
0.00804,1.22967294,0.00804,73.08605883,
0.00806,1.22967294,0.00806,73.08605883,
0.00808,0.4988123515,0.00808,73.08605883,
0.0081,1.22967294,0.0081,72.35519825,
0.00812,2.325963822,0.00812,73.45148913,
0.00814,0.4988123515,0.00814,72.72062854,
0.00816,0.8642426457,0.00816,73.08605883,
0.00818,0.8642426457,0.00818,73.08605883,
0.0082,0.8642426457,0.0082,73.08605883,
0.00822,0.8642426457,0.00822,72.35519825,
0.00824,1.595103234,0.00824,73.08605883,
0.00826,0.8642426457,0.00826,72.72062854,
0.00828,1.595103234,0.00828,72.35519825,
0.0083,0.8642426457,0.0083,72.72062854,
0.00832,0.4988123515,0.00832,73.08605883,
0.00834,2.325963822,0.00834,72.35519825,
0.00836,2.691394117,0.00836,73.08605883,
0.00838,0.1333820574,0.00838,72.72062854,
0.0084,0.8642426457,0.0084,72.35519825,
0.00842,1.960533528,0.00842,73.08605883,
0.00844,1.22967294,0.00844,72.72062854,
0.00846,1.960533528,0.00846,72.72062854,
0.00848,-0.2320482368,0.00848,73.08605883,
0.0085,0.4988123515,0.0085,72.72062854,
0.00852,0.4988123515,0.00852,72.35519825,
0.00854,-0.597478531,0.00854,73.08605883,
0.00856,1.22967294,0.00856,72.35519825,
0.00858,1.595103234,0.00858,71.98976795,
0.0086,1.595103234,0.0086,73.45148913,
0.00862,0.4988123515,0.00862,73.45148913,
0.00864,0.4988123515,0.00864,71.98976795,
0.00866,0.4988123515,0.00866,72.72062854,
0.00868,0.4988123515,0.00868,70.89347707,
0.0087,0.8642426457,0.0087,73.81691942,
0.00872,-3.15549059,0.00872,73.08605883,
0.00874,-0.597478531,0.00874,72.72062854,
0.00876,-2.424630002,0.00876,72.72062854,
0.00878,-1.693769413,0.00878,73.08605883,
0.0088,1.22967294,0.0088,73.45148913,
0.00882,-0.2320482368,0.00882,72.72062854,
0.00884,-0.2320482368,0.00884,72.72062854,
0.00886,1.960533528,0.00886,73.08605883,
0.00888,-0.2320482368,0.00888,72.72062854,
0.0089,-1.328339119,0.0089,72.72062854,
0.00892,-0.2320482368,0.00892,72.72062854,
0.00894,0.1333820574,0.00894,73.08605883,
0.00896,-0.2320482368,0.00896,72.72062854,
0.00898,-0.2320482368,0.00898,72.35519825,
0.009,-0.597478531,0.009,72.72062854,
0.00902,-0.2320482368,0.00902,72.72062854,
0.00904,0.1333820574,0.00904,73.08605883,
0.00906,0.1333820574,0.00906,72.72062854,
0.00908,1.960533528,0.00908,72.72062854,
0.0091,0.8642426457,0.0091,73.08605883,
0.00912,1.960533528,0.00912,72.35519825,
0.00914,1.595103234,0.00914,72.72062854,
0.00916,1.22967294,0.00916,72.35519825,
0.00918,0.1333820574,0.00918,72.35519825,
0.0092,1.595103234,0.0092,72.72062854,
0.00922,0.4988123515,0.00922,72.35519825,
0.00924,0.1333820574,0.00924,72.72062854,
0.00926,0.4988123515,0.00926,72.72062854,
0.00928,1.22967294,0.00928,72.35519825,
0.0093,1.22967294,0.0093,72.35519825,
0.00932,2.325963822,0.00932,73.08605883,
0.00934,2.325963822,0.00934,73.08605883,
0.00936,1.22967294,0.00936,72.35519825,
0.00938,1.960533528,0.00938,73.08605883,
0.0094,0.8642426457,0.0094,72.72062854,
0.00942,1.595103234,0.00942,72.35519825,
0.00944,1.595103234,0.00944,72.35519825,
0.00946,-0.2320482368,0.00946,73.08605883,
0.00948,-0.9629088251,0.00948,72.72062854,
0.0095,0.1333820574,0.0095,72.72062854,
0.00952,-0.2320482368,0.00952,72.72062854,
0.00954,0.1333820574,0.00954,72.35519825,
0.00956,0.8642426457,0.00956,72.72062854,
0.00958,1.22967294,0.00958,72.72062854,
0.0096,0.4988123515,0.0096,72.35519825,
0.00962,1.595103234,0.00962,72.72062854,
0.00964,2.325963822,0.00964,71.98976795,
0.00966,-0.597478531,0.00966,71.98976795,
0.00968,-0.9629088251,0.00968,73.08605883,
0.0097,-0.9629088251,0.0097,71.98976795,
0.00972,-1.328339119,0.00972,71.98976795,
0.00974,-0.597478531,0.00974,71.62433766,
0.00976,-2.424630002,0.00976,73.08605883,
0.00978,0.8642426457,0.00978,72.35519825,
0.0098,0.8642426457,0.0098,72.72062854,
0.00982,0.1333820574,0.00982,73.08605883,
0.00984,0.8642426457,0.00984,72.35519825,
0.00986,0.4988123515,0.00986,71.98976795,
0.00988,-0.2320482368,0.00988,72.72062854,
0.0099,-2.424630002,0.0099,72.35519825,
0.00992,-0.9629088251,0.00992,72.72062854,
0.00994,-0.597478531,0.00994,72.35519825,
0.00996,-1.693769413,0.00996,71.98976795,
0.00998,0.1333820574,0.00998,72.35519825,
0.01,0.1333820574,0.01,72.72062854,
0.01002,0.1333820574,0.01002,71.98976795,
0.01004,1.595103234,0.01004,73.08605883,
0.01006,1.22967294,0.01006,72.35519825,
0.01008,0.8642426457,0.01008,72.35519825,
0.0101,0.8642426457,0.0101,72.72062854,
0.01012,0.8642426457,0.01012,72.72062854,
0.01014,1.595103234,0.01014,72.35519825,
0.01016,0.8642426457,0.01016,73.08605883,
0.01018,1.595103234,0.01018,72.72062854,
0.0102,0.8642426457,0.0102,72.72062854,
0.01022,0.4988123515,0.01022,72.35519825,
0.01024,0.4988123515,0.01024,72.72062854,
0.01026,0.1333820574,0.01026,72.35519825,
0.01028,1.595103234,0.01028,72.72062854,
0.0103,2.325963822,0.0103,72.72062854,
0.01032,1.960533528,0.01032,71.62433766,
0.01034,1.595103234,0.01034,73.08605883,
0.01036,0.8642426457,0.01036,72.72062854,
0.01038,1.22967294,0.01038,72.35519825,
0.0104,1.595103234,0.0104,72.72062854,
0.01042,-0.2320482368,0.01042,73.08605883,
0.01044,-0.2320482368,0.01044,72.35519825,
0.01046,-0.2320482368,0.01046,72.72062854,
0.01048,-0.597478531,0.01048,72.35519825,
0.0105,0.1333820574,0.0105,71.98976795,
0.01052,0.1333820574,0.01052,72.72062854,
0.01054,1.22967294,0.01054,72.35519825,
0.01056,1.595103234,0.01056,72.35519825,
0.01058,0.8642426457,0.01058,72.35519825,
0.0106,-0.597478531,0.0106,73.08605883,
0.01062,0.1333820574,0.01062,72.35519825,
0.01064,-0.597478531,0.01064,73.45148913,
0.01066,-3.15549059,0.01066,73.08605883,
0.01068,1.595103234,0.01068,73.08605883,
0.0107,-2.790060296,0.0107,72.35519825,
0.01072,-3.520920884,0.01072,72.72062854,
0.01074,-2.424630002,0.01074,71.62433766,
0.01076,-0.2320482368,0.01076,72.72062854,
0.01078,0.8642426457,0.01078,72.72062854,
0.0108,-1.693769413,0.0108,71.98976795,
0.01082,0.4988123515,0.01082,72.35519825,
0.01084,0.8642426457,0.01084,73.45148913,
0.01086,0.1333820574,0.01086,71.98976795,
0.01088,-0.597478531,0.01088,73.45148913,
0.0109,-0.2320482368,0.0109,72.72062854,
0.01092,-1.693769413,0.01092,72.72062854,
0.01094,-0.597478531,0.01094,73.08605883,
0.01096,-2.059199708,0.01096,72.72062854,
0.01098,0.4988123515,0.01098,72.35519825,
0.011,1.22967294,0.011,72.72062854,
0.01102,0.8642426457,0.01102,72.35519825,
0.01104,1.595103234,0.01104,72.72062854,
0.01106,2.325963822,0.01106,73.45148913,
0.01108,0.8642426457,0.01108,72.35519825,
0.0111,1.22967294,0.0111,72.35519825,
0.01112,1.22967294,0.01112,73.45148913,
0.01114,-0.597478531,0.01114,73.08605883,
0.01116,0.8642426457,0.01116,72.72062854,
0.01118,0.8642426457,0.01118,73.45148913,
0.0112,1.22967294,0.0112,72.72062854,
0.01122,0.1333820574,0.01122,72.35519825,
0.01124,0.4988123515,0.01124,73.08605883,
0.01126,1.22967294,0.01126,73.08605883,
0.01128,1.22967294,0.01128,72.35519825,
0.0113,2.325963822,0.0113,72.72062854,
0.01132,0.8642426457,0.01132,72.72062854,
0.01134,1.960533528,0.01134,72.72062854,
0.01136,2.325963822,0.01136,73.08605883,
0.01138,1.595103234,0.01138,72.72062854,
0.0114,1.22967294,0.0114,72.35519825,
0.01142,0.8642426457,0.01142,73.08605883,
0.01144,-1.328339119,0.01144,72.72062854,
0.01146,-0.2320482368,0.01146,72.72062854,
0.01148,-0.9629088251,0.01148,73.08605883,
0.0115,0.8642426457,0.0115,72.35519825,
0.01152,0.4988123515,0.01152,72.35519825,
0.01154,1.595103234,0.01154,73.08605883,
0.01156,-0.9629088251,0.01156,72.35519825,
0.01158,-1.693769413,0.01158,71.62433766,
0.0116,-0.9629088251,0.0116,72.72062854,
0.01162,0.4988123515,0.01162,72.72062854,
0.01164,-2.059199708,0.01164,71.25890736,
0.01166,-0.597478531,0.01166,71.98976795,
0.01168,-4.617211767,0.01168,72.35519825,
0.0117,-3.15549059,0.0117,73.45148913,
0.01172,-1.693769413,0.01172,73.08605883,
0.01174,0.1333820574,0.01174,72.35519825,
0.01176,1.22967294,0.01176,72.35519825,
0.01178,0.1333820574,0.01178,73.45148913,
0.0118,-0.597478531,0.0118,72.72062854,
0.01182,0.1333820574,0.01182,72.35519825,
0.01184,-0.597478531,0.01184,72.72062854,
0.01186,-1.328339119,0.01186,72.72062854,
0.01188,0.1333820574,0.01188,72.35519825,
0.0119,-0.597478531,0.0119,73.08605883,
0.01192,-0.597478531,0.01192,73.08605883,
0.01194,0.1333820574,0.01194,72.35519825,
0.01196,0.4988123515,0.01196,73.08605883,
0.01198,-0.2320482368,0.01198,73.08605883,
0.012,1.22967294,0.012,72.35519825,
0.01202,2.325963822,0.01202,73.08605883,
0.01204,-0.597478531,0.01204,72.72062854,
0.01206,1.595103234,0.01206,71.98976795,
0.01208,1.22967294,0.01208,73.08605883,
0.0121,1.595103234,0.0121,71.98976795,
0.01212,0.4988123515,0.01212,72.35519825,
0.01214,0.8642426457,0.01214,72.72062854,
0.01216,-0.2320482368,0.01216,72.35519825,
0.01218,0.4988123515,0.01218,72.35519825,
0.0122,1.22967294,0.0122,72.72062854,
0.01222,0.4988123515,0.01222,72.35519825,
0.01224,1.595103234,0.01224,72.35519825,
0.01226,2.691394117,0.01226,73.08605883,
0.01228,1.595103234,0.01228,72.72062854,
0.0123,1.22967294,0.0123,72.72062854,
0.01232,1.595103234,0.01232,73.08605883,
0.01234,0.4988123515,0.01234,73.08605883,
0.01236,0.8642426457,0.01236,72.72062854,
0.01238,0.1333820574,0.01238,73.45148913,
0.0124,-0.9629088251,0.0124,72.35519825,
0.01242,-0.9629088251,0.01242,72.72062854,
0.01244,-0.9629088251,0.01244,73.08605883,
0.01246,0.4988123515,0.01246,72.35519825,
0.01248,0.8642426457,0.01248,72.35519825,
0.0125,1.595103234,0.0125,73.45148913,
0.01252,1.960533528,0.01252,72.35519825,
0.01254,0.8642426457,0.01254,71.98976795,
0.01256,0.8642426457,0.01256,73.45148913,
0.01258,-0.2320482368,0.01258,72.35519825,
0.0126,-2.059199708,0.0126,72.72062854,
0.01262,-3.520920884,0.01262,73.08605883,
0.01264,-2.790060296,0.01264,72.35519825,
0.01266,-4.251781473,0.01266,72.72062854,
0.01268,0.8642426457,0.01268,73.08605883,
0.0127,-1.693769413,0.0127,73.08605883,
0.01272,-0.2320482368,0.01272,72.72062854,
0.01274,0.8642426457,0.01274,73.45148913,
0.01276,0.4988123515,0.01276,73.08605883,
0.01278,0.1333820574,0.01278,73.45148913,
0.0128,-0.9629088251,0.0128,73.45148913,
0.01282,0.8642426457,0.01282,72.72062854,
0.01284,-0.597478531,0.01284,72.72062854,
0.01286,-1.693769413,0.01286,72.72062854,
0.01288,-0.9629088251,0.01288,72.72062854,
0.0129,-0.597478531,0.0129,73.08605883,
0.01292,-0.2320482368,0.01292,72.35519825,
0.01294,0.4988123515,0.01294,72.35519825,
0.01296,0.4988123515,0.01296,72.72062854,
0.01298,1.595103234,0.01298,72.72062854,
0.013,1.595103234,0.013,72.35519825,
0.01302,0.8642426457,0.01302,73.45148913,
0.01304,-0.2320482368,0.01304,72.72062854,
0.01306,1.595103234,0.01306,72.72062854,
0.01308,0.1333820574,0.01308,73.08605883,
0.0131,0.4988123515,0.0131,72.72062854,
0.01312,0.8642426457,0.01312,72.35519825,
0.01314,0.4988123515,0.01314,73.45148913,
0.01316,0.8642426457,0.01316,72.72062854,
0.01318,0.8642426457,0.01318,72.35519825,
0.0132,1.595103234,0.0132,73.08605883,
0.01322,2.325963822,0.01322,72.72062854,
0.01324,2.691394117,0.01324,72.35519825,
0.01326,1.22967294,0.01326,73.08605883,
0.01328,1.595103234,0.01328,72.35519825,
0.0133,1.960533528,0.0133,72.35519825,
0.01332,2.325963822,0.01332,72.72062854,
0.01334,1.22967294,0.01334,73.08605883,
0.01336,0.4988123515,0.01336,72.72062854,
0.01338,-0.2320482368,0.01338,73.08605883,
0.0134,-1.328339119,0.0134,72.35519825,
0.01342,-0.2320482368,0.01342,72.35519825,
0.01344,0.4988123515,0.01344,72.72062854,
0.01346,-0.597478531,0.01346,73.08605883,
0.01348,2.325963822,0.01348,72.35519825,
0.0135,1.22967294,0.0135,73.08605883,
0.01352,-0.2320482368,0.01352,73.45148913,
0.01354,1.595103234,0.01354,72.72062854,
0.01356,0.4988123515,0.01356,72.72062854,
0.01358,-0.9629088251,0.01358,73.45148913,
0.0136,-2.790060296,0.0136,72.72062854,
0.01362,0.1333820574,0.01362,72.35519825,
0.01364,-0.9629088251,0.01364,73.45148913,
0.01366,0.4988123515,0.01366,72.35519825,
0.01368,-0.2320482368,0.01368,71.98976795,
0.0137,-0.2320482368,0.0137,72.72062854,
0.01372,0.1333820574,0.01372,72.72062854,
0.01374,0.8642426457,0.01374,73.08605883,
0.01376,-0.2320482368,0.01376,73.08605883,
0.01378,0.1333820574,0.01378,73.08605883,
0.0138,-0.9629088251,0.0138,73.08605883,
0.01382,-0.597478531,0.01382,73.08605883,
0.01384,-0.2320482368,0.01384,73.08605883,
0.01386,-0.2320482368,0.01386,72.35519825,
0.01388,-0.2320482368,0.01388,73.08605883,
0.0139,0.1333820574,0.0139,73.08605883,
0.01392,-0.2320482368,0.01392,72.72062854,
0.01394,0.8642426457,0.01394,73.08605883,
0.01396,2.325963822,0.01396,73.45148913,
0.01398,1.22967294,0.01398,73.08605883,
0.014,1.595103234,0.014,73.08605883,
0.01402,0.8642426457,0.01402,73.45148913,
0.01404,1.595103234,0.01404,72.72062854,
0.01406,2.691394117,0.01406,73.45148913,
0.01408,-0.597478531,0.01408,72.35519825,
0.0141,0.1333820574,0.0141,72.72062854,
0.01412,-0.597478531,0.01412,71.98976795,
0.01414,0.4988123515,0.01414,73.08605883,
0.01416,0.4988123515,0.01416,72.72062854,
0.01418,1.960533528,0.01418,72.72062854,
0.0142,1.22967294,0.0142,73.45148913,
0.01422,1.960533528,0.01422,72.72062854,
0.01424,2.325963822,0.01424,72.72062854,
0.01426,2.691394117,0.01426,73.08605883,
0.01428,0.8642426457,0.01428,72.72062854,
0.0143,0.4988123515,0.0143,72.35519825,
0.01432,0.4988123515,0.01432,73.45148913,
0.01434,0.1333820574,0.01434,73.08605883,
0.01436,0.4988123515,0.01436,71.98976795,
0.01438,-0.597478531,0.01438,73.45148913,
0.0144,-0.9629088251,0.0144,72.72062854,
0.01442,0.1333820574,0.01442,72.72062854,
0.01444,1.22967294,0.01444,73.45148913,
0.01446,1.22967294,0.01446,71.98976795,
0.01448,1.22967294,0.01448,72.72062854,
0.0145,0.4988123515,0.0145,71.98976795,
0.01452,-1.693769413,0.01452,73.45148913,
0.01454,-0.2320482368,0.01454,72.35519825,
0.01456,-2.424630002,0.01456,74.18234972,
0.01458,-3.886351179,0.01458,71.98976795,
0.0146,-2.790060296,0.0146,72.35519825,
0.01462,-2.790060296,0.01462,73.45148913,
0.01464,-2.059199708,0.01464,73.81691942,
0.01466,1.22967294,0.01466,73.08605883,
0.01468,-0.2320482368,0.01468,73.45148913,
0.0147,-0.2320482368,0.0147,72.35519825,
0.01472,-1.328339119,0.01472,71.98976795,
0.01474,0.1333820574,0.01474,73.08605883,
0.01476,-0.9629088251,0.01476,72.35519825,
0.01478,-0.597478531,0.01478,72.35519825,
0.0148,-0.9629088251,0.0148,73.45148913,
0.01482,-0.9629088251,0.01482,73.08605883,
0.01484,-0.597478531,0.01484,72.35519825,
0.01486,-0.9629088251,0.01486,73.08605883,
0.01488,-0.2320482368,0.01488,72.35519825,
0.0149,0.8642426457,0.0149,72.35519825,
0.01492,1.22967294,0.01492,73.08605883,
0.01494,1.595103234,0.01494,72.72062854,
0.01496,1.960533528,0.01496,72.35519825,
0.01498,0.8642426457,0.01498,73.08605883,
0.015,0.1333820574,0.015,72.72062854,
0.01502,0.1333820574,0.01502,71.98976795,
0.01504,0.4988123515,0.01504,73.08605883,
0.01506,-0.2320482368,0.01506,72.72062854,
0.01508,0.1333820574,0.01508,72.35519825,
0.0151,-0.2320482368,0.0151,72.72062854,
0.01512,0.4988123515,0.01512,72.72062854,
0.01514,0.4988123515,0.01514,72.35519825,
0.01516,1.960533528,0.01516,72.72062854,
0.01518,0.8642426457,0.01518,72.35519825,
0.0152,1.960533528,0.0152,72.72062854,
0.01522,1.22967294,0.01522,72.72062854,
0.01524,0.8642426457,0.01524,72.35519825,
0.01526,0.8642426457,0.01526,72.72062854,
0.01528,0.4988123515,0.01528,72.72062854,
0.0153,-0.9629088251,0.0153,72.35519825,
0.01532,0.1333820574,0.01532,72.35519825,
0.01534,-0.2320482368,0.01534,72.72062854,
0.01536,0.1333820574,0.01536,72.35519825,
0.01538,-0.2320482368,0.01538,72.35519825,
0.0154,0.1333820574,0.0154,73.08605883,
0.01542,1.22967294,0.01542,72.72062854,
0.01544,-0.2320482368,0.01544,72.72062854,
0.01546,0.1333820574,0.01546,72.72062854,
0.01548,0.1333820574,0.01548,72.35519825,
0.0155,-1.328339119,0.0155,72.72062854,
0.01552,-2.790060296,0.01552,73.08605883,
0.01554,-3.886351179,0.01554,73.81691942,
0.01556,-2.790060296,0.01556,72.35519825,
0.01558,-2.790060296,0.01558,74.18234972,
0.0156,-1.328339119,0.0156,73.08605883,
0.01562,-2.424630002,0.01562,72.35519825,
0.01564,0.8642426457,0.01564,73.81691942,
0.01566,0.8642426457,0.01566,73.08605883,
0.01568,0.8642426457,0.01568,73.45148913,
0.0157,0.1333820574,0.0157,72.72062854,
0.01572,0.1333820574,0.01572,72.72062854,
0.01574,0.1333820574,0.01574,73.08605883,
0.01576,-1.693769413,0.01576,73.08605883,
0.01578,0.1333820574,0.01578,72.72062854,
0.0158,0.1333820574,0.0158,72.72062854,
0.01582,-1.693769413,0.01582,72.72062854,
0.01584,-0.9629088251,0.01584,72.72062854,
0.01586,0.4988123515,0.01586,72.72062854,
0.01588,-0.2320482368,0.01588,73.08605883,
0.0159,1.960533528,0.0159,73.08605883,
0.01592,1.22967294,0.01592,73.45148913,
0.01594,0.8642426457,0.01594,73.08605883,
0.01596,1.22967294,0.01596,72.72062854,
0.01598,0.1333820574,0.01598,73.08605883,
0.016,0.4988123515,0.016,73.08605883,
0.01602,2.691394117,0.01602,72.72062854,
0.01604,1.22967294,0.01604,72.72062854,
0.01606,0.1333820574,0.01606,73.08605883,
0.01608,1.22967294,0.01608,72.35519825,
0.0161,0.8642426457,0.0161,72.72062854,
0.01612,0.1333820574,0.01612,72.35519825,
0.01614,1.595103234,0.01614,72.72062854,
0.01616,-0.2320482368,0.01616,72.72062854,
0.01618,1.22967294,0.01618,72.72062854,
0.0162,1.960533528,0.0162,72.35519825,
0.01622,2.691394117,0.01622,73.08605883,
0.01624,0.1333820574,0.01624,72.72062854,
0.01626,1.22967294,0.01626,72.72062854,
0.01628,0.4988123515,0.01628,73.08605883,
0.0163,0.1333820574,0.0163,72.72062854,
0.01632,0.1333820574,0.01632,72.72062854,
0.01634,-0.597478531,0.01634,73.45148913,
0.01636,-0.597478531,0.01636,73.08605883,
0.01638,1.595103234,0.01638,72.72062854,
0.0164,0.4988123515,0.0164,73.45148913,
0.01642,0.8642426457,0.01642,72.72062854,
0.01644,1.22967294,0.01644,72.35519825,
0.01646,1.22967294,0.01646,73.08605883,
0.01648,1.22967294,0.01648,73.08605883,
0.0165,-0.9629088251,0.0165,72.72062854,
0.01652,-3.15549059,0.01652,71.62433766,
0.01654,-0.597478531,0.01654,71.98976795,
0.01656,-3.15549059,0.01656,71.98976795,
0.01658,-0.9629088251,0.01658,72.35519825,
0.0166,-2.059199708,0.0166,73.08605883,
0.01662,0.4988123515,0.01662,73.08605883,
0.01664,-2.059199708,0.01664,73.45148913,
0.01666,0.8642426457,0.01666,72.72062854,
0.01668,1.595103234,0.01668,72.72062854,
0.0167,1.22967294,0.0167,73.08605883,
0.01672,-0.9629088251,0.01672,72.72062854,
0.01674,0.8642426457,0.01674,72.72062854,
0.01676,-0.9629088251,0.01676,73.08605883,
0.01678,-1.328339119,0.01678,72.72062854,
0.0168,-0.2320482368,0.0168,72.72062854,
0.01682,1.22967294,0.01682,72.72062854,
0.01684,-1.328339119,0.01684,72.72062854,
0.01686,0.8642426457,0.01686,72.35519825,
0.01688,0.1333820574,0.01688,73.08605883,
0.0169,1.22967294,0.0169,72.72062854,
0.01692,1.22967294,0.01692,72.35519825,
0.01694,1.595103234,0.01694,73.08605883,
0.01696,-0.2320482368,0.01696,73.08605883,
0.01698,1.960533528,0.01698,72.35519825,
0.017,0.4988123515,0.017,72.72062854,
0.01702,0.4988123515,0.01702,72.72062854,
0.01704,1.22967294,0.01704,72.35519825,
0.01706,0.8642426457,0.01706,73.08605883,
0.01708,-0.2320482368,0.01708,72.72062854,
0.0171,0.4988123515,0.0171,72.35519825,
0.01712,0.8642426457,0.01712,73.08605883,
0.01714,1.595103234,0.01714,73.08605883,
0.01716,3.056824411,0.01716,72.72062854,
0.01718,2.325963822,0.01718,72.72062854,
0.0172,1.22967294,0.0172,73.08605883,
0.01722,0.8642426457,0.01722,71.98976795,
0.01724,0.4988123515,0.01724,73.08605883,
0.01726,-0.597478531,0.01726,72.35519825,
0.01728,-0.2320482368,0.01728,73.08605883,
0.0173,-0.597478531,0.0173,73.08605883,
0.01732,-1.328339119,0.01732,72.35519825,
0.01734,0.4988123515,0.01734,72.72062854,
0.01736,1.22967294,0.01736,72.72062854,
0.01738,0.8642426457,0.01738,72.72062854,
0.0174,0.8642426457,0.0174,72.35519825,
0.01742,0.1333820574,0.01742,73.45148913,
0.01744,-1.693769413,0.01744,73.81691942,
0.01746,1.22967294,0.01746,73.45148913,
0.01748,1.22967294,0.01748,71.98976795,
0.0175,-2.790060296,0.0175,71.98976795,
0.01752,-3.520920884,0.01752,72.35519825,
0.01754,-0.9629088251,0.01754,71.98976795,
0.01756,-3.15549059,0.01756,73.08605883,
0.01758,-1.328339119,0.01758,71.62433766,
0.0176,-1.328339119,0.0176,71.62433766,
0.01762,0.4988123515,0.01762,72.72062854,
0.01764,0.4988123515,0.01764,72.35519825,
0.01766,-2.790060296,0.01766,71.98976795,
0.01768,-0.597478531,0.01768,72.72062854,
0.0177,1.595103234,0.0177,72.72062854,
0.01772,-0.9629088251,0.01772,72.35519825,
0.01774,-0.2320482368,0.01774,72.35519825,
0.01776,0.1333820574,0.01776,72.72062854,
0.01778,-0.597478531,0.01778,72.35519825,
0.0178,1.22967294,0.0178,73.08605883,
0.01782,0.4988123515,0.01782,72.72062854,
0.01784,0.1333820574,0.01784,72.35519825,
0.01786,0.8642426457,0.01786,72.35519825,
0.01788,1.22967294,0.01788,72.35519825,
0.0179,1.595103234,0.0179,72.72062854,
0.01792,1.22967294,0.01792,72.72062854,
0.01794,0.8642426457,0.01794,72.72062854,
0.01796,-0.597478531,0.01796,72.35519825,
0.01798,0.8642426457,0.01798,72.72062854,
0.018,0.4988123515,0.018,72.72062854,
0.01802,0.1333820574,0.01802,72.35519825,
0.01804,0.4988123515,0.01804,72.72062854,
0.01806,0.4988123515,0.01806,72.72062854,
0.01808,0.8642426457,0.01808,72.35519825,
0.0181,3.056824411,0.0181,72.72062854,
0.01812,2.691394117,0.01812,72.35519825,
0.01814,2.325963822,0.01814,71.98976795,
0.01816,3.056824411,0.01816,72.72062854,
0.01818,1.960533528,0.01818,72.72062854,
0.0182,2.691394117,0.0182,72.35519825,
0.01822,0.4988123515,0.01822,72.72062854,
0.01824,0.1333820574,0.01824,72.35519825,
0.01826,-0.9629088251,0.01826,72.35519825,
0.01828,-0.2320482368,0.01828,72.72062854,
0.0183,0.4988123515,0.0183,72.72062854,
0.01832,0.4988123515,0.01832,72.35519825,
0.01834,1.595103234,0.01834,72.72062854,
0.01836,1.22967294,0.01836,72.35519825,
0.01838,0.4988123515,0.01838,72.35519825,
0.0184,-0.2320482368,0.0184,72.72062854,
0.01842,-0.597478531,0.01842,73.81691942,
0.01844,-1.328339119,0.01844,71.62433766,
0.01846,-1.328339119,0.01846,73.08605883,
0.01848,-1.328339119,0.01848,72.35519825,
0.0185,-2.059199708,0.0185,71.98976795,
0.01852,-2.790060296,0.01852,71.98976795,
0.01854,-2.790060296,0.01854,72.72062854,
0.01856,-0.9629088251,0.01856,72.35519825,
0.01858,1.595103234,0.01858,73.08605883,
0.0186,0.8642426457,0.0186,72.35519825,
0.01862,0.4988123515,0.01862,72.35519825,
0.01864,0.4988123515,0.01864,72.72062854,
0.01866,0.1333820574,0.01866,72.35519825,
0.01868,-1.328339119,0.01868,71.98976795,
0.0187,0.4988123515,0.0187,72.35519825,
0.01872,-1.328339119,0.01872,72.35519825,
0.01874,-0.597478531,0.01874,72.35519825,
0.01876,-0.2320482368,0.01876,73.08605883,
0.01878,0.4988123515,0.01878,72.35519825,
0.0188,0.1333820574,0.0188,72.35519825,
0.01882,1.22967294,0.01882,72.72062854,
0.01884,1.960533528,0.01884,72.35519825,
0.01886,1.960533528,0.01886,71.98976795,
0.01888,1.595103234,0.01888,72.35519825,
0.0189,2.691394117,0.0189,72.35519825,
0.01892,0.1333820574,0.01892,73.08605883,
0.01894,0.8642426457,0.01894,73.08605883,
0.01896,0.4988123515,0.01896,72.72062854,
0.01898,0.8642426457,0.01898,72.35519825,
0.019,1.22967294,0.019,73.08605883,
0.01902,1.22967294,0.01902,72.72062854,
0.01904,0.1333820574,0.01904,72.72062854,
0.01906,1.22967294,0.01906,73.08605883,
0.01908,1.595103234,0.01908,73.08605883,
0.0191,3.056824411,0.0191,72.35519825,
0.01912,3.056824411,0.01912,72.72062854,
0.01914,1.960533528,0.01914,72.35519825,
0.01916,2.325963822,0.01916,72.72062854,
0.01918,0.1333820574,0.01918,73.45148913,
0.0192,0.8642426457,0.0192,73.08605883,
0.01922,1.960533528,0.01922,73.45148913,
0.01924,-0.9629088251,0.01924,72.72062854,
0.01926,-1.328339119,0.01926,72.35519825,
0.01928,-0.597478531,0.01928,73.45148913,
0.0193,-0.2320482368,0.0193,72.72062854,
0.01932,1.960533528,0.01932,72.35519825,
0.01934,0.4988123515,0.01934,72.72062854,
0.01936,0.4988123515,0.01936,72.72062854,
0.01938,0.4988123515,0.01938,72.72062854,
0.0194,0.1333820574,0.0194,72.35519825,
0.01942,-0.2320482368,0.01942,72.72062854,
0.01944,0.4988123515,0.01944,71.98976795,
0.01946,-3.520920884,0.01946,73.45148913,
0.01948,-3.15549059,0.01948,72.72062854,
0.0195,-2.790060296,0.0195,72.72062854,
0.01952,-3.886351179,0.01952,72.35519825,
0.01954,-2.059199708,0.01954,73.45148913,
0.01956,-0.2320482368,0.01956,73.81691942,
0.01958,-0.2320482368,0.01958,72.72062854,
0.0196,-0.2320482368,0.0196,72.72062854,
0.01962,0.1333820574,0.01962,73.08605883,
0.01964,-1.693769413,0.01964,72.35519825,
0.01966,-0.9629088251,0.01966,72.72062854,
0.01968,-1.328339119,0.01968,73.08605883,
0.0197,-0.2320482368,0.0197,72.35519825,
0.01972,-0.597478531,0.01972,72.35519825,
0.01974,0.1333820574,0.01974,73.08605883,
0.01976,-0.597478531,0.01976,72.72062854,
0.01978,1.22967294,0.01978,72.35519825,
0.0198,1.595103234,0.0198,73.08605883,
0.01982,1.22967294,0.01982,72.72062854,
0.01984,1.960533528,0.01984,72.72062854,
0.01986,1.22967294,0.01986,73.08605883,
0.01988,0.1333820574,0.01988,72.72062854,
0.0199,0.1333820574,0.0199,72.35519825,
0.01992,0.4988123515,0.01992,73.45148913,
0.01994,0.1333820574,0.01994,73.08605883,
0.01996,0.8642426457,0.01996,72.72062854,
0.01998,0.4988123515,0.01998,73.08605883,
0.02,-0.597478531,0.02,73.08605883,
0.02002,0.4988123515,0.02002,72.35519825,
0.02004,0.8642426457,0.02004,72.72062854,
0.02006,0.4988123515,0.02006,72.35519825,
0.02008,1.595103234,0.02008,72.72062854,
0.0201,1.595103234,0.0201,73.45148913,
0.02012,0.8642426457,0.02012,72.72062854,
0.02014,1.595103234,0.02014,72.35519825,
0.02016,1.595103234,0.02016,72.72062854,
0.02018,0.4988123515,0.02018,71.98976795,
0.0202,0.1333820574,0.0202,72.72062854,
0.02022,-0.9629088251,0.02022,72.72062854,
0.02024,-0.2320482368,0.02024,72.35519825,
0.02026,-1.328339119,0.02026,72.72062854,
0.02028,0.4988123515,0.02028,73.08605883,
0.0203,0.4988123515,0.0203,72.72062854,
0.02032,0.8642426457,0.02032,72.72062854,
0.02034,2.325963822,0.02034,73.08605883,
0.02036,-0.597478531,0.02036,72.72062854,
0.02038,1.22967294,0.02038,72.72062854,
0.0204,1.595103234,0.0204,73.81691942,
0.02042,-2.424630002,0.02042,73.08605883,
0.02044,-1.328339119,0.02044,73.08605883,
0.02046,-2.424630002,0.02046,73.08605883,
0.02048,-1.328339119,0.02048,72.35519825,
0.0205,-0.597478531,0.0205,73.08605883,
0.02052,-1.693769413,0.02052,72.72062854,
0.02054,-1.693769413,0.02054,72.35519825,
0.02056,0.4988123515,0.02056,72.35519825,
0.02058,0.8642426457,0.02058,73.08605883,
0.0206,-1.693769413,0.0206,72.35519825,
0.02062,-0.9629088251,0.02062,72.72062854,
0.02064,-0.597478531,0.02064,73.08605883,
0.02066,-1.693769413,0.02066,72.35519825,
0.02068,-1.693769413,0.02068,72.72062854,
0.0207,0.1333820574,0.0207,73.08605883,
0.02072,-1.693769413,0.02072,72.72062854,
0.02074,0.4988123515,0.02074,72.35519825,
0.02076,0.1333820574,0.02076,73.08605883,
0.02078,0.4988123515,0.02078,72.35519825,
0.0208,1.595103234,0.0208,72.35519825,
0.02082,0.8642426457,0.02082,72.72062854,
0.02084,0.4988123515,0.02084,72.35519825,
0.02086,1.22967294,0.02086,72.35519825,
0.02088,0.1333820574,0.02088,73.08605883,
0.0209,-0.597478531,0.0209,72.35519825,
0.02092,-0.9629088251,0.02092,72.35519825,
0.02094,0.8642426457,0.02094,72.72062854,
0.02096,-0.597478531,0.02096,72.35519825,
0.02098,-0.2320482368,0.02098,72.35519825,
0.021,0.8642426457,0.021,72.72062854,
0.02102,0.4988123515,0.02102,72.35519825,
0.02104,1.595103234,0.02104,72.35519825,
0.02106,1.960533528,0.02106,73.08605883,
0.02108,0.8642426457,0.02108,72.72062854,
0.0211,1.595103234,0.0211,72.35519825,
0.02112,1.595103234,0.02112,73.08605883,
0.02114,0.1333820574,0.02114,72.35519825,
0.02116,0.8642426457,0.02116,72.72062854,
0.02118,0.4988123515,0.02118,73.08605883,
0.0212,-0.597478531,0.0212,72.35519825,
0.02122,-0.2320482368,0.02122,72.35519825,
0.02124,-0.597478531,0.02124,73.45148913,
0.02126,-0.597478531,0.02126,72.72062854,
0.02128,0.4988123515,0.02128,72.35519825,
0.0213,0.4988123515,0.0213,73.08605883,
0.02132,-0.2320482368,0.02132,72.72062854,
0.02134,-0.2320482368,0.02134,71.62433766,
0.02136,-0.2320482368,0.02136,73.81691942,
0.02138,-1.693769413,0.02138,73.08605883,
0.0214,0.4988123515,0.0214,72.35519825,
0.02142,0.4988123515,0.02142,71.62433766,
0.02144,-4.251781473,0.02144,72.35519825,
0.02146,-3.15549059,0.02146,72.72062854,
0.02148,-1.328339119,0.02148,72.72062854,
0.0215,-0.9629088251,0.0215,71.98976795,
0.02152,-1.693769413,0.02152,72.72062854,
0.02154,1.22967294,0.02154,73.08605883,
0.02156,-1.328339119,0.02156,72.35519825,
0.02158,-2.059199708,0.02158,72.35519825,
0.0216,-0.597478531,0.0216,73.08605883,
0.02162,-1.328339119,0.02162,73.08605883,
0.02164,-0.9629088251,0.02164,71.98976795,
0.02166,-1.328339119,0.02166,72.72062854,
0.02168,-0.597478531,0.02168,72.72062854,
0.0217,-0.597478531,0.0217,72.72062854,
0.02172,0.8642426457,0.02172,72.72062854,
0.02174,0.8642426457,0.02174,72.72062854,
0.02176,1.595103234,0.02176,72.72062854,
0.02178,2.325963822,0.02178,73.08605883,
0.0218,1.595103234,0.0218,72.72062854,
0.02182,1.22967294,0.02182,72.35519825,
0.02184,0.1333820574,0.02184,72.72062854,
0.02186,-0.597478531,0.02186,72.72062854,
0.02188,1.595103234,0.02188,72.35519825,
0.0219,0.8642426457,0.0219,73.08605883,
0.02192,0.1333820574,0.02192,72.72062854,
0.02194,0.4988123515,0.02194,73.08605883,
0.02196,0.4988123515,0.02196,73.45148913,
0.02198,0.1333820574,0.02198,72.72062854,
0.022,1.22967294,0.022,72.35519825,
0.02202,1.960533528,0.02202,73.08605883,
0.02204,2.325963822,0.02204,72.72062854,
0.02206,2.325963822,0.02206,72.72062854,
0.02208,1.22967294,0.02208,73.08605883,
0.0221,0.4988123515,0.0221,72.72062854,
0.02212,1.595103234,0.02212,72.35519825,
0.02214,0.4988123515,0.02214,73.08605883,
0.02216,-0.597478531,0.02216,72.72062854,
0.02218,0.8642426457,0.02218,72.72062854,
0.0222,-0.597478531,0.0222,72.72062854,
0.02222,-0.2320482368,0.02222,73.08605883,
0.02224,0.8642426457,0.02224,72.72062854,
0.02226,1.960533528,0.02226,73.45148913,
0.02228,1.22967294,0.02228,72.35519825,
0.0223,0.4988123515,0.0223,72.72062854,
0.02232,-0.597478531,0.02232,71.98976795,
0.02234,-0.597478531,0.02234,72.35519825,
0.02236,1.22967294,0.02236,72.72062854,
0.02238,-0.597478531,0.02238,72.72062854,
0.0224,-2.059199708,0.0224,73.81691942,
0.02242,-0.9629088251,0.02242,73.08605883,
0.02244,-2.790060296,0.02244,73.08605883,
0.02246,-2.424630002,0.02246,73.08605883,
0.02248,1.22967294,0.02248,72.72062854,
0.0225,-0.9629088251,0.0225,73.08605883,
0.02252,0.1333820574,0.02252,72.35519825,
0.02254,0.4988123515,0.02254,72.72062854,
0.02256,-0.597478531,0.02256,73.08605883,
0.02258,-1.328339119,0.02258,72.35519825,
0.0226,-0.9629088251,0.0226,72.72062854,
0.02262,-1.328339119,0.02262,73.08605883,
0.02264,-2.424630002,0.02264,72.72062854,
0.02266,-0.2320482368,0.02266,72.35519825,
0.02268,-0.2320482368,0.02268,73.08605883,
0.0227,0.1333820574,0.0227,72.35519825,
0.02272,0.4988123515,0.02272,72.72062854,
0.02274,1.22967294,0.02274,73.08605883,
0.02276,0.8642426457,0.02276,73.08605883,
0.02278,1.960533528,0.02278,72.72062854,
0.0228,1.595103234,0.0228,73.08605883,
0.02282,0.1333820574,0.02282,72.72062854,
0.02284,0.8642426457,0.02284,72.72062854,
0.02286,1.595103234,0.02286,72.72062854,
0.02288,-0.2320482368,0.02288,72.72062854,
0.0229,0.1333820574,0.0229,72.35519825,
0.02292,0.8642426457,0.02292,73.08605883,
0.02294,-0.2320482368,0.02294,72.72062854,
0.02296,0.8642426457,0.02296,72.72062854,
0.02298,2.325963822,0.02298,73.08605883,
0.023,1.595103234,0.023,73.08605883,
0.02302,0.8642426457,0.02302,73.08605883,
0.02304,1.22967294,0.02304,72.72062854,
0.02306,1.22967294,0.02306,72.72062854,
0.02308,1.22967294,0.02308,72.35519825,
0.0231,0.4988123515,0.0231,73.08605883,
0.02312,-0.2320482368,0.02312,72.72062854,
0.02314,0.1333820574,0.02314,72.35519825,
0.02316,-0.597478531,0.02316,72.35519825,
0.02318,-0.597478531,0.02318,72.35519825,
0.0232,0.8642426457,0.0232,72.72062854,
0.02322,1.595103234,0.02322,72.72062854,
0.02324,1.960533528,0.02324,72.72062854,
0.02326,0.8642426457,0.02326,71.62433766,
0.02328,1.22967294,0.02328,71.98976795,
0.0233,0.8642426457,0.0233,71.98976795,
0.02332,-0.597478531,0.02332,71.98976795,
0.02334,-3.520920884,0.02334,72.35519825,
0.02336,0.8642426457,0.02336,73.81691942,
0.02338,-2.059199708,0.02338,72.35519825,
0.0234,-3.15549059,0.0234,72.35519825,
0.02342,-2.790060296,0.02342,72.35519825,
0.02344,-0.597478531,0.02344,72.72062854,
0.02346,0.1333820574,0.02346,72.72062854,
0.02348,0.1333820574,0.02348,72.72062854,
0.0235,0.1333820574,0.0235,72.35519825,
0.02352,0.4988123515,0.02352,71.98976795,
0.02354,0.4988123515,0.02354,72.35519825,
0.02356,-0.597478531,0.02356,72.72062854,
0.02358,-1.328339119,0.02358,71.98976795,
0.0236,-0.2320482368,0.0236,72.35519825,
0.02362,-0.9629088251,0.02362,72.72062854,
0.02364,-0.597478531,0.02364,72.35519825,
0.02366,0.4988123515,0.02366,72.72062854,
0.02368,0.8642426457,0.02368,72.35519825,
0.0237,1.22967294,0.0237,71.98976795,
0.02372,1.595103234,0.02372,72.72062854,
0.02374,1.22967294,0.02374,72.72062854,
0.02376,1.595103234,0.02376,71.98976795,
0.02378,0.4988123515,0.02378,72.35519825,
0.0238,0.8642426457,0.0238,72.35519825,
0.02382,1.595103234,0.02382,71.98976795,
0.02384,0.8642426457,0.02384,72.72062854,
0.02386,1.595103234,0.02386,72.35519825,
0.02388,-0.2320482368,0.02388,71.62433766,
0.0239,1.22967294,0.0239,72.35519825,
0.02392,1.22967294,0.02392,72.35519825,
0.02394,0.4988123515,0.02394,72.35519825,
0.02396,1.960533528,0.02396,72.35519825,
0.02398,1.960533528,0.02398,72.72062854,
0.024,0.8642426457,0.024,72.72062854,
0.02402,0.8642426457,0.02402,72.72062854,
0.02404,1.595103234,0.02404,72.72062854,
0.02406,1.960533528,0.02406,73.08605883,
0.02408,0.4988123515,0.02408,72.72062854,
0.0241,1.22967294,0.0241,71.98976795,
0.02412,-0.597478531,0.02412,73.08605883,
0.02414,-0.2320482368,0.02414,72.72062854,
0.02416,-0.2320482368,0.02416,72.72062854,
0.02418,0.1333820574,0.02418,72.35519825,
0.0242,0.8642426457,0.0242,73.08605883,
0.02422,1.595103234,0.02422,73.08605883,
0.02424,0.1333820574,0.02424,72.35519825,
0.02426,0.8642426457,0.02426,73.08605883,
0.02428,-0.9629088251,0.02428,72.35519825,
0.0243,-0.9629088251,0.0243,72.35519825,
0.02432,1.960533528,0.02432,74.18234972,
0.02434,-3.15549059,0.02434,73.08605883,
0.02436,1.22967294,0.02436,73.08605883,
0.02438,-0.2320482368,0.02438,72.35519825,
0.0244,-1.328339119,0.0244,73.08605883,
0.02442,-0.9629088251,0.02442,73.08605883,
0.02444,-1.328339119,0.02444,73.08605883,
0.02446,-0.597478531,0.02446,72.72062854,
0.02448,0.4988123515,0.02448,72.72062854,
0.0245,1.22967294,0.0245,72.72062854,
0.02452,0.1333820574,0.02452,73.08605883,
0.02454,-2.059199708,0.02454,73.08605883,
0.02456,-0.2320482368,0.02456,72.72062854,
0.02458,-0.9629088251,0.02458,73.08605883,
0.0246,-2.059199708,0.0246,73.08605883,
0.02462,-0.597478531,0.02462,72.35519825,
0.02464,0.4988123515,0.02464,72.72062854,
0.02466,0.1333820574,0.02466,72.72062854,
0.02468,0.8642426457,0.02468,73.08605883,
0.0247,0.4988123515,0.0247,72.35519825,
0.02472,-0.2320482368,0.02472,72.72062854,
0.02474,1.960533528,0.02474,72.72062854,
0.02476,0.8642426457,0.02476,72.72062854,
0.02478,0.8642426457,0.02478,73.08605883,
0.0248,1.960533528,0.0248,72.72062854,
0.02482,1.22967294,0.02482,73.08605883,
0.02484,0.1333820574,0.02484,72.72062854,
0.02486,1.595103234,0.02486,72.72062854,
0.02488,1.22967294,0.02488,72.72062854,
0.0249,1.22967294,0.0249,72.72062854,
0.02492,1.595103234,0.02492,72.35519825,
0.02494,1.960533528,0.02494,73.08605883,
0.02496,1.595103234,0.02496,72.72062854,
0.02498,2.691394117,0.02498,72.72062854,
0.025,1.595103234,0.025,73.45148913,
0.02502,1.960533528,0.02502,73.08605883,
0.02504,0.8642426457,0.02504,72.72062854,
0.02506,0.8642426457,0.02506,72.72062854,
0.02508,0.4988123515,0.02508,72.35519825,
0.0251,-0.597478531,0.0251,72.72062854,
0.02512,-0.2320482368,0.02512,73.08605883,
0.02514,0.4988123515,0.02514,72.35519825,
0.02516,-0.2320482368,0.02516,72.72062854,
0.02518,1.22967294,0.02518,72.72062854,
0.0252,1.960533528,0.0252,71.98976795,
0.02522,2.325963822,0.02522,71.98976795,
0.02524,-0.2320482368,0.02524,73.45148913,
0.02526,0.8642426457,0.02526,72.72062854,
0.02528,-1.328339119,0.02528,72.72062854,
0.0253,-0.597478531,0.0253,73.45148913,
0.02532,-0.2320482368,0.02532,73.45148913,
0.02534,-3.886351179,0.02534,71.98976795,
0.02536,-3.886351179,0.02536,73.45148913,
0.02538,-4.251781473,0.02538,72.35519825,
0.0254,-0.9629088251,0.0254,73.08605883,
0.02542,-0.9629088251,0.02542,73.45148913,
0.02544,0.8642426457,0.02544,72.72062854,
0.02546,-0.597478531,0.02546,72.35519825,
0.02548,0.1333820574,0.02548,73.08605883,
0.0255,-1.328339119,0.0255,73.08605883,
0.02552,-1.693769413,0.02552,72.35519825,
0.02554,-0.2320482368,0.02554,72.72062854,
0.02556,-1.693769413,0.02556,72.72062854,
0.02558,-0.2320482368,0.02558,72.35519825,
0.0256,-0.597478531,0.0256,73.08605883,
0.02562,-0.597478531,0.02562,72.72062854,
0.02564,-0.597478531,0.02564,72.72062854,
0.02566,1.595103234,0.02566,73.08605883,
0.02568,-0.2320482368,0.02568,72.35519825,
0.0257,0.8642426457,0.0257,72.35519825,
0.02572,1.595103234,0.02572,73.08605883,
0.02574,1.22967294,0.02574,72.35519825,
0.02576,1.595103234,0.02576,71.98976795,
0.02578,0.1333820574,0.02578,73.08605883,
0.0258,0.8642426457,0.0258,72.35519825,
0.02582,0.1333820574,0.02582,72.35519825,
0.02584,-0.2320482368,0.02584,72.72062854,
0.02586,-0.2320482368,0.02586,72.72062854,
0.02588,0.8642426457,0.02588,72.72062854,
0.0259,0.8642426457,0.0259,73.08605883,
0.02592,0.4988123515,0.02592,72.35519825,
0.02594,3.056824411,0.02594,72.35519825,
0.02596,1.960533528,0.02596,73.08605883,
0.02598,2.325963822,0.02598,72.35519825,
0.026,0.8642426457,0.026,72.35519825,
0.02602,1.22967294,0.02602,73.08605883,
0.02604,0.1333820574,0.02604,72.35519825,
0.02606,-0.597478531,0.02606,72.35519825,
0.02608,-0.2320482368,0.02608,73.45148913,
0.0261,-0.2320482368,0.0261,72.35519825,
0.02612,-0.597478531,0.02612,72.35519825,
0.02614,0.1333820574,0.02614,72.35519825,
0.02616,-0.2320482368,0.02616,72.72062854,
0.02618,-0.2320482368,0.02618,72.35519825,
0.0262,0.4988123515,0.0262,73.45148913,
0.02622,-0.9629088251,0.02622,72.35519825,
0.02624,1.595103234,0.02624,71.98976795,
0.02626,-1.693769413,0.02626,73.08605883,
0.02628,-0.9629088251,0.02628,71.98976795,
0.0263,-2.059199708,0.0263,73.08605883,
0.02632,-2.424630002,0.02632,73.45148913,
0.02634,-0.597478531,0.02634,72.35519825,
0.02636,-2.424630002,0.02636,72.72062854,
0.02638,0.1333820574,0.02638,72.72062854,
0.0264,0.4988123515,0.0264,71.98976795,
0.02642,0.1333820574,0.02642,73.08605883,
0.02644,-0.2320482368,0.02644,73.45148913,
0.02646,-1.328339119,0.02646,71.98976795,
0.02648,-1.328339119,0.02648,72.35519825,
0.0265,-0.597478531,0.0265,72.72062854,
0.02652,-1.693769413,0.02652,72.35519825,
0.02654,-0.2320482368,0.02654,72.35519825,
0.02656,-0.9629088251,0.02656,72.72062854,
0.02658,-0.597478531,0.02658,72.35519825,
0.0266,-0.2320482368,0.0266,72.35519825,
0.02662,1.22967294,0.02662,73.08605883,
0.02664,1.22967294,0.02664,72.72062854,
0.02666,0.4988123515,0.02666,72.72062854,
0.02668,1.595103234,0.02668,73.08605883,
0.0267,1.595103234,0.0267,72.35519825,
0.02672,1.595103234,0.02672,72.35519825,
0.02674,0.1333820574,0.02674,73.81691942,
0.02676,-1.693769413,0.02676,72.72062854,
0.02678,0.4988123515,0.02678,71.98976795,
0.0268,1.22967294,0.0268,73.45148913,
0.02682,-0.597478531,0.02682,72.72062854,
0.02684,-0.597478531,0.02684,72.35519825,
0.02686,0.8642426457,0.02686,73.08605883,
0.02688,0.4988123515,0.02688,72.35519825,
0.0269,1.595103234,0.0269,72.35519825,
0.02692,0.8642426457,0.02692,73.45148913,
0.02694,1.595103234,0.02694,72.35519825,
0.02696,1.595103234,0.02696,72.35519825,
0.02698,0.8642426457,0.02698,73.08605883,
0.027,0.8642426457,0.027,73.08605883,
0.02702,0.4988123515,0.02702,72.35519825,
0.02704,-0.597478531,0.02704,72.72062854,
0.02706,0.1333820574,0.02706,72.72062854,
0.02708,-0.2320482368,0.02708,72.72062854,
0.0271,0.1333820574,0.0271,73.08605883,
0.02712,-0.2320482368,0.02712,72.72062854,
0.02714,0.8642426457,0.02714,73.08605883,
0.02716,0.4988123515,0.02716,73.45148913,
0.02718,0.8642426457,0.02718,73.08605883,
0.0272,0.4988123515,0.0272,73.08605883,
0.02722,-0.9629088251,0.02722,72.72062854,
0.02724,-2.424630002,0.02724,73.08605883,
0.02726,-3.520920884,0.02726,72.72062854,
0.02728,-0.2320482368,0.02728,73.08605883,
0.0273,-2.424630002,0.0273,73.81691942,
0.02732,-1.693769413,0.02732,72.72062854,
0.02734,-2.059199708,0.02734,71.98976795,
0.02736,-1.328339119,0.02736,72.72062854,
0.02738,1.595103234,0.02738,72.35519825,
0.0274,0.1333820574,0.0274,73.08605883,
0.02742,0.8642426457,0.02742,71.98976795,
0.02744,-1.693769413,0.02744,72.35519825,
0.02746,-0.9629088251,0.02746,73.08605883,
0.02748,-0.9629088251,0.02748,73.08605883,
0.0275,-2.059199708,0.0275,73.08605883,
0.02752,-0.9629088251,0.02752,73.08605883,
0.02754,-2.059199708,0.02754,72.72062854,
0.02756,-0.9629088251,0.02756,72.35519825,
0.02758,0.8642426457,0.02758,72.72062854,
0.0276,-0.2320482368,0.0276,72.35519825,
0.02762,0.4988123515,0.02762,72.72062854,
0.02764,1.595103234,0.02764,72.72062854,
0.02766,0.1333820574,0.02766,72.72062854,
0.02768,1.595103234,0.02768,72.35519825,
0.0277,1.595103234,0.0277,73.08605883,
0.02772,-1.328339119,0.02772,72.72062854,
0.02774,0.8642426457,0.02774,72.72062854,
0.02776,1.22967294,0.02776,73.08605883,
0.02778,-0.2320482368,0.02778,72.35519825,
0.0278,0.1333820574,0.0278,72.72062854,
0.02782,1.22967294,0.02782,72.72062854,
0.02784,0.8642426457,0.02784,72.72062854,
0.02786,1.960533528,0.02786,72.35519825,
0.02788,1.22967294,0.02788,73.08605883,
0.0279,0.8642426457,0.0279,72.35519825,
0.02792,0.8642426457,0.02792,72.35519825,
0.02794,1.595103234,0.02794,73.08605883,
0.02796,0.1333820574,0.02796,72.35519825,
0.02798,1.595103234,0.02798,72.72062854,
0.028,1.22967294,0.028,73.08605883,
0.02802,-0.2320482368,0.02802,72.72062854,
0.02804,-2.059199708,0.02804,72.72062854,
0.02806,-0.9629088251,0.02806,72.72062854,
0.02808,-1.328339119,0.02808,72.72062854,
0.0281,1.22967294,0.0281,72.35519825,
0.02812,0.8642426457,0.02812,73.08605883,
0.02814,0.4988123515,0.02814,72.35519825,
0.02816,0.4988123515,0.02816,72.35519825,
0.02818,-1.328339119,0.02818,73.08605883,
0.0282,-1.328339119,0.0282,72.35519825,
0.02822,0.4988123515,0.02822,73.08605883,
0.02824,-2.059199708,0.02824,72.72062854,
0.02826,-4.251781473,0.02826,72.72062854,
0.02828,-1.328339119,0.02828,72.35519825,
0.0283,-2.424630002,0.0283,72.35519825,
0.02832,-2.059199708,0.02832,72.72062854,
0.02834,-0.2320482368,0.02834,73.08605883,
0.02836,-0.2320482368,0.02836,72.72062854,
0.02838,-0.2320482368,0.02838,72.35519825,
0.0284,-0.2320482368,0.0284,72.72062854,
0.02842,0.4988123515,0.02842,73.08605883,
0.02844,-1.693769413,0.02844,72.72062854,
0.02846,-0.9629088251,0.02846,72.35519825,
0.02848,-0.9629088251,0.02848,73.08605883,
0.0285,-0.9629088251,0.0285,72.72062854,
0.02852,-0.597478531,0.02852,72.72062854,
0.02854,-0.2320482368,0.02854,72.72062854,
0.02856,0.1333820574,0.02856,72.35519825,
0.02858,0.1333820574,0.02858,72.72062854,
0.0286,1.22967294,0.0286,73.08605883,
0.02862,1.22967294,0.02862,73.08605883,
0.02864,1.22967294,0.02864,72.72062854,
0.02866,0.8642426457,0.02866,72.35519825,
0.02868,0.4988123515,0.02868,72.72062854,
0.0287,0.1333820574,0.0287,72.72062854,
0.02872,0.1333820574,0.02872,72.72062854,
0.02874,0.4988123515,0.02874,73.08605883,
0.02876,-0.2320482368,0.02876,72.72062854,
0.02878,-0.597478531,0.02878,73.08605883,
0.0288,0.1333820574,0.0288,73.08605883,
0.02882,0.4988123515,0.02882,72.72062854,
0.02884,1.595103234,0.02884,73.08605883,
0.02886,1.22967294,0.02886,72.35519825,
0.02888,2.691394117,0.02888,72.72062854,
0.0289,1.595103234,0.0289,72.72062854,
0.02892,1.22967294,0.02892,72.72062854,
0.02894,3.056824411,0.02894,73.08605883,
0.02896,1.595103234,0.02896,72.72062854,
0.02898,1.595103234,0.02898,72.35519825,
0.029,-0.2320482368,0.029,72.35519825,
0.02902,-0.9629088251,0.02902,72.35519825,
0.02904,0.1333820574,0.02904,72.72062854,
0.02906,-0.9629088251,0.02906,72.72062854,
0.02908,0.8642426457,0.02908,72.72062854,
0.0291,0.1333820574,0.0291,72.35519825,
0.02912,1.595103234,0.02912,71.98976795,
0.02914,1.22967294,0.02914,72.72062854,
0.02916,-0.2320482368,0.02916,72.35519825,
0.02918,1.22967294,0.02918,73.08605883,
0.0292,-1.693769413,0.0292,72.72062854,
0.02922,1.22967294,0.02922,72.35519825,
0.02924,-2.059199708,0.02924,72.72062854,
0.02926,0.1333820574,0.02926,72.35519825,
0.02928,0.1333820574,0.02928,71.98976795,
0.0293,-2.424630002,0.0293,71.98976795,
0.02932,-0.2320482368,0.02932,72.72062854,
0.02934,-0.597478531,0.02934,73.08605883,
0.02936,0.8642426457,0.02936,72.35519825,
0.02938,0.4988123515,0.02938,72.35519825,
0.0294,-0.2320482368,0.0294,72.35519825,
0.02942,-0.597478531,0.02942,72.72062854,
0.02944,-0.597478531,0.02944,72.72062854,
0.02946,-0.597478531,0.02946,72.72062854,
0.02948,-0.2320482368,0.02948,72.72062854,
0.0295,-0.9629088251,0.0295,72.35519825,
0.02952,0.1333820574,0.02952,73.08605883,
0.02954,-0.2320482368,0.02954,72.72062854,
0.02956,0.4988123515,0.02956,72.35519825,
0.02958,1.595103234,0.02958,73.45148913,
0.0296,1.960533528,0.0296,72.35519825,
0.02962,1.595103234,0.02962,72.72062854,
0.02964,1.22967294,0.02964,73.08605883,
0.02966,0.8642426457,0.02966,72.35519825,
0.02968,-0.2320482368,0.02968,72.72062854,
0.0297,0.8642426457,0.0297,72.72062854,
0.02972,-0.2320482368,0.02972,72.72062854,
0.02974,1.22967294,0.02974,72.35519825,
0.02976,0.4988123515,0.02976,72.72062854,
0.02978,0.4988123515,0.02978,72.72062854,
0.0298,0.8642426457,0.0298,72.35519825,
0.02982,1.595103234,0.02982,73.08605883,
0.02984,1.22967294,0.02984,72.72062854,
0.02986,2.325963822,0.02986,72.72062854,
0.02988,1.22967294,0.02988,72.72062854,
0.0299,1.22967294,0.0299,72.72062854,
0.02992,-0.597478531,0.02992,72.35519825,
0.02994,1.595103234,0.02994,72.72062854,
0.02996,0.1333820574,0.02996,72.35519825,
0.02998,-0.9629088251,0.02998,73.08605883,
0.03,-1.693769413,0.03,72.35519825,
0.03002,-0.597478531,0.03002,72.72062854,
0.03004,0.1333820574,0.03004,73.45148913,
0.03006,0.4988123515,0.03006,72.72062854,
0.03008,1.22967294,0.03008,72.35519825,
0.0301,1.22967294,0.0301,73.45148913,
0.03012,-1.328339119,0.03012,72.72062854,
0.03014,-1.328339119,0.03014,71.25890736,
0.03016,-0.9629088251,0.03016,73.45148913,
0.03018,-0.597478531,0.03018,73.45148913,
0.0302,1.960533528,0.0302,73.08605883,
0.03022,-2.059199708,0.03022,73.08605883,
0.03024,-0.9629088251,0.03024,73.08605883,
0.03026,-3.15549059,0.03026,72.35519825,
0.03028,-1.328339119,0.03028,73.08605883,
0.0303,0.1333820574,0.0303,73.45148913,
0.03032,0.8642426457,0.03032,72.35519825,
0.03034,-0.9629088251,0.03034,72.72062854,
0.03036,-0.597478531,0.03036,72.72062854,
0.03038,0.4988123515,0.03038,72.72062854,
0.0304,-0.597478531,0.0304,72.72062854,
0.03042,-1.693769413,0.03042,72.72062854,
0.03044,-1.693769413,0.03044,72.72062854,
0.03046,0.1333820574,0.03046,72.72062854,
0.03048,-1.693769413,0.03048,72.35519825,
0.0305,0.1333820574,0.0305,72.35519825,
0.03052,-0.2320482368,0.03052,73.08605883,
0.03054,0.4988123515,0.03054,72.72062854,
0.03056,2.325963822,0.03056,72.72062854,
0.03058,1.22967294,0.03058,73.45148913,
0.0306,-0.2320482368,0.0306,73.08605883,
0.03062,1.595103234,0.03062,72.72062854,
0.03064,0.8642426457,0.03064,72.72062854,
0.03066,0.1333820574,0.03066,72.72062854,
0.03068,0.1333820574,0.03068,72.72062854,
0.0307,0.8642426457,0.0307,72.72062854,
0.03072,0.4988123515,0.03072,72.35519825,
0.03074,0.4988123515,0.03074,72.72062854,
0.03076,1.595103234,0.03076,73.08605883,
0.03078,0.8642426457,0.03078,72.35519825,
0.0308,1.960533528,0.0308,72.35519825,
0.03082,3.056824411,0.03082,72.72062854,
0.03084,1.595103234,0.03084,72.35519825,
0.03086,1.960533528,0.03086,72.72062854,
0.03088,0.8642426457,0.03088,73.08605883,
0.0309,0.1333820574,0.0309,73.08605883,
0.03092,0.8642426457,0.03092,71.98976795,
0.03094,0.4988123515,0.03094,72.72062854,
0.03096,-1.328339119,0.03096,72.72062854,
0.03098,-0.2320482368,0.03098,71.98976795,
0.031,-0.2320482368,0.031,72.35519825,
0.03102,0.1333820574,0.03102,72.35519825,
0.03104,0.4988123515,0.03104,72.72062854,
0.03106,1.22967294,0.03106,73.08605883,
0.03108,0.1333820574,0.03108,72.72062854,
0.0311,0.1333820574,0.0311,72.72062854,
0.03112,-0.2320482368,0.03112,73.81691942,
0.03114,-1.693769413,0.03114,72.72062854,
0.03116,-2.790060296,0.03116,70.89347707,
0.03118,0.1333820574,0.03118,73.45148913,
0.0312,-0.597478531,0.0312,73.08605883,
0.03122,-2.790060296,0.03122,73.45148913,
0.03124,-4.251781473,0.03124,72.72062854,
0.03126,-3.15549059,0.03126,73.08605883,
0.03128,-0.597478531,0.03128,72.35519825,
0.0313,-0.9629088251,0.0313,72.72062854,
0.03132,-0.2320482368,0.03132,72.72062854,
0.03134,0.1333820574,0.03134,72.35519825,
0.03136,-1.328339119,0.03136,72.72062854,
0.03138,-2.059199708,0.03138,72.72062854,
0.0314,-1.328339119,0.0314,72.35519825,
0.03142,-0.9629088251,0.03142,72.72062854,
0.03144,-0.597478531,0.03144,72.72062854,
0.03146,-0.2320482368,0.03146,72.72062854,
0.03148,-0.2320482368,0.03148,72.72062854,
0.0315,-0.2320482368,0.0315,72.35519825,
0.03152,0.8642426457,0.03152,72.72062854,
0.03154,1.595103234,0.03154,73.08605883,
0.03156,0.1333820574,0.03156,72.72062854,
0.03158,1.960533528,0.03158,72.72062854,
0.0316,0.1333820574,0.0316,73.08605883,
0.03162,0.1333820574,0.03162,72.72062854,
0.03164,0.8642426457,0.03164,72.35519825,
0.03166,0.8642426457,0.03166,73.08605883,
0.03168,0.1333820574,0.03168,72.35519825,
0.0317,1.22967294,0.0317,72.72062854,
0.03172,-0.597478531,0.03172,73.08605883,
0.03174,-0.2320482368,0.03174,72.35519825,
0.03176,0.4988123515,0.03176,72.35519825,
0.03178,1.22967294,0.03178,72.72062854,
0.0318,1.960533528,0.0318,72.72062854,
0.03182,1.960533528,0.03182,73.08605883,
0.03184,0.8642426457,0.03184,72.72062854,
0.03186,-0.2320482368,0.03186,72.35519825,
0.03188,1.22967294,0.03188,72.35519825,
0.0319,0.4988123515,0.0319,72.72062854,
0.03192,-0.597478531,0.03192,71.98976795,
0.03194,0.4988123515,0.03194,72.72062854,
0.03196,-0.597478531,0.03196,72.72062854,
0.03198,0.1333820574,0.03198,71.98976795,
0.032,0.1333820574,0.032,72.35519825,
0.03202,0.8642426457,0.03202,72.72062854,
0.03204,0.1333820574,0.03204,72.35519825,
0.03206,0.4988123515,0.03206,72.35519825,
0.03208,-1.328339119,0.03208,71.98976795,
0.0321,-1.693769413,0.0321,70.89347707,
0.03212,-0.597478531,0.03212,73.08605883,
0.03214,-2.424630002,0.03214,72.35519825,
0.03216,0.8642426457,0.03216,72.35519825,
0.03218,0.8642426457,0.03218,72.72062854,
0.0322,0.4988123515,0.0322,72.72062854,
0.03222,0.1333820574,0.03222,71.98976795,
0.03224,1.22967294,0.03224,72.72062854,
0.03226,-0.597478531,0.03226,71.98976795,
0.03228,-1.693769413,0.03228,72.35519825,
0.0323,0.4988123515,0.0323,72.35519825,
0.03232,-0.2320482368,0.03232,72.35519825,
0.03234,0.1333820574,0.03234,72.35519825,
0.03236,-0.597478531,0.03236,72.72062854,
0.03238,-0.2320482368,0.03238,72.35519825,
0.0324,-1.328339119,0.0324,71.98976795,
0.03242,-1.693769413,0.03242,72.72062854,
0.03244,-1.328339119,0.03244,72.72062854,
0.03246,-0.2320482368,0.03246,71.98976795,
0.03248,0.8642426457,0.03248,72.72062854,
0.0325,0.4988123515,0.0325,72.72062854,
0.03252,0.8642426457,0.03252,71.98976795,
0.03254,3.056824411,0.03254,72.35519825,
0.03256,0.8642426457,0.03256,72.72062854,
0.03258,0.1333820574,0.03258,72.35519825,
0.0326,1.595103234,0.0326,72.35519825,
0.03262,0.8642426457,0.03262,72.72062854,
0.03264,0.4988123515,0.03264,71.98976795,
0.03266,0.4988123515,0.03266,72.35519825,
0.03268,-0.2320482368,0.03268,72.35519825,
0.0327,0.4988123515,0.0327,71.98976795,
0.03272,0.1333820574,0.03272,72.35519825,
0.03274,0.4988123515,0.03274,72.35519825,
0.03276,0.1333820574,0.03276,71.98976795,
0.03278,1.960533528,0.03278,72.72062854,
0.0328,0.4988123515,0.0328,72.72062854,
0.03282,1.22967294,0.03282,71.98976795,
0.03284,1.22967294,0.03284,72.35519825,
0.03286,0.8642426457,0.03286,71.98976795,
0.03288,0.1333820574,0.03288,72.35519825,
0.0329,1.22967294,0.0329,73.08605883,
0.03292,-0.597478531,0.03292,72.72062854,
0.03294,-0.2320482368,0.03294,71.98976795,
0.03296,-1.328339119,0.03296,72.35519825,
0.03298,0.4988123515,0.03298,72.35519825,
0.033,0.1333820574,0.033,71.25890736,
0.03302,0.4988123515,0.03302,71.62433766,
0.03304,0.1333820574,0.03304,72.72062854,
0.03306,0.4988123515,0.03306,72.35519825,
0.03308,-0.2320482368,0.03308,72.72062854,
0.0331,-0.597478531,0.0331,71.62433766,
0.03312,-0.597478531,0.03312,73.08605883,
0.03314,-0.2320482368,0.03314,72.35519825,
0.03316,-3.15549059,0.03316,72.35519825,
0.03318,-3.520920884,0.03318,71.98976795,
0.0332,-0.9629088251,0.0332,72.72062854,
0.03322,0.4988123515,0.03322,72.72062854,
0.03324,-0.597478531,0.03324,72.35519825,
0.03326,-0.597478531,0.03326,72.72062854,
0.03328,0.4988123515,0.03328,71.98976795,
0.0333,-0.2320482368,0.0333,72.35519825,
0.03332,-0.2320482368,0.03332,72.35519825,
0.03334,-2.424630002,0.03334,72.72062854,
0.03336,-1.328339119,0.03336,72.35519825,
0.03338,-0.597478531,0.03338,72.35519825,
0.0334,-0.9629088251,0.0334,72.35519825,
0.03342,-0.9629088251,0.03342,72.35519825,
0.03344,0.1333820574,0.03344,72.35519825,
0.03346,0.1333820574,0.03346,72.72062854,
0.03348,-0.2320482368,0.03348,71.98976795,
0.0335,0.4988123515,0.0335,72.72062854,
0.03352,1.22967294,0.03352,72.72062854,
0.03354,0.4988123515,0.03354,71.98976795,
0.03356,1.22967294,0.03356,72.35519825,
0.03358,1.595103234,0.03358,72.35519825,
0.0336,-0.2320482368,0.0336,72.35519825,
0.03362,1.22967294,0.03362,72.72062854,
0.03364,0.8642426457,0.03364,72.35519825,
0.03366,-0.597478531,0.03366,71.98976795,
0.03368,0.4988123515,0.03368,72.35519825,
0.0337,1.22967294,0.0337,72.72062854,
0.03372,1.22967294,0.03372,73.08605883,
0.03374,0.8642426457,0.03374,72.72062854,
0.03376,0.4988123515,0.03376,72.35519825,
0.03378,1.22967294,0.03378,72.72062854,
0.0338,-0.597478531,0.0338,72.35519825,
0.03382,1.595103234,0.03382,72.35519825,
0.03384,1.595103234,0.03384,73.08605883,
0.03386,-0.597478531,0.03386,71.98976795,
0.03388,-0.9629088251,0.03388,72.35519825,
0.0339,0.1333820574,0.0339,73.08605883,
0.03392,-2.424630002,0.03392,72.35519825,
0.03394,-0.9629088251,0.03394,72.35519825,
0.03396,0.1333820574,0.03396,73.08605883,
0.03398,0.1333820574,0.03398,72.35519825,
0.034,0.1333820574,0.034,72.72062854,
0.03402,0.1333820574,0.03402,72.72062854,
0.03404,-0.597478531,0.03404,71.98976795,
0.03406,-1.693769413,0.03406,71.25890736,
0.03408,-1.693769413,0.03408,72.72062854,
0.0341,-1.693769413,0.0341,72.35519825,
0.03412,-2.790060296,0.03412,73.08605883,
0.03414,-4.617211767,0.03414,72.72062854,
0.03416,-1.328339119,0.03416,72.72062854,
0.03418,-2.059199708,0.03418,72.72062854,
0.0342,-1.328339119,0.0342,73.08605883,
0.03422,-1.328339119,0.03422,71.98976795,
0.03424,-0.9629088251,0.03424,73.08605883,
0.03426,-0.597478531,0.03426,73.08605883,
0.03428,-1.328339119,0.03428,73.08605883,
0.0343,-0.597478531,0.0343,72.35519825,
0.03432,-2.059199708,0.03432,73.08605883,
0.03434,-0.9629088251,0.03434,72.72062854,
0.03436,-2.424630002,0.03436,72.35519825,
0.03438,-1.328339119,0.03438,72.72062854,
0.0344,-0.9629088251,0.0344,72.72062854,
0.03442,0.1333820574,0.03442,73.08605883,
0.03444,-0.2320482368,0.03444,72.35519825,
0.03446,0.8642426457,0.03446,72.72062854,
0.03448,0.8642426457,0.03448,72.35519825,
0.0345,1.22967294,0.0345,72.35519825,
0.03452,1.595103234,0.03452,73.08605883,
0.03454,0.4988123515,0.03454,72.35519825,
0.03456,0.1333820574,0.03456,72.35519825,
0.03458,-0.597478531,0.03458,72.72062854,
0.0346,-0.2320482368,0.0346,72.35519825,
0.03462,0.4988123515,0.03462,73.08605883,
0.03464,-0.9629088251,0.03464,72.35519825,
0.03466,-0.2320482368,0.03466,71.98976795,
0.03468,0.1333820574,0.03468,73.08605883,
0.0347,1.595103234,0.0347,71.98976795,
0.03472,1.595103234,0.03472,72.72062854,
0.03474,1.22967294,0.03474,72.72062854,
0.03476,0.4988123515,0.03476,72.35519825,
0.03478,0.4988123515,0.03478,71.98976795,
0.0348,0.4988123515,0.0348,73.08605883,
0.03482,0.1333820574,0.03482,72.35519825,
0.03484,0.1333820574,0.03484,72.72062854,
0.03486,-0.2320482368,0.03486,73.08605883,
0.03488,-1.693769413,0.03488,72.35519825,
0.0349,-1.693769413,0.0349,71.98976795,
0.03492,-0.2320482368,0.03492,73.08605883,
0.03494,-0.9629088251,0.03494,72.35519825,
0.03496,0.4988123515,0.03496,71.98976795,
0.03498,0.8642426457,0.03498,73.08605883,
0.035,-0.9629088251,0.035,71.98976795,
0.03502,-1.328339119,0.03502,71.62433766,
0.03504,-0.2320482368,0.03504,73.81691942,
0.03506,-2.790060296,0.03506,73.45148913,
0.03508,-1.328339119,0.03508,72.35519825,
0.0351,-2.424630002,0.0351,72.72062854,
0.03512,-1.328339119,0.03512,72.35519825,
0.03514,-0.9629088251,0.03514,73.08605883,
0.03516,-2.424630002,0.03516,72.72062854,
0.03518,-1.693769413,0.03518,71.98976795,
0.0352,-1.328339119,0.0352,72.35519825,
0.03522,0.4988123515,0.03522,72.72062854,
0.03524,-0.9629088251,0.03524,72.35519825,
0.03526,-1.328339119,0.03526,71.98976795,
0.03528,-0.597478531,0.03528,73.08605883,
0.0353,-0.597478531,0.0353,72.35519825,
0.03532,-1.693769413,0.03532,72.35519825,
0.03534,-0.597478531,0.03534,72.72062854,
0.03536,-2.059199708,0.03536,72.35519825,
0.03538,-1.693769413,0.03538,72.35519825,
0.0354,-0.9629088251,0.0354,73.08605883,
0.03542,0.4988123515,0.03542,72.35519825,
0.03544,0.1333820574,0.03544,72.72062854,
0.03546,0.8642426457,0.03546,73.08605883,
0.03548,0.4988123515,0.03548,72.72062854,
0.0355,0.8642426457,0.0355,72.35519825,
0.03552,1.595103234,0.03552,73.08605883,
0.03554,0.1333820574,0.03554,72.72062854,
0.03556,0.4988123515,0.03556,72.35519825,
0.03558,-0.2320482368,0.03558,72.72062854,
0.0356,0.1333820574,0.0356,72.72062854,
0.03562,0.8642426457,0.03562,72.72062854,
0.03564,0.4988123515,0.03564,72.72062854,
0.03566,1.22967294,0.03566,72.72062854,
0.03568,0.8642426457,0.03568,73.08605883,
0.0357,1.960533528,0.0357,72.35519825,
0.03572,2.691394117,0.03572,72.35519825,
0.03574,1.960533528,0.03574,72.72062854,
0.03576,0.4988123515,0.03576,72.72062854,
0.03578,0.8642426457,0.03578,72.35519825,
0.0358,1.22967294,0.0358,72.72062854,
0.03582,0.1333820574,0.03582,72.72062854,
0.03584,0.1333820574,0.03584,72.35519825,
0.03586,-0.2320482368,0.03586,72.72062854,
0.03588,-0.9629088251,0.03588,72.72062854,
0.0359,-0.2320482368,0.0359,72.35519825,
0.03592,1.960533528,0.03592,72.72062854,
0.03594,0.8642426457,0.03594,73.08605883,
0.03596,0.8642426457,0.03596,72.35519825,
0.03598,-0.597478531,0.03598,71.98976795,
0.036,-1.693769413,0.036,72.72062854,
0.03602,-2.424630002,0.03602,73.81691942,
0.03604,-1.693769413,0.03604,73.81691942,
0.03606,-4.251781473,0.03606,72.35519825,
0.03608,-4.251781473,0.03608,72.72062854,
0.0361,-3.15549059,0.0361,73.45148913,
0.03612,-3.520920884,0.03612,72.72062854,
0.03614,-2.424630002,0.03614,72.35519825,
0.03616,-0.9629088251,0.03616,73.08605883,
0.03618,0.4988123515,0.03618,73.45148913,
0.0362,0.1333820574,0.0362,72.35519825,
0.03622,-1.693769413,0.03622,73.08605883,
0.03624,-1.693769413,0.03624,72.35519825,
0.03626,-0.9629088251,0.03626,72.35519825,
0.03628,-0.9629088251,0.03628,73.08605883,
0.0363,-0.9629088251,0.0363,72.72062854,
0.03632,-0.9629088251,0.03632,72.35519825,
0.03634,-0.597478531,0.03634,73.08605883,
0.03636,-1.693769413,0.03636,72.72062854,
0.03638,0.1333820574,0.03638,72.35519825,
0.0364,0.1333820574,0.0364,73.08605883,
0.03642,0.1333820574,0.03642,72.72062854,
0.03644,1.22967294,0.03644,72.72062854,
0.03646,1.22967294,0.03646,72.72062854,
0.03648,-0.2320482368,0.03648,73.08605883,
0.0365,0.1333820574,0.0365,72.72062854,
0.03652,-0.597478531,0.03652,73.08605883,
0.03654,-1.328339119,0.03654,72.72062854,
0.03656,-0.597478531,0.03656,72.72062854,
0.03658,0.8642426457,0.03658,72.72062854,
0.0366,1.595103234,0.0366,73.08605883,
0.03662,1.595103234,0.03662,71.98976795,
0.03664,0.1333820574,0.03664,73.08605883,
0.03666,0.8642426457,0.03666,72.35519825,
0.03668,1.22967294,0.03668,72.72062854,
0.0367,1.22967294,0.0367,72.35519825,
0.03672,0.4988123515,0.03672,72.72062854,
0.03674,1.22967294,0.03674,72.72062854,
0.03676,1.22967294,0.03676,72.72062854,
0.03678,0.8642426457,0.03678,72.72062854,
0.0368,0.4988123515,0.0368,72.72062854,
0.03682,-0.597478531,0.03682,72.72062854,
0.03684,-0.9629088251,0.03684,72.72062854,
0.03686,-0.597478531,0.03686,72.72062854,
0.03688,1.22967294,0.03688,72.72062854,
0.0369,1.22967294,0.0369,72.72062854,
0.03692,0.1333820574,0.03692,72.72062854,
0.03694,0.1333820574,0.03694,73.08605883,
0.03696,-2.059199708,0.03696,72.72062854,
0.03698,0.1333820574,0.03698,72.35519825,
0.037,0.4988123515,0.037,71.62433766,
0.03702,-0.9629088251,0.03702,72.35519825,
0.03704,-0.597478531,0.03704,72.72062854,
0.03706,-3.15549059,0.03706,71.98976795,
0.03708,-3.886351179,0.03708,72.35519825,
0.0371,-1.693769413,0.0371,72.35519825,
0.03712,-0.597478531,0.03712,72.72062854,
0.03714,-0.2320482368,0.03714,72.72062854,
0.03716,-0.597478531,0.03716,73.08605883,
0.03718,-0.2320482368,0.03718,73.81691942,
0.0372,-1.328339119,0.0372,73.08605883,
0.03722,-0.597478531,0.03722,72.72062854,
0.03724,-0.597478531,0.03724,73.45148913,
0.03726,-1.328339119,0.03726,72.72062854,
0.03728,-0.9629088251,0.03728,72.35519825,
0.0373,-1.693769413,0.0373,73.08605883,
0.03732,-2.059199708,0.03732,72.72062854,
0.03734,-0.597478531,0.03734,72.72062854,
0.03736,0.1333820574,0.03736,73.08605883,
0.03738,0.4988123515,0.03738,73.08605883,
0.0374,1.22967294,0.0374,72.72062854,
0.03742,1.960533528,0.03742,73.45148913,
0.03744,-0.2320482368,0.03744,72.72062854,
0.03746,1.22967294,0.03746,71.98976795,
0.03748,0.8642426457,0.03748,72.72062854,
0.0375,0.1333820574,0.0375,73.08605883,
0.03752,-0.597478531,0.03752,72.72062854,
0.03754,1.22967294,0.03754,71.98976795,
0.03756,0.4988123515,0.03756,72.35519825,
0.03758,0.4988123515,0.03758,72.72062854,
0.0376,0.4988123515,0.0376,71.98976795,
0.03762,1.960533528,0.03762,72.35519825,
0.03764,1.22967294,0.03764,72.35519825,
0.03766,0.1333820574,0.03766,72.72062854,
0.03768,2.325963822,0.03768,72.35519825,
0.0377,1.22967294,0.0377,72.35519825,
0.03772,0.4988123515,0.03772,71.98976795,
0.03774,0.4988123515,0.03774,72.72062854,
0.03776,0.1333820574,0.03776,72.35519825,
0.03778,-0.2320482368,0.03778,72.35519825,
0.0378,0.1333820574,0.0378,72.72062854,
0.03782,-0.597478531,0.03782,72.35519825,
0.03784,-1.693769413,0.03784,71.62433766,
0.03786,1.595103234,0.03786,71.98976795,
0.03788,0.4988123515,0.03788,72.35519825,
0.0379,1.22967294,0.0379,71.98976795,
0.03792,2.325963822,0.03792,73.08605883,
0.03794,-0.2320482368,0.03794,73.08605883,
0.03796,-3.15549059,0.03796,71.25890736,
0.03798,-0.9629088251,0.03798,73.81691942,
0.038,-0.9629088251,0.038,71.62433766,
0.03802,-2.424630002,0.03802,71.98976795,
0.03804,-2.790060296,0.03804,71.98976795,
0.03806,-1.328339119,0.03806,71.98976795,
0.03808,-2.059199708,0.03808,71.98976795,
0.0381,0.1333820574,0.0381,72.72062854,
0.03812,-0.597478531,0.03812,71.98976795,
0.03814,-0.2320482368,0.03814,72.72062854,
0.03816,0.8642426457,0.03816,72.35519825,
0.03818,-0.9629088251,0.03818,72.35519825,
0.0382,-2.059199708,0.0382,72.35519825,
0.03822,0.1333820574,0.03822,72.35519825,
0.03824,-0.597478531,0.03824,72.72062854,
0.03826,-1.328339119,0.03826,71.98976795,
0.03828,0.1333820574,0.03828,72.72062854,
0.0383,-0.597478531,0.0383,72.35519825,
0.03832,0.1333820574,0.03832,71.98976795,
0.03834,0.8642426457,0.03834,72.35519825,
0.03836,0.1333820574,0.03836,72.35519825,
0.03838,0.8642426457,0.03838,71.98976795,
0.0384,0.8642426457,0.0384,72.35519825,
0.03842,1.595103234,0.03842,72.35519825,
0.03844,0.1333820574,0.03844,71.98976795,
0.03846,0.1333820574,0.03846,73.08605883,
0.03848,0.4988123515,0.03848,72.35519825,
0.0385,0.1333820574,0.0385,71.98976795,
0.03852,0.4988123515,0.03852,71.98976795,
0.03854,1.22967294,0.03854,72.35519825,
0.03856,0.8642426457,0.03856,71.98976795,
0.03858,1.595103234,0.03858,71.98976795,
0.0386,0.1333820574,0.0386,71.98976795,
0.03862,1.960533528,0.03862,72.35519825,
0.03864,1.595103234,0.03864,72.35519825,
0.03866,1.960533528,0.03866,72.72062854,
0.03868,0.8642426457,0.03868,71.98976795,
0.0387,0.8642426457,0.0387,72.72062854,
0.03872,1.595103234,0.03872,72.35519825,
0.03874,0.4988123515,0.03874,72.35519825,
0.03876,0.8642426457,0.03876,72.72062854,
0.03878,0.1333820574,0.03878,72.35519825,
0.0388,-1.328339119,0.0388,71.62433766,
0.03882,-0.2320482368,0.03882,72.35519825,
0.03884,-0.9629088251,0.03884,72.72062854,
0.03886,0.8642426457,0.03886,71.62433766,
0.03888,2.691394117,0.03888,72.35519825,
0.0389,-0.597478531,0.0389,72.35519825,
0.03892,-0.597478531,0.03892,72.35519825,
0.03894,-0.9629088251,0.03894,71.25890736,
0.03896,-2.790060296,0.03896,73.08605883,
0.03898,-2.424630002,0.03898,71.62433766,
0.039,-0.9629088251,0.039,71.98976795,
0.03902,-1.693769413,0.03902,72.35519825,
0.03904,-1.328339119,0.03904,71.62433766,
0.03906,-1.693769413,0.03906,73.08605883,
0.03908,1.22967294,0.03908,72.72062854,
0.0391,0.4988123515,0.0391,71.62433766,
0.03912,0.8642426457,0.03912,72.72062854,
0.03914,-0.2320482368,0.03914,72.72062854,
0.03916,-1.328339119,0.03916,72.35519825,
0.03918,-1.693769413,0.03918,72.35519825,
0.0392,-0.9629088251,0.0392,72.72062854,
0.03922,-1.328339119,0.03922,71.98976795,
0.03924,-1.693769413,0.03924,72.35519825,
0.03926,-1.328339119,0.03926,72.72062854,
0.03928,-1.693769413,0.03928,71.98976795,
0.0393,0.4988123515,0.0393,72.35519825,
0.03932,0.1333820574,0.03932,72.35519825,
0.03934,1.22967294,0.03934,72.35519825,
0.03936,0.4988123515,0.03936,73.08605883,
0.03938,1.960533528,0.03938,73.08605883,
0.0394,1.595103234,0.0394,72.35519825,
0.03942,0.8642426457,0.03942,72.72062854,
0.03944,0.8642426457,0.03944,72.35519825,
0.03946,0.4988123515,0.03946,72.72062854,
0.03948,-0.2320482368,0.03948,72.72062854,
0.0395,0.8642426457,0.0395,72.72062854,
0.03952,-0.2320482368,0.03952,72.72062854,
0.03954,0.8642426457,0.03954,72.72062854,
0.03956,0.8642426457,0.03956,73.08605883,
0.03958,1.22967294,0.03958,73.08605883,
0.0396,1.595103234,0.0396,72.35519825,
0.03962,2.325963822,0.03962,71.98976795,
0.03964,1.22967294,0.03964,73.08605883,
0.03966,1.595103234,0.03966,72.72062854,
0.03968,0.8642426457,0.03968,72.35519825,
0.0397,-0.2320482368,0.0397,72.35519825,
0.03972,0.1333820574,0.03972,72.35519825,
0.03974,0.1333820574,0.03974,73.08605883,
0.03976,-1.328339119,0.03976,72.72062854,
0.03978,-0.9629088251,0.03978,72.72062854,
0.0398,-0.9629088251,0.0398,73.08605883,
0.03982,0.1333820574,0.03982,72.35519825,
0.03984,0.4988123515,0.03984,72.72062854,
0.03986,0.1333820574,0.03986,72.72062854,
0.03988,0.1333820574,0.03988,72.35519825,
0.0399,0.8642426457,0.0399,72.35519825,
0.03992,1.22967294,0.03992,71.98976795,
0.03994,-3.15549059,0.03994,71.98976795,
0.03996,-2.059199708,0.03996,72.72062854,
0.03998,0.1333820574,0.03998,72.72062854,
0.04,-3.15549059,0.04,73.81691942,
0.04002,-2.424630002,0.04002,70.89347707,
0.04004,-2.790060296,0.04004,72.72062854,
0.04006,-0.9629088251,0.04006,72.35519825,
0.04008,0.1333820574,0.04008,72.35519825,
0.0401,-0.597478531,0.0401,73.08605883,
0.04012,0.1333820574,0.04012,72.35519825,
0.04014,-0.597478531,0.04014,72.72062854,
0.04016,-2.790060296,0.04016,73.08605883,
0.04018,-1.693769413,0.04018,72.35519825,
0.0402,-1.693769413,0.0402,72.35519825,
0.04022,-0.2320482368,0.04022,72.72062854,
0.04024,-2.059199708,0.04024,72.35519825,
0.04026,-0.9629088251,0.04026,72.35519825,
0.04028,0.4988123515,0.04028,72.72062854,
0.0403,0.8642426457,0.0403,72.35519825,
0.04032,1.22967294,0.04032,71.98976795,
0.04034,0.8642426457,0.04034,72.72062854,
0.04036,0.4988123515,0.04036,72.35519825,
0.04038,0.4988123515,0.04038,71.98976795,
0.0404,0.8642426457,0.0404,73.08605883,
0.04042,-0.597478531,0.04042,72.35519825,
0.04044,-0.2320482368,0.04044,71.98976795,
0.04046,0.8642426457,0.04046,72.72062854,
0.04048,-0.9629088251,0.04048,71.98976795,
0.0405,-0.597478531,0.0405,72.35519825,
0.04052,0.8642426457,0.04052,73.08605883,
0.04054,0.8642426457,0.04054,72.72062854,
0.04056,0.4988123515,0.04056,72.35519825,
0.04058,1.595103234,0.04058,73.08605883,
0.0406,1.22967294,0.0406,71.98976795,
0.04062,1.22967294,0.04062,72.35519825,
0.04064,2.325963822,0.04064,72.72062854,
0.04066,0.1333820574,0.04066,72.35519825,
0.04068,0.4988123515,0.04068,71.98976795,
0.0407,1.22967294,0.0407,73.08605883,
0.04072,-1.328339119,0.04072,72.72062854,
0.04074,-1.328339119,0.04074,71.98976795,
0.04076,-0.597478531,0.04076,72.72062854,
0.04078,-0.9629088251,0.04078,72.72062854,
0.0408,-0.597478531,0.0408,71.98976795,
0.04082,1.22967294,0.04082,73.08605883,
0.04084,1.22967294,0.04084,71.98976795,
0.04086,-0.9629088251,0.04086,72.35519825,
0.04088,-0.2320482368,0.04088,73.45148913,
0.0409,-1.693769413,0.0409,73.45148913,
0.04092,-3.15549059,0.04092,72.72062854,
0.04094,-0.2320482368,0.04094,71.98976795,
0.04096,-0.597478531,0.04096,71.98976795,
0.04098,-3.520920884,0.04098,72.72062854,
0.041,-3.15549059,0.041,73.08605883,
0.04102,-4.617211767,0.04102,72.72062854,
0.04104,-2.059199708,0.04104,71.98976795,
0.04106,0.8642426457,0.04106,73.45148913,
0.04108,-0.2320482368,0.04108,72.35519825,
0.0411,-0.597478531,0.0411,72.72062854,
0.04112,-0.597478531,0.04112,73.45148913,
0.04114,-1.693769413,0.04114,72.35519825,
0.04116,-2.059199708,0.04116,72.35519825,
0.04118,-0.9629088251,0.04118,73.08605883,
0.0412,-2.059199708,0.0412,72.35519825,
0.04122,-1.693769413,0.04122,71.98976795,
0.04124,-0.597478531,0.04124,73.08605883,
0.04126,-0.2320482368,0.04126,72.72062854,
0.04128,0.1333820574,0.04128,72.35519825,
0.0413,1.22967294,0.0413,73.08605883,
0.04132,0.8642426457,0.04132,72.72062854,
0.04134,2.691394117,0.04134,72.35519825,
0.04136,1.595103234,0.04136,72.72062854,
0.04138,-0.2320482368,0.04138,72.35519825,
0.0414,0.4988123515,0.0414,72.35519825,
0.04142,-0.597478531,0.04142,73.08605883,
0.04144,-0.2320482368,0.04144,72.72062854,
0.04146,-0.2320482368,0.04146,72.35519825,
0.04148,-0.597478531,0.04148,73.08605883,
0.0415,-0.9629088251,0.0415,72.72062854,
0.04152,1.22967294,0.04152,72.72062854,
0.04154,1.960533528,0.04154,72.72062854,
0.04156,0.8642426457,0.04156,72.72062854,
0.04158,2.691394117,0.04158,72.35519825,
0.0416,1.595103234,0.0416,73.45148913,
0.04162,0.1333820574,0.04162,73.08605883,
0.04164,-0.597478531,0.04164,72.35519825,
0.04166,0.4988123515,0.04166,72.72062854,
0.04168,-0.597478531,0.04168,72.72062854,
0.0417,-0.597478531,0.0417,72.72062854,
0.04172,-0.9629088251,0.04172,72.72062854,
0.04174,-1.328339119,0.04174,72.72062854,
0.04176,-0.597478531,0.04176,72.35519825,
0.04178,-0.2320482368,0.04178,73.45148913,
0.0418,1.595103234,0.0418,72.72062854,
0.04182,0.1333820574,0.04182,71.98976795,
0.04184,-1.328339119,0.04184,72.72062854,
0.04186,0.4988123515,0.04186,73.08605883,
0.04188,0.1333820574,0.04188,72.72062854,
0.0419,-3.15549059,0.0419,73.81691942,
0.04192,-3.520920884,0.04192,72.72062854,
0.04194,-4.251781473,0.04194,71.98976795,
0.04196,-2.790060296,0.04196,72.72062854,
0.04198,-0.597478531,0.04198,73.08605883,
0.042,1.595103234,0.042,72.72062854,
0.04202,-0.2320482368,0.04202,72.72062854,
0.04204,-0.9629088251,0.04204,72.72062854,
0.04206,-0.597478531,0.04206,72.72062854,
0.04208,-0.9629088251,0.04208,72.72062854,
0.0421,-0.9629088251,0.0421,72.35519825,
0.04212,-0.597478531,0.04212,72.35519825,
0.04214,-0.9629088251,0.04214,72.72062854,
0.04216,-2.424630002,0.04216,72.72062854,
0.04218,-0.597478531,0.04218,72.72062854,
0.0422,-0.597478531,0.0422,72.72062854,
0.04222,-0.9629088251,0.04222,72.35519825,
0.04224,0.4988123515,0.04224,72.35519825,
0.04226,1.595103234,0.04226,73.08605883,
0.04228,-0.2320482368,0.04228,72.72062854,
0.0423,1.22967294,0.0423,71.98976795,
0.04232,0.4988123515,0.04232,73.08605883,
0.04234,-0.597478531,0.04234,72.35519825,
0.04236,1.595103234,0.04236,72.35519825,
0.04238,0.1333820574,0.04238,72.72062854,
0.0424,-0.597478531,0.0424,72.72062854,
0.04242,0.8642426457,0.04242,72.72062854,
0.04244,-0.597478531,0.04244,73.08605883,
0.04246,0.4988123515,0.04246,72.72062854,
0.04248,-0.9629088251,0.04248,72.72062854,
0.0425,0.8642426457,0.0425,72.72062854,
0.04252,0.1333820574,0.04252,72.72062854,
0.04254,1.22967294,0.04254,72.72062854,
0.04256,0.8642426457,0.04256,72.72062854,
0.04258,0.8642426457,0.04258,72.72062854,
0.0426,0.4988123515,0.0426,72.72062854,
0.04262,0.4988123515,0.04262,73.08605883,
0.04264,-1.328339119,0.04264,72.35519825,
0.04266,-0.597478531,0.04266,72.72062854,
0.04268,-0.9629088251,0.04268,72.72062854,
0.0427,-1.328339119,0.0427,72.72062854,
0.04272,-0.597478531,0.04272,72.72062854,
0.04274,0.1333820574,0.04274,73.08605883,
0.04276,0.1333820574,0.04276,72.72062854,
0.04278,1.22967294,0.04278,72.35519825,
0.0428,-0.2320482368,0.0428,73.08605883,
0.04282,-2.424630002,0.04282,72.72062854,
0.04284,0.1333820574,0.04284,73.08605883,
0.04286,-1.693769413,0.04286,72.35519825,
0.04288,-4.617211767,0.04288,71.62433766,
0.0429,-0.9629088251,0.0429,73.45148913,
0.04292,-2.790060296,0.04292,73.08605883,
0.04294,-0.2320482368,0.04294,72.72062854,
0.04296,-2.424630002,0.04296,71.98976795,
0.04298,-3.15549059,0.04298,72.35519825,
0.043,-0.9629088251,0.043,72.35519825,
0.04302,0.1333820574,0.04302,71.62433766,
0.04304,-0.597478531,0.04304,73.08605883,
0.04306,-0.9629088251,0.04306,73.08605883,
0.04308,-0.597478531,0.04308,72.72062854,
0.0431,-1.328339119,0.0431,72.72062854,
0.04312,-2.424630002,0.04312,72.72062854,
0.04314,-1.328339119,0.04314,72.72062854,
0.04316,-0.597478531,0.04316,72.72062854,
0.04318,-1.328339119,0.04318,72.72062854,
0.0432,1.22967294,0.0432,72.35519825,
0.04322,0.1333820574,0.04322,73.08605883,
0.04324,0.1333820574,0.04324,72.72062854,
0.04326,1.22967294,0.04326,72.35519825,
0.04328,0.8642426457,0.04328,72.35519825,
0.0433,1.595103234,0.0433,72.72062854,
0.04332,0.1333820574,0.04332,72.35519825,
0.04334,-0.9629088251,0.04334,71.98976795,
0.04336,0.4988123515,0.04336,72.72062854,
0.04338,0.1333820574,0.04338,71.98976795,
0.0434,-0.9629088251,0.0434,72.35519825,
0.04342,0.1333820574,0.04342,71.98976795,
0.04344,-0.597478531,0.04344,72.35519825,
0.04346,0.4988123515,0.04346,71.98976795,
0.04348,0.8642426457,0.04348,72.72062854,
0.0435,1.22967294,0.0435,72.72062854,
0.04352,1.960533528,0.04352,72.35519825,
0.04354,0.1333820574,0.04354,72.35519825,
0.04356,0.8642426457,0.04356,72.35519825,
0.04358,0.8642426457,0.04358,71.98976795,
0.0436,1.960533528,0.0436,72.35519825,
0.04362,0.1333820574,0.04362,72.72062854,
0.04364,-0.597478531,0.04364,72.35519825,
0.04366,-0.597478531,0.04366,72.35519825,
0.04368,-1.693769413,0.04368,72.35519825,
0.0437,-0.9629088251,0.0437,71.98976795,
0.04372,0.1333820574,0.04372,72.35519825,
0.04374,0.1333820574,0.04374,72.72062854,
0.04376,0.8642426457,0.04376,71.98976795,
0.04378,0.1333820574,0.04378,72.72062854,
0.0438,0.8642426457,0.0438,72.35519825,
0.04382,1.595103234,0.04382,72.35519825,
0.04384,-1.328339119,0.04384,71.25890736,
0.04386,-0.597478531,0.04386,72.35519825,
0.04388,-0.2320482368,0.04388,71.98976795,
0.0439,-3.886351179,0.0439,71.98976795,
0.04392,-3.520920884,0.04392,71.25890736,
0.04394,-0.9629088251,0.04394,72.35519825,
0.04396,-0.2320482368,0.04396,72.72062854,
0.04398,-0.2320482368,0.04398,71.98976795,
0.044,-1.693769413,0.044,71.62433766,
0.04402,0.8642426457,0.04402,71.98976795,
0.04404,-0.9629088251,0.04404,72.72062854,
0.04406,-0.9629088251,0.04406,71.98976795,
0.04408,-0.597478531,0.04408,72.35519825,
0.0441,-0.9629088251,0.0441,72.35519825,
0.04412,-1.693769413,0.04412,72.35519825,
0.04414,0.4988123515,0.04414,71.98976795,
0.04416,-0.9629088251,0.04416,72.35519825,
0.04418,-0.597478531,0.04418,71.98976795,
0.0442,0.1333820574,0.0442,72.72062854,
0.04422,1.595103234,0.04422,72.35519825,
0.04424,0.1333820574,0.04424,71.62433766,
0.04426,0.8642426457,0.04426,71.98976795,
0.04428,0.8642426457,0.04428,72.72062854,
0.0443,0.4988123515,0.0443,72.35519825,
0.04432,0.1333820574,0.04432,72.72062854,
0.04434,-0.2320482368,0.04434,72.72062854,
0.04436,-0.597478531,0.04436,71.98976795,
0.04438,-0.597478531,0.04438,72.72062854,
0.0444,0.1333820574,0.0444,71.98976795,
0.04442,0.1333820574,0.04442,71.62433766,
0.04444,-0.597478531,0.04444,72.35519825,
0.04446,1.22967294,0.04446,72.72062854,
0.04448,1.22967294,0.04448,72.72062854,
0.0445,1.22967294,0.0445,72.72062854,
0.04452,0.1333820574,0.04452,72.72062854,
0.04454,0.8642426457,0.04454,72.72062854,
0.04456,2.325963822,0.04456,72.72062854,
0.04458,0.4988123515,0.04458,72.35519825,
0.0446,0.1333820574,0.0446,72.72062854,
0.04462,0.8642426457,0.04462,72.72062854,
0.04464,0.1333820574,0.04464,72.72062854,
0.04466,-1.328339119,0.04466,72.72062854,
0.04468,-0.597478531,0.04468,72.35519825,
0.0447,0.1333820574,0.0447,72.72062854,
0.04472,1.960533528,0.04472,72.35519825,
0.04474,1.595103234,0.04474,72.35519825,
0.04476,1.22967294,0.04476,72.72062854,
0.04478,1.595103234,0.04478,73.81691942,
0.0448,-2.059199708,0.0448,72.72062854,
0.04482,1.595103234,0.04482,72.35519825,
0.04484,-4.251781473,0.04484,72.72062854,
0.04486,-2.059199708,0.04486,71.98976795,
0.04488,-2.790060296,0.04488,71.62433766,
0.0449,-3.15549059,0.0449,72.72062854,
0.04492,-2.059199708,0.04492,71.98976795,
0.04494,-0.597478531,0.04494,73.08605883,
0.04496,-0.2320482368,0.04496,72.72062854,
0.04498,-0.2320482368,0.04498,72.72062854,
0.045,-0.9629088251,0.045,72.35519825,
0.04502,-1.693769413,0.04502,72.72062854,
0.04504,-2.059199708,0.04504,71.98976795,
0.04506,-1.328339119,0.04506,73.08605883,
0.04508,-2.790060296,0.04508,73.08605883,
0.0451,-1.328339119,0.0451,71.98976795,
0.04512,-0.9629088251,0.04512,72.35519825,
0.04514,-0.9629088251,0.04514,72.35519825,
0.04516,-0.9629088251,0.04516,72.35519825,
0.04518,0.4988123515,0.04518,72.72062854,
0.0452,0.4988123515,0.0452,71.98976795,
0.04522,0.4988123515,0.04522,72.72062854,
0.04524,0.8642426457,0.04524,72.72062854,
0.04526,0.1333820574,0.04526,72.35519825,
0.04528,0.1333820574,0.04528,71.98976795,
0.0453,-0.597478531,0.0453,72.72062854,
0.04532,-0.2320482368,0.04532,71.62433766,
0.04534,0.1333820574,0.04534,72.72062854,
0.04536,-0.597478531,0.04536,72.72062854,
0.04538,-0.597478531,0.04538,72.35519825,
0.0454,0.1333820574,0.0454,72.35519825,
0.04542,-0.2320482368,0.04542,72.72062854,
0.04544,0.8642426457,0.04544,71.98976795,
0.04546,1.960533528,0.04546,72.35519825,
0.04548,2.325963822,0.04548,72.72062854,
0.0455,-0.2320482368,0.0455,71.98976795,
0.04552,0.8642426457,0.04552,71.98976795,
0.04554,0.4988123515,0.04554,73.08605883,
0.04556,-0.2320482368,0.04556,72.35519825,
0.04558,0.1333820574,0.04558,72.35519825,
0.0456,-0.597478531,0.0456,73.08605883,
0.04562,-2.059199708,0.04562,72.35519825,
0.04564,-0.9629088251,0.04564,72.35519825,
0.04566,-0.2320482368,0.04566,72.72062854,
0.04568,0.1333820574,0.04568,72.72062854,
0.0457,0.4988123515,0.0457,72.35519825,
0.04572,0.8642426457,0.04572,72.72062854,
0.04574,0.4988123515,0.04574,71.62433766,
0.04576,-2.059199708,0.04576,71.62433766,
0.04578,-2.790060296,0.04578,73.81691942,
0.0458,-2.790060296,0.0458,72.35519825,
0.04582,-4.251781473,0.04582,71.98976795,
0.04584,-3.15549059,0.04584,72.72062854,
0.04586,-3.520920884,0.04586,71.98976795,
0.04588,-3.15549059,0.04588,71.98976795,
0.0459,-0.9629088251,0.0459,73.08605883,
0.04592,-1.328339119,0.04592,71.62433766,
0.04594,-1.328339119,0.04594,71.98976795,
0.04596,-0.9629088251,0.04596,73.45148913,
0.04598,-0.597478531,0.04598,71.98976795,
0.046,-1.693769413,0.046,71.98976795,
0.04602,-1.328339119,0.04602,72.72062854,
0.04604,-1.693769413,0.04604,72.35519825,
0.04606,-2.059199708,0.04606,72.35519825,
0.04608,-0.9629088251,0.04608,73.08605883,
0.0461,-0.9629088251,0.0461,72.72062854,
0.04612,-0.597478531,0.04612,72.35519825,
0.04614,-0.597478531,0.04614,73.08605883,
0.04616,-0.9629088251,0.04616,72.72062854,
0.04618,1.22967294,0.04618,72.35519825,
0.0462,0.4988123515,0.0462,72.72062854,
0.04622,0.8642426457,0.04622,72.35519825,
0.04624,0.8642426457,0.04624,71.98976795,
0.04626,0.4988123515,0.04626,73.08605883,
0.04628,-0.2320482368,0.04628,72.35519825,
0.0463,0.4988123515,0.0463,72.35519825,
0.04632,0.8642426457,0.04632,73.08605883,
0.04634,-0.2320482368,0.04634,72.35519825,
0.04636,-0.597478531,0.04636,72.35519825,
0.04638,0.1333820574,0.04638,72.72062854,
0.0464,-0.597478531,0.0464,72.35519825,
0.04642,1.22967294,0.04642,72.35519825,
0.04644,1.595103234,0.04644,72.72062854,
0.04646,1.22967294,0.04646,72.35519825,
0.04648,0.4988123515,0.04648,71.98976795,
0.0465,1.960533528,0.0465,73.08605883,
0.04652,0.1333820574,0.04652,72.35519825,
0.04654,-0.2320482368,0.04654,72.72062854,
0.04656,0.1333820574,0.04656,73.08605883,
0.04658,-0.9629088251,0.04658,72.72062854,
0.0466,-0.9629088251,0.0466,72.35519825,
0.04662,-0.9629088251,0.04662,73.08605883,
0.04664,-0.9629088251,0.04664,72.35519825,
0.04666,0.4988123515,0.04666,72.35519825,
0.04668,0.8642426457,0.04668,72.72062854,
0.0467,-0.9629088251,0.0467,71.98976795,
0.04672,-0.597478531,0.04672,72.35519825,
0.04674,0.1333820574,0.04674,72.72062854,
0.04676,-2.790060296,0.04676,72.72062854,
0.04678,-2.424630002,0.04678,71.62433766,
0.0468,-3.886351179,0.0468,71.98976795,
0.04682,-5.348072355,0.04682,73.81691942,
0.04684,-2.424630002,0.04684,71.98976795,
0.04686,-2.790060296,0.04686,72.72062854,
0.04688,-3.886351179,0.04688,72.35519825,
0.0469,-2.059199708,0.0469,72.35519825,
0.04692,-0.2320482368,0.04692,73.08605883,
0.04694,-1.328339119,0.04694,72.72062854,
0.04696,-0.9629088251,0.04696,72.35519825,
0.04698,-0.597478531,0.04698,73.45148913,
0.047,-2.424630002,0.047,72.35519825,
0.04702,-0.9629088251,0.04702,72.72062854,
0.04704,-2.059199708,0.04704,73.08605883,
0.04706,-2.059199708,0.04706,72.35519825,
0.04708,-0.597478531,0.04708,72.72062854,
0.0471,-0.9629088251,0.0471,73.08605883,
0.04712,-0.2320482368,0.04712,72.35519825,
0.04714,0.4988123515,0.04714,72.72062854,
0.04716,1.960533528,0.04716,73.08605883,
0.04718,0.1333820574,0.04718,72.72062854,
0.0472,1.22967294,0.0472,72.35519825,
0.04722,0.4988123515,0.04722,72.72062854,
0.04724,-0.597478531,0.04724,72.35519825,
0.04726,0.1333820574,0.04726,72.72062854,
0.04728,0.1333820574,0.04728,72.72062854,
0.0473,0.4988123515,0.0473,72.72062854,
0.04732,0.4988123515,0.04732,72.35519825,
0.04734,0.1333820574,0.04734,72.72062854,
0.04736,-0.597478531,0.04736,72.72062854,
0.04738,1.960533528,0.04738,72.35519825,
0.0474,2.325963822,0.0474,72.72062854,
0.04742,1.595103234,0.04742,72.72062854,
0.04744,1.595103234,0.04744,72.72062854,
0.04746,0.8642426457,0.04746,73.08605883,
0.04748,0.1333820574,0.04748,72.72062854,
0.0475,1.22967294,0.0475,72.35519825,
0.04752,0.1333820574,0.04752,72.72062854,
0.04754,-0.2320482368,0.04754,72.72062854,
0.04756,-0.597478531,0.04756,72.35519825,
0.04758,-0.2320482368,0.04758,73.08605883,
0.0476,-0.597478531,0.0476,72.35519825,
0.04762,1.22967294,0.04762,72.35519825,
0.04764,0.4988123515,0.04764,72.72062854,
0.04766,-0.597478531,0.04766,72.35519825,
0.04768,0.4988123515,0.04768,72.35519825,
0.0477,-0.597478531,0.0477,71.98976795,
0.04772,-1.328339119,0.04772,73.45148913,
0.04774,-3.886351179,0.04774,72.72062854,
0.04776,-1.328339119,0.04776,73.08605883,
0.04778,-3.520920884,0.04778,71.62433766,
0.0478,0.4988123515,0.0478,71.98976795,
0.04782,-2.424630002,0.04782,72.35519825,
0.04784,-3.15549059,0.04784,72.35519825,
0.04786,-2.424630002,0.04786,72.72062854,
0.04788,-1.328339119,0.04788,73.08605883,
0.0479,-0.9629088251,0.0479,72.72062854,
0.04792,-0.9629088251,0.04792,72.35519825,
0.04794,0.4988123515,0.04794,73.08605883,
0.04796,-1.328339119,0.04796,72.72062854,
0.04798,-0.2320482368,0.04798,72.35519825,
0.048,-1.328339119,0.048,72.72062854,
0.04802,-2.059199708,0.04802,72.35519825,
0.04804,0.1333820574,0.04804,72.35519825,
0.04806,-0.2320482368,0.04806,72.72062854,
0.04808,-0.2320482368,0.04808,72.72062854,
0.0481,0.4988123515,0.0481,72.72062854,
0.04812,0.1333820574,0.04812,72.72062854,
0.04814,-0.2320482368,0.04814,72.35519825,
0.04816,0.4988123515,0.04816,72.72062854,
0.04818,0.1333820574,0.04818,72.35519825,
0.0482,-0.597478531,0.0482,72.72062854,
0.04822,0.4988123515,0.04822,72.72062854,
0.04824,0.1333820574,0.04824,72.72062854,
0.04826,-0.597478531,0.04826,72.35519825,
0.04828,0.4988123515,0.04828,72.35519825,
0.0483,0.1333820574,0.0483,72.72062854,
0.04832,0.1333820574,0.04832,72.35519825,
0.04834,-0.2320482368,0.04834,72.72062854,
0.04836,0.8642426457,0.04836,73.08605883,
0.04838,0.8642426457,0.04838,72.72062854,
0.0484,1.960533528,0.0484,72.35519825,
0.04842,0.8642426457,0.04842,72.72062854,
0.04844,0.1333820574,0.04844,73.08605883,
0.04846,1.960533528,0.04846,71.98976795,
0.04848,2.691394117,0.04848,73.08605883,
0.0485,-1.693769413,0.0485,72.72062854,
0.04852,0.1333820574,0.04852,72.35519825,
0.04854,0.4988123515,0.04854,73.08605883,
0.04856,-0.9629088251,0.04856,72.72062854,
0.04858,-0.597478531,0.04858,72.35519825,
0.0486,-0.2320482368,0.0486,72.72062854,
0.04862,0.4988123515,0.04862,72.35519825,
0.04864,-0.2320482368,0.04864,72.72062854,
0.04866,0.8642426457,0.04866,72.72062854,
0.04868,-0.597478531,0.04868,73.08605883,
0.0487,1.22967294,0.0487,72.35519825,
0.04872,-0.9629088251,0.04872,73.81691942,
0.04874,-2.059199708,0.04874,71.98976795,
0.04876,0.4988123515,0.04876,71.98976795,
0.04878,-3.15549059,0.04878,72.72062854,
0.0488,-2.790060296,0.0488,72.72062854,
0.04882,-1.328339119,0.04882,73.45148913,
0.04884,-1.328339119,0.04884,73.08605883,
0.04886,-2.790060296,0.04886,72.35519825,
0.04888,-0.2320482368,0.04888,72.35519825,
0.0489,-1.328339119,0.0489,73.08605883,
0.04892,-0.9629088251,0.04892,71.98976795,
0.04894,0.1333820574,0.04894,71.98976795,
0.04896,-1.693769413,0.04896,73.08605883,
0.04898,-1.328339119,0.04898,71.98976795,
0.049,-1.328339119,0.049,72.72062854,
0.04902,-1.328339119,0.04902,72.35519825,
0.04904,0.4988123515,0.04904,72.35519825,
0.04906,-0.2320482368,0.04906,72.35519825,
0.04908,-1.328339119,0.04908,71.98976795,
0.0491,0.8642426457,0.0491,72.72062854,
0.04912,0.8642426457,0.04912,72.35519825,
0.04914,1.595103234,0.04914,71.98976795,
0.04916,1.595103234,0.04916,72.35519825,
0.04918,0.4988123515,0.04918,72.35519825,
0.0492,-0.2320482368,0.0492,71.98976795,
0.04922,0.4988123515,0.04922,72.35519825,
0.04924,0.1333820574,0.04924,72.72062854,
0.04926,0.4988123515,0.04926,72.35519825,
0.04928,0.4988123515,0.04928,72.35519825,
0.0493,-0.597478531,0.0493,72.35519825,
0.04932,0.8642426457,0.04932,71.98976795,
0.04934,0.8642426457,0.04934,72.72062854,
0.04936,1.22967294,0.04936,71.98976795,
0.04938,1.960533528,0.04938,71.98976795,
0.0494,2.325963822,0.0494,72.72062854,
0.04942,0.8642426457,0.04942,72.35519825,
0.04944,-0.2320482368,0.04944,71.98976795,
0.04946,0.4988123515,0.04946,72.72062854,
0.04948,1.22967294,0.04948,72.35519825,
0.0495,-0.2320482368,0.0495,71.98976795,
0.04952,-0.2320482368,0.04952,72.72062854,
0.04954,-1.328339119,0.04954,72.35519825,
0.04956,-0.597478531,0.04956,72.35519825,
0.04958,-0.2320482368,0.04958,72.35519825,
0.0496,0.4988123515,0.0496,71.98976795,
0.04962,0.1333820574,0.04962,71.62433766,
0.04964,-0.597478531,0.04964,72.35519825,
0.04966,-0.2320482368,0.04966,72.72062854,
0.04968,0.4988123515,0.04968,71.98976795,
0.0497,0.4988123515,0.0497,71.25890736,
0.04972,-2.424630002,0.04972,71.98976795,
0.04974,-2.424630002,0.04974,72.72062854,
0.04976,-3.886351179,0.04976,73.81691942,
0.04978,-3.15549059,0.04978,72.35519825,
0.0498,-2.424630002,0.0498,73.08605883,
0.04982,0.8642426457,0.04982,72.35519825,
0.04984,-1.328339119,0.04984,72.72062854,
0.04986,0.1333820574,0.04986,72.72062854,
0.04988,-0.597478531,0.04988,72.35519825,
0.0499,-0.2320482368,0.0499,72.72062854,
0.04992,0.1333820574,0.04992,72.35519825,
0.04994,-1.328339119,0.04994,72.72062854,
0.04996,-2.424630002,0.04996,72.72062854,
0.04998,-1.328339119,0.04998,72.35519825,
0.05,-1.693769413,0.05,72.35519825,
0.05002,-0.9629088251,0.05002,72.72062854,
0.05004,0.4988123515,0.05004,72.72062854,
0.05006,-0.9629088251,0.05006,71.98976795,
0.05008,1.595103234,0.05008,72.35519825,
0.0501,1.22967294,0.0501,71.98976795,
0.05012,0.8642426457,0.05012,71.98976795,
0.05014,1.595103234,0.05014,71.98976795,
0.05016,0.8642426457,0.05016,72.35519825,
0.05018,-0.9629088251,0.05018,72.35519825,
0.0502,0.1333820574,0.0502,72.72062854,
0.05022,0.4988123515,0.05022,72.35519825,
0.05024,0.1333820574,0.05024,72.35519825,
0.05026,0.4988123515,0.05026,72.35519825,
0.05028,-0.2320482368,0.05028,72.35519825,
0.0503,0.8642426457,0.0503,71.98976795,
0.05032,-0.2320482368,0.05032,72.72062854,
0.05034,1.595103234,0.05034,72.72062854,
0.05036,1.595103234,0.05036,71.98976795,
0.05038,1.595103234,0.05038,72.72062854,
0.0504,1.22967294,0.0504,72.72062854,
0.05042,1.22967294,0.05042,72.35519825,
0.05044,1.595103234,0.05044,72.35519825,
0.05046,-0.597478531,0.05046,72.35519825,
0.05048,-0.597478531,0.05048,72.35519825,
0.0505,-0.9629088251,0.0505,72.35519825,
0.05052,-0.9629088251,0.05052,72.35519825,
0.05054,-0.9629088251,0.05054,71.98976795,
0.05056,0.1333820574,0.05056,72.35519825,
0.05058,0.4988123515,0.05058,72.35519825,
0.0506,1.595103234,0.0506,71.98976795,
0.05062,1.22967294,0.05062,73.45148913,
0.05064,-1.693769413,0.05064,73.45148913,
0.05066,1.960533528,0.05066,71.25890736,
0.05068,0.4988123515,0.05068,73.08605883,
0.0507,-3.520920884,0.0507,73.81691942,
0.05072,-0.9629088251,0.05072,70.89347707,
0.05074,-4.251781473,0.05074,73.08605883,
0.05076,-3.520920884,0.05076,71.25890736,
0.05078,-0.597478531,0.05078,71.98976795,
0.0508,0.4988123515,0.0508,71.98976795,
0.05082,0.4988123515,0.05082,71.98976795,
0.05084,0.8642426457,0.05084,71.62433766,
0.05086,-0.597478531,0.05086,73.08605883,
0.05088,-0.2320482368,0.05088,71.98976795,
0.0509,-0.597478531,0.0509,72.35519825,
0.05092,-1.328339119,0.05092,73.08605883,
0.05094,-2.424630002,0.05094,72.72062854,
0.05096,-0.9629088251,0.05096,72.35519825,
0.05098,-1.328339119,0.05098,72.72062854,
0.051,-0.597478531,0.051,72.35519825,
0.05102,-0.597478531,0.05102,72.35519825,
0.05104,0.8642426457,0.05104,72.72062854,
0.05106,0.1333820574,0.05106,72.35519825,
0.05108,0.8642426457,0.05108,72.35519825,
0.0511,1.22967294,0.0511,73.45148913,
0.05112,-0.2320482368,0.05112,71.98976795,
0.05114,-0.597478531,0.05114,72.35519825,
0.05116,0.8642426457,0.05116,73.08605883,
0.05118,-0.9629088251,0.05118,72.72062854,
0.0512,0.1333820574,0.0512,71.98976795,
0.05122,-0.597478531,0.05122,72.35519825,
0.05124,-0.2320482368,0.05124,72.72062854,
0.05126,-0.597478531,0.05126,71.98976795,
0.05128,1.960533528,0.05128,72.72062854,
0.0513,0.4988123515,0.0513,72.35519825,
0.05132,1.960533528,0.05132,71.98976795,
0.05134,1.960533528,0.05134,73.08605883,
0.05136,0.8642426457,0.05136,72.35519825,
0.05138,1.22967294,0.05138,71.98976795,
0.0514,1.22967294,0.0514,72.72062854,
0.05142,-0.2320482368,0.05142,72.35519825,
0.05144,0.1333820574,0.05144,71.98976795,
0.05146,-0.597478531,0.05146,73.08605883,
0.05148,-1.693769413,0.05148,72.35519825,
0.0515,-1.328339119,0.0515,72.35519825,
0.05152,-0.2320482368,0.05152,72.35519825,
0.05154,-0.9629088251,0.05154,72.35519825,
0.05156,-0.2320482368,0.05156,72.72062854,
0.05158,0.4988123515,0.05158,71.98976795,
0.0516,1.22967294,0.0516,72.72062854,
0.05162,-0.597478531,0.05162,72.72062854,
0.05164,-1.328339119,0.05164,73.45148913,
0.05166,0.4988123515,0.05166,72.72062854,
0.05168,-3.520920884,0.05168,71.25890736,
0.0517,0.1333820574,0.0517,71.98976795,
0.05172,-1.693769413,0.05172,71.98976795,
0.05174,-3.520920884,0.05174,71.25890736,
0.05176,-2.059199708,0.05176,72.35519825,
0.05178,-2.059199708,0.05178,72.35519825,
0.0518,-0.9629088251,0.0518,72.72062854,
0.05182,-0.9629088251,0.05182,72.35519825,
0.05184,-2.424630002,0.05184,72.72062854,
0.05186,-1.693769413,0.05186,71.98976795,
0.05188,-1.328339119,0.05188,72.72062854,
0.0519,-2.059199708,0.0519,72.35519825,
0.05192,-0.597478531,0.05192,72.72062854,
0.05194,-0.9629088251,0.05194,73.08605883,
0.05196,-1.328339119,0.05196,72.35519825,
0.05198,-0.9629088251,0.05198,72.72062854,
0.052,0.1333820574,0.052,72.35519825,
0.05202,-0.597478531,0.05202,72.72062854,
0.05204,0.4988123515,0.05204,71.62433766,
0.05206,0.4988123515,0.05206,72.72062854,
0.05208,0.1333820574,0.05208,71.98976795,
0.0521,1.22967294,0.0521,72.35519825,
0.05212,0.8642426457,0.05212,73.08605883,
0.05214,-0.9629088251,0.05214,72.72062854,
0.05216,0.8642426457,0.05216,72.35519825,
0.05218,0.8642426457,0.05218,73.08605883,
0.0522,-0.9629088251,0.0522,72.35519825,
0.05222,-0.9629088251,0.05222,71.98976795,
0.05224,0.4988123515,0.05224,73.08605883,
0.05226,0.1333820574,0.05226,72.35519825,
0.05228,0.4988123515,0.05228,71.98976795,
0.0523,1.595103234,0.0523,73.08605883,
0.05232,1.960533528,0.05232,71.98976795,
0.05234,0.8642426457,0.05234,72.35519825,
0.05236,0.1333820574,0.05236,73.08605883,
0.05238,0.4988123515,0.05238,72.35519825,
0.0524,0.1333820574,0.0524,72.72062854,
0.05242,0.1333820574,0.05242,72.72062854,
0.05244,-2.059199708,0.05244,72.72062854,
0.05246,-1.328339119,0.05246,72.35519825,
0.05248,-0.597478531,0.05248,73.08605883,
0.0525,-1.328339119,0.0525,71.98976795,
0.05252,-0.597478531,0.05252,72.35519825,
0.05254,-0.597478531,0.05254,73.08605883,
0.05256,0.1333820574,0.05256,72.35519825,
0.05258,-0.597478531,0.05258,71.98976795,
0.0526,-1.328339119,0.0526,72.35519825,
0.05262,-0.597478531,0.05262,72.72062854,
0.05264,-3.15549059,0.05264,71.25890736,
0.05266,-3.886351179,0.05266,73.45148913,
0.05268,0.8642426457,0.05268,70.89347707,
0.0527,-3.15549059,0.0527,72.35519825,
0.05272,-2.790060296,0.05272,72.35519825,
0.05274,-0.2320482368,0.05274,71.98976795,
0.05276,-1.328339119,0.05276,72.35519825,
0.05278,-0.2320482368,0.05278,72.35519825,
0.0528,-0.9629088251,0.0528,72.35519825,
0.05282,-0.597478531,0.05282,73.08605883,
0.05284,-0.597478531,0.05284,73.08605883,
0.05286,-0.9629088251,0.05286,72.72062854,
0.05288,-1.693769413,0.05288,72.72062854,
0.0529,-0.9629088251,0.0529,73.08605883,
0.05292,-1.693769413,0.05292,72.35519825,
0.05294,-1.328339119,0.05294,72.72062854,
0.05296,-0.597478531,0.05296,72.72062854,
0.05298,-0.9629088251,0.05298,72.35519825,
0.053,0.4988123515,0.053,72.72062854,
0.05302,1.595103234,0.05302,72.72062854,
0.05304,1.595103234,0.05304,72.35519825,
0.05306,1.22967294,0.05306,72.72062854,
0.05308,1.22967294,0.05308,72.72062854,
0.0531,-0.2320482368,0.0531,73.08605883,
0.05312,-0.2320482368,0.05312,71.98976795,
0.05314,0.4988123515,0.05314,72.35519825,
0.05316,0.1333820574,0.05316,72.72062854,
0.05318,0.1333820574,0.05318,72.35519825,
0.0532,0.1333820574,0.0532,72.72062854,
0.05322,-0.9629088251,0.05322,72.35519825,
0.05324,0.4988123515,0.05324,72.72062854,
0.05326,1.595103234,0.05326,73.08605883,
0.05328,1.960533528,0.05328,73.45148913,
0.0533,1.595103234,0.0533,72.35519825,
0.05332,1.22967294,0.05332,72.72062854,
0.05334,0.8642426457,0.05334,72.72062854,
0.05336,1.595103234,0.05336,72.35519825,
0.05338,1.595103234,0.05338,72.72062854,
0.0534,-0.9629088251,0.0534,72.35519825,
0.05342,0.1333820574,0.05342,72.35519825,
0.05344,-1.328339119,0.05344,73.08605883,
0.05346,-0.9629088251,0.05346,72.72062854,
0.05348,1.22967294,0.05348,72.72062854,
0.0535,-0.9629088251,0.0535,72.72062854,
0.05352,1.960533528,0.05352,71.98976795,
0.05354,-0.597478531,0.05354,72.35519825,
0.05356,1.595103234,0.05356,72.72062854,
0.05358,-0.9629088251,0.05358,72.35519825,
0.0536,-0.2320482368,0.0536,71.98976795,
0.05362,1.22967294,0.05362,72.35519825,
0.05364,-0.597478531,0.05364,72.72062854,
0.05366,-1.693769413,0.05366,71.62433766,
0.05368,-1.693769413,0.05368,72.72062854,
0.0537,-2.424630002,0.0537,72.72062854,
0.05372,-2.059199708,0.05372,73.08605883,
0.05374,-1.328339119,0.05374,73.45148913,
0.05376,-0.2320482368,0.05376,73.08605883,
0.05378,0.4988123515,0.05378,72.35519825,
0.0538,0.1333820574,0.0538,73.08605883,
0.05382,-1.693769413,0.05382,73.08605883,
0.05384,-0.597478531,0.05384,72.35519825,
0.05386,-1.328339119,0.05386,73.08605883,
0.05388,-2.790060296,0.05388,72.35519825,
0.0539,-1.328339119,0.0539,71.98976795,
0.05392,-1.328339119,0.05392,73.08605883,
0.05394,-1.328339119,0.05394,72.72062854,
0.05396,0.4988123515,0.05396,72.72062854,
0.05398,0.1333820574,0.05398,72.72062854,
0.054,0.1333820574,0.054,72.35519825,
0.05402,1.595103234,0.05402,72.35519825,
0.05404,0.1333820574,0.05404,72.72062854,
0.05406,0.1333820574,0.05406,72.72062854,
0.05408,0.1333820574,0.05408,72.35519825,
0.0541,-0.2320482368,0.0541,73.08605883,
0.05412,-0.2320482368,0.05412,72.35519825,
0.05414,0.4988123515,0.05414,72.35519825,
0.05416,-0.2320482368,0.05416,72.72062854,
0.05418,-0.2320482368,0.05418,72.35519825,
0.0542,-0.2320482368,0.0542,72.72062854,
0.05422,0.4988123515,0.05422,72.35519825,
0.05424,0.4988123515,0.05424,72.72062854,
0.05426,1.22967294,0.05426,72.35519825,
0.05428,2.325963822,0.05428,73.45148913,
0.0543,1.22967294,0.0543,72.72062854,
0.05432,1.22967294,0.05432,72.35519825,
0.05434,0.1333820574,0.05434,73.08605883,
0.05436,-0.2320482368,0.05436,72.35519825,
0.05438,0.1333820574,0.05438,72.35519825,
0.0544,-0.9629088251,0.0544,73.08605883,
0.05442,-1.328339119,0.05442,72.35519825,
0.05444,-0.597478531,0.05444,72.35519825,
0.05446,0.1333820574,0.05446,72.72062854,
0.05448,-0.9629088251,0.05448,72.35519825,
0.0545,0.8642426457,0.0545,73.08605883,
0.05452,1.22967294,0.05452,72.35519825,
0.05454,1.595103234,0.05454,73.08605883,
0.05456,0.8642426457,0.05456,71.62433766,
0.05458,-0.597478531,0.05458,72.35519825,
0.0546,-2.424630002,0.0546,72.72062854,
0.05462,-1.693769413,0.05462,72.35519825,
0.05464,-2.059199708,0.05464,72.35519825,
0.05466,-2.059199708,0.05466,72.72062854,
0.05468,-2.059199708,0.05468,71.98976795,
0.0547,-2.059199708,0.0547,72.35519825,
0.05472,0.4988123515,0.05472,73.08605883,
0.05474,-0.597478531,0.05474,72.35519825,
0.05476,1.22967294,0.05476,72.72062854,
0.05478,-0.9629088251,0.05478,72.72062854,
0.0548,-0.9629088251,0.0548,72.72062854,
0.05482,-0.597478531,0.05482,72.35519825,
0.05484,-1.328339119,0.05484,72.35519825,
0.05486,-0.597478531,0.05486,72.35519825,
0.05488,-1.693769413,0.05488,72.35519825,
0.0549,-0.9629088251,0.0549,72.35519825,
0.05492,-0.9629088251,0.05492,73.08605883,
0.05494,0.4988123515,0.05494,72.72062854,
0.05496,2.325963822,0.05496,73.45148913,
0.05498,0.8642426457,0.05498,72.35519825,
0.055,0.4988123515,0.055,72.72062854,
0.05502,0.4988123515,0.05502,73.08605883,
0.05504,0.1333820574,0.05504,72.72062854,
0.05506,0.8642426457,0.05506,73.08605883,
0.05508,-0.597478531,0.05508,72.35519825,
0.0551,0.1333820574,0.0551,71.98976795,
0.05512,-0.2320482368,0.05512,73.08605883,
0.05514,-0.597478531,0.05514,72.72062854,
0.05516,0.8642426457,0.05516,72.35519825,
0.05518,-0.597478531,0.05518,73.08605883,
0.0552,0.1333820574,0.0552,72.72062854,
0.05522,0.4988123515,0.05522,72.72062854,
0.05524,0.4988123515,0.05524,73.08605883,
0.05526,0.8642426457,0.05526,72.72062854,
0.05528,2.325963822,0.05528,72.35519825,
0.0553,0.4988123515,0.0553,73.08605883,
0.05532,-0.597478531,0.05532,72.72062854,
0.05534,-0.597478531,0.05534,72.35519825,
0.05536,-0.597478531,0.05536,72.35519825,
0.05538,-1.328339119,0.05538,72.72062854,
0.0554,-0.9629088251,0.0554,72.35519825,
0.05542,-0.2320482368,0.05542,73.08605883,
0.05544,-1.328339119,0.05544,72.35519825,
0.05546,0.8642426457,0.05546,72.35519825,
0.05548,0.8642426457,0.05548,72.35519825,
0.0555,0.8642426457,0.0555,71.62433766,
0.05552,-0.597478531,0.05552,72.72062854,
0.05554,-0.597478531,0.05554,73.81691942,
0.05556,-2.424630002,0.05556,71.98976795,
0.05558,-3.886351179,0.05558,71.25890736,
0.0556,-0.9629088251,0.0556,73.08605883,
0.05562,-3.886351179,0.05562,71.62433766,
0.05564,-2.059199708,0.05564,73.45148913,
0.05566,-0.9629088251,0.05566,73.45148913,
0.05568,-2.790060296,0.05568,72.72062854,
0.0557,-2.059199708,0.0557,72.35519825,
0.05572,-1.328339119,0.05572,73.45148913,
0.05574,-0.2320482368,0.05574,72.35519825,
0.05576,-1.693769413,0.05576,71.98976795,
0.05578,-0.597478531,0.05578,72.72062854,
0.0558,-2.059199708,0.0558,72.72062854,
0.05582,-2.424630002,0.05582,72.35519825,
0.05584,-1.328339119,0.05584,72.72062854,
0.05586,-2.059199708,0.05586,72.35519825,
0.05588,-0.2320482368,0.05588,72.35519825,
0.0559,0.1333820574,0.0559,72.72062854,
0.05592,0.8642426457,0.05592,72.72062854,
0.05594,0.1333820574,0.05594,71.98976795,
0.05596,0.4988123515,0.05596,73.08605883,
0.05598,0.8642426457,0.05598,72.35519825,
0.056,0.1333820574,0.056,72.72062854,
0.05602,0.4988123515,0.05602,72.72062854,
0.05604,-0.597478531,0.05604,72.35519825,
0.05606,0.4988123515,0.05606,72.35519825,
0.05608,-0.2320482368,0.05608,73.08605883,
0.0561,-0.2320482368,0.0561,72.35519825,
0.05612,0.4988123515,0.05612,72.35519825,
0.05614,0.1333820574,0.05614,72.72062854,
0.05616,0.1333820574,0.05616,73.08605883,
0.05618,0.8642426457,0.05618,72.35519825,
0.0562,0.8642426457,0.0562,72.72062854,
0.05622,0.1333820574,0.05622,72.35519825,
0.05624,2.325963822,0.05624,72.72062854,
0.05626,0.4988123515,0.05626,72.72062854,
0.05628,0.4988123515,0.05628,72.35519825,
0.0563,0.1333820574,0.0563,72.35519825,
0.05632,0.1333820574,0.05632,72.72062854,
0.05634,0.1333820574,0.05634,72.35519825,
0.05636,-0.2320482368,0.05636,71.98976795,
0.05638,-0.9629088251,0.05638,72.72062854,
0.0564,-1.328339119,0.0564,72.72062854,
0.05642,-0.2320482368,0.05642,71.98976795,
0.05644,0.8642426457,0.05644,73.08605883,
0.05646,-0.9629088251,0.05646,72.72062854,
0.05648,0.4988123515,0.05648,71.62433766,
0.0565,0.1333820574,0.0565,74.18234972,
0.05652,-1.328339119,0.05652,71.62433766,
0.05654,-2.059199708,0.05654,73.08605883,
0.05656,-3.15549059,0.05656,71.25890736,
0.05658,-4.617211767,0.05658,73.81691942,
0.0566,0.1333820574,0.0566,73.08605883,
0.05662,-3.886351179,0.05662,72.72062854,
0.05664,-2.059199708,0.05664,72.72062854,
0.05666,-0.597478531,0.05666,72.35519825,
0.05668,-1.328339119,0.05668,72.72062854,
0.0567,0.1333820574,0.0567,72.72062854,
0.05672,0.8642426457,0.05672,71.98976795,
0.05674,-0.9629088251,0.05674,72.35519825,
0.05676,-0.9629088251,0.05676,72.72062854,
0.05678,-0.9629088251,0.05678,72.35519825,
0.0568,-1.693769413,0.0568,73.08605883,
0.05682,-2.059199708,0.05682,72.72062854,
0.05684,-0.597478531,0.05684,72.72062854,
0.05686,-0.9629088251,0.05686,72.72062854,
0.05688,-0.2320482368,0.05688,72.72062854,
0.0569,-0.2320482368,0.0569,72.72062854,
0.05692,0.4988123515,0.05692,72.72062854,
0.05694,-0.2320482368,0.05694,72.72062854,
0.05696,1.22967294,0.05696,72.35519825,
0.05698,0.4988123515,0.05698,72.72062854,
0.057,-0.2320482368,0.057,72.72062854,
0.05702,0.4988123515,0.05702,72.35519825,
0.05704,0.4988123515,0.05704,72.72062854,
0.05706,0.4988123515,0.05706,72.72062854,
0.05708,0.1333820574,0.05708,72.72062854,
0.0571,-0.597478531,0.0571,73.45148913,
0.05712,-0.2320482368,0.05712,72.72062854,
0.05714,0.1333820574,0.05714,73.08605883,
0.05716,1.22967294,0.05716,73.08605883,
0.05718,0.8642426457,0.05718,72.72062854,
0.0572,0.8642426457,0.0572,72.35519825,
0.05722,3.056824411,0.05722,72.72062854,
0.05724,-0.2320482368,0.05724,72.72062854,
0.05726,0.1333820574,0.05726,72.35519825,
0.05728,-0.2320482368,0.05728,73.08605883,
0.0573,0.1333820574,0.0573,72.35519825,
0.05732,-0.9629088251,0.05732,72.72062854,
0.05734,-0.597478531,0.05734,72.72062854,
0.05736,-1.328339119,0.05736,72.35519825,
0.05738,0.1333820574,0.05738,72.35519825,
0.0574,0.4988123515,0.0574,73.08605883,
0.05742,-0.597478531,0.05742,72.72062854,
0.05744,1.960533528,0.05744,72.35519825,
0.05746,-1.328339119,0.05746,73.08605883,
0.05748,-0.2320482368,0.05748,72.35519825,
0.0575,-0.2320482368,0.0575,72.72062854,
0.05752,0.8642426457,0.05752,72.72062854,
0.05754,-3.15549059,0.05754,72.72062854,
0.05756,-0.2320482368,0.05756,72.72062854,
0.05758,-2.059199708,0.05758,71.98976795,
0.0576,-2.424630002,0.0576,71.25890736,
0.05762,-2.424630002,0.05762,71.98976795,
0.05764,0.4988123515,0.05764,72.72062854,
0.05766,-0.597478531,0.05766,71.62433766,
0.05768,-0.9629088251,0.05768,71.98976795,
0.0577,-0.2320482368,0.0577,72.35519825,
0.05772,-0.9629088251,0.05772,71.98976795,
0.05774,-0.9629088251,0.05774,72.35519825,
0.05776,-0.9629088251,0.05776,73.08605883,
0.05778,-1.328339119,0.05778,71.62433766,
0.0578,-1.328339119,0.0578,72.72062854,
0.05782,-1.693769413,0.05782,72.35519825,
0.05784,-0.9629088251,0.05784,72.35519825,
0.05786,0.4988123515,0.05786,71.98976795,
0.05788,0.4988123515,0.05788,72.35519825,
0.0579,0.8642426457,0.0579,71.98976795,
0.05792,1.595103234,0.05792,72.35519825,
