"A0_accX_x","A0_accX_y","A1_rmsX_x","A1_rmsX_y"
0,0.5117193495,0,72.72062854,
2e-05,0.8771496437,2e-05,73.45148913,
4e-05,0.1462890554,4e-05,73.08605883,
6e-05,1.608010232,6e-05,72.72062854,
8e-05,0.8771496437,8e-05,73.08605883,
0.0001,1.973440526,0.0001,72.35519825,
0.00012,1.608010232,0.00012,72.72062854,
0.00014,1.973440526,0.00014,72.72062854,
0.00016,1.242579938,0.00016,72.72062854,
0.00018,1.242579938,0.00018,72.72062854,
0.0002,0.8771496437,0.0002,73.08605883,
0.00022,0.5117193495,0.00022,72.72062854,
0.00024,0.8771496437,0.00024,73.08605883,
0.00026,-0.2191412388,0.00026,72.72062854,
0.00028,-0.2191412388,0.00028,73.08605883,
0.0003,-0.584571533,0.0003,72.72062854,
0.00032,0.5117193495,0.00032,72.72062854,
0.00034,1.242579938,0.00034,73.08605883,
0.00036,1.242579938,0.00036,73.08605883,
0.00038,0.1462890554,0.00038,73.08605883,
0.0004,1.973440526,0.0004,73.08605883,
0.00042,-0.2191412388,0.00042,72.35519825,
0.00044,0.8771496437,0.00044,73.08605883,
0.00046,-2.411723004,0.00046,72.35519825,
0.00048,-1.315432121,0.00048,73.08605883,
0.0005,-1.315432121,0.0005,73.45148913,
0.00052,-2.04629271,0.00052,73.45148913,
0.00054,-1.680862415,0.00054,73.08605883,
0.00056,-0.2191412388,0.00056,72.35519825,
0.00058,-0.2191412388,0.00058,73.08605883,
0.0006,0.8771496437,0.0006,72.72062854,
0.00062,0.1462890554,0.00062,72.72062854,
0.00064,-0.584571533,0.00064,72.72062854,
0.00066,-0.2191412388,0.00066,72.35519825,
0.00068,-0.9500018272,0.00068,72.72062854,
0.0007,-1.315432121,0.0007,72.72062854,
0.00072,-0.2191412388,0.00072,72.35519825,
0.00074,-0.9500018272,0.00074,72.35519825,
0.00076,-0.9500018272,0.00076,72.72062854,
0.00078,0.5117193495,0.00078,72.35519825,
0.0008,1.973440526,0.0008,72.72062854,
0.00082,1.242579938,0.00082,72.35519825,
0.00084,1.608010232,0.00084,72.72062854,
0.00086,0.8771496437,0.00086,72.72062854,
0.00088,1.242579938,0.00088,72.72062854,
0.0009,1.973440526,0.0009,72.72062854,
0.00092,0.5117193495,0.00092,73.08605883,
0.00094,0.8771496437,0.00094,72.35519825,
0.00096,0.8771496437,0.00096,72.72062854,
0.00098,0.5117193495,0.00098,73.08605883,
0.001,0.5117193495,0.001,72.35519825,
0.00102,0.5117193495,0.00102,73.08605883,
0.00104,1.608010232,0.00104,72.72062854,
0.00106,0.8771496437,0.00106,72.72062854,
0.00108,1.608010232,0.00108,72.35519825,
0.0011,1.242579938,0.0011,72.72062854,
0.00112,1.608010232,0.00112,73.08605883,
0.00114,1.608010232,0.00114,72.35519825,
0.00116,0.5117193495,0.00116,73.08605883,
0.00118,-0.2191412388,0.00118,72.72062854,
0.0012,0.8771496437,0.0012,72.35519825,
0.00122,-0.2191412388,0.00122,73.08605883,
0.00124,-1.315432121,0.00124,72.72062854,
0.00126,-0.584571533,0.00126,72.72062854,
0.00128,1.608010232,0.00128,72.72062854,
0.0013,0.1462890554,0.0013,72.72062854,
0.00132,1.608010232,0.00132,72.72062854,
0.00134,2.704301115,0.00134,72.72062854,
0.00136,1.973440526,0.00136,72.35519825,
0.00138,0.5117193495,0.00138,72.72062854,
0.0014,3.069731409,0.0014,71.98976795,
0.00142,0.5117193495,0.00142,73.45148913,
0.00144,-2.04629271,0.00144,72.72062854,
0.00146,-3.508013886,0.00146,72.72062854,
0.00148,-1.680862415,0.00148,71.62433766,
0.0015,-2.777153298,0.0015,72.35519825,
0.00152,-0.584571533,0.00152,72.72062854,
0.00154,-0.584571533,0.00154,73.08605883,
0.00156,0.1462890554,0.00156,72.72062854,
0.00158,0.5117193495,0.00158,72.35519825,
0.0016,-0.2191412388,0.0016,73.08605883,
0.00162,-2.04629271,0.00162,72.72062854,
0.00164,-0.584571533,0.00164,71.98976795,
0.00166,-0.2191412388,0.00166,72.72062854,
0.00168,0.1462890554,0.00168,72.72062854,
0.0017,0.1462890554,0.0017,72.35519825,
0.00172,0.5117193495,0.00172,72.35519825,
0.00174,-0.584571533,0.00174,72.72062854,
0.00176,-0.2191412388,0.00176,72.35519825,
0.00178,0.8771496437,0.00178,72.72062854,
0.0018,0.8771496437,0.0018,72.72062854,
0.00182,0.5117193495,0.00182,71.98976795,
0.00184,0.8771496437,0.00184,72.72062854,
0.00186,0.5117193495,0.00186,72.35519825,
0.00188,0.1462890554,0.00188,72.35519825,
0.0019,1.608010232,0.0019,72.35519825,
0.00192,0.1462890554,0.00192,71.98976795,
0.00194,0.8771496437,0.00194,72.35519825,
0.00196,0.5117193495,0.00196,72.35519825,
0.00198,-0.2191412388,0.00198,73.08605883,
0.002,0.8771496437,0.002,72.72062854,
0.00202,1.973440526,0.00202,72.72062854,
0.00204,2.33887082,0.00204,73.08605883,
0.00206,2.33887082,0.00206,72.35519825,
0.00208,3.069731409,0.00208,72.35519825,
0.0021,1.973440526,0.0021,72.72062854,
0.00212,1.608010232,0.00212,72.72062854,
0.00214,1.608010232,0.00214,72.35519825,
0.00216,2.33887082,0.00216,72.72062854,
0.00218,0.5117193495,0.00218,72.72062854,
0.0022,-0.2191412388,0.0022,72.72062854,
0.00222,-0.2191412388,0.00222,72.35519825,
0.00224,-0.584571533,0.00224,72.72062854,
0.00226,-0.584571533,0.00226,73.45148913,
0.00228,1.242579938,0.00228,72.35519825,
0.0023,0.1462890554,0.0023,72.35519825,
0.00232,0.5117193495,0.00232,72.72062854,
0.00234,0.5117193495,0.00234,72.72062854,
0.00236,-0.2191412388,0.00236,73.81691942,
0.00238,-3.142583592,0.00238,72.35519825,
0.0024,-0.2191412388,0.0024,71.62433766,
0.00242,2.33887082,0.00242,71.62433766,
0.00244,-3.142583592,0.00244,72.72062854,
0.00246,-2.04629271,0.00246,72.35519825,
0.00248,-1.680862415,0.00248,73.08605883,
0.0025,-0.9500018272,0.0025,72.72062854,
0.00252,1.973440526,0.00252,73.08605883,
0.00254,0.8771496437,0.00254,72.35519825,
0.00256,0.1462890554,0.00256,73.45148913,
0.00258,1.242579938,0.00258,72.35519825,
0.0026,-0.584571533,0.0026,73.45148913,
0.00262,-2.411723004,0.00262,72.72062854,
0.00264,-1.680862415,0.00264,72.35519825,
0.00266,0.1462890554,0.00266,72.72062854,
0.00268,-0.9500018272,0.00268,72.72062854,
0.0027,-1.315432121,0.0027,72.72062854,
0.00272,0.5117193495,0.00272,73.08605883,
0.00274,0.1462890554,0.00274,72.72062854,
0.00276,0.1462890554,0.00276,72.72062854,
0.00278,0.8771496437,0.00278,73.08605883,
0.0028,1.242579938,0.0028,72.72062854,
0.00282,1.242579938,0.00282,72.35519825,
0.00284,0.5117193495,0.00284,72.72062854,
0.00286,1.242579938,0.00286,72.35519825,
0.00288,-0.2191412388,0.00288,72.35519825,
0.0029,1.973440526,0.0029,72.72062854,
0.00292,0.8771496437,0.00292,72.35519825,
0.00294,1.973440526,0.00294,72.35519825,
0.00296,0.5117193495,0.00296,72.72062854,
0.00298,0.8771496437,0.00298,72.72062854,
0.003,0.8771496437,0.003,72.72062854,
0.00302,1.242579938,0.00302,72.72062854,
0.00304,1.608010232,0.00304,72.72062854,
0.00306,2.704301115,0.00306,72.72062854,
0.00308,3.069731409,0.00308,73.45148913,
0.0031,1.608010232,0.0031,72.72062854,
0.00312,1.242579938,0.00312,72.72062854,
0.00314,1.973440526,0.00314,73.45148913,
0.00316,0.5117193495,0.00316,72.72062854,
0.00318,0.1462890554,0.00318,72.72062854,
0.0032,0.1462890554,0.0032,73.45148913,
0.00322,-1.315432121,0.00322,72.72062854,
0.00324,0.5117193495,0.00324,72.72062854,
0.00326,1.242579938,0.00326,72.72062854,
0.00328,0.8771496437,0.00328,73.45148913,
0.0033,0.8771496437,0.0033,72.72062854,
0.00332,-0.584571533,0.00332,73.81691942,
0.00334,-1.315432121,0.00334,72.35519825,
0.00336,-0.9500018272,0.00336,71.98976795,
0.00338,0.8771496437,0.00338,72.72062854,
0.0034,-2.04629271,0.0034,72.35519825,
0.00342,-1.315432121,0.00342,72.72062854,
0.00344,-3.508013886,0.00344,73.45148913,
0.00346,1.973440526,0.00346,73.08605883,
0.00348,-0.2191412388,0.00348,73.08605883,
0.0035,-0.9500018272,0.0035,73.45148913,
0.00352,-0.2191412388,0.00352,73.45148913,
0.00354,1.608010232,0.00354,72.35519825,
0.00356,-0.2191412388,0.00356,73.45148913,
0.00358,-0.2191412388,0.00358,72.35519825,
0.0036,-0.2191412388,0.0036,72.72062854,
0.00362,-0.584571533,0.00362,73.08605883,
0.00364,-1.315432121,0.00364,72.72062854,
0.00366,-0.584571533,0.00366,72.72062854,
0.00368,-0.2191412388,0.00368,73.08605883,
0.0037,0.1462890554,0.0037,72.35519825,
0.00372,0.5117193495,0.00372,72.35519825,
0.00374,0.8771496437,0.00374,73.08605883,
0.00376,-0.584571533,0.00376,72.35519825,
0.00378,1.973440526,0.00378,72.72062854,
0.0038,0.5117193495,0.0038,73.08605883,
0.00382,0.8771496437,0.00382,72.72062854,
0.00384,1.242579938,0.00384,72.35519825,
0.00386,0.8771496437,0.00386,73.08605883,
0.00388,0.5117193495,0.00388,73.08605883,
0.0039,1.608010232,0.0039,72.35519825,
0.00392,0.8771496437,0.00392,72.72062854,
0.00394,0.5117193495,0.00394,72.72062854,
0.00396,1.242579938,0.00396,72.35519825,
0.00398,1.242579938,0.00398,72.72062854,
0.004,0.1462890554,0.004,72.72062854,
0.00402,1.973440526,0.00402,71.98976795,
0.00404,1.973440526,0.00404,73.08605883,
0.00406,1.242579938,0.00406,72.35519825,
0.00408,1.242579938,0.00408,72.72062854,
0.0041,1.242579938,0.0041,72.72062854,
0.00412,-0.2191412388,0.00412,72.72062854,
0.00414,0.5117193495,0.00414,72.72062854,
0.00416,0.5117193495,0.00416,73.08605883,
0.00418,-0.9500018272,0.00418,72.72062854,
0.0042,-0.584571533,0.0042,72.35519825,
0.00422,-0.2191412388,0.00422,72.35519825,
0.00424,-0.584571533,0.00424,71.98976795,
0.00426,0.5117193495,0.00426,71.98976795,
0.00428,2.33887082,0.00428,72.72062854,
0.0043,-0.584571533,0.0043,72.72062854,
0.00432,0.5117193495,0.00432,73.45148913,
0.00434,-2.411723004,0.00434,72.35519825,
0.00436,-2.777153298,0.00436,71.98976795,
0.00438,-0.9500018272,0.00438,73.45148913,
0.0044,-0.9500018272,0.0044,71.62433766,
0.00442,-2.04629271,0.00442,71.62433766,
0.00444,-1.680862415,0.00444,71.98976795,
0.00446,1.608010232,0.00446,72.72062854,
0.00448,-0.2191412388,0.00448,72.72062854,
0.0045,-0.2191412388,0.0045,72.35519825,
0.00452,-0.2191412388,0.00452,71.98976795,
0.00454,-1.315432121,0.00454,71.62433766,
0.00456,1.242579938,0.00456,72.72062854,
0.00458,-0.9500018272,0.00458,72.72062854,
0.0046,-1.315432121,0.0046,71.98976795,
0.00462,-0.9500018272,0.00462,72.72062854,
0.00464,-0.584571533,0.00464,72.72062854,
0.00466,-0.9500018272,0.00466,72.35519825,
0.00468,-0.2191412388,0.00468,72.72062854,
0.0047,0.8771496437,0.0047,72.72062854,
0.00472,1.242579938,0.00472,72.35519825,
0.00474,1.242579938,0.00474,72.35519825,
0.00476,1.608010232,0.00476,72.35519825,
0.00478,1.608010232,0.00478,71.98976795,
0.0048,1.242579938,0.0048,72.72062854,
0.00482,1.608010232,0.00482,72.35519825,
0.00484,0.8771496437,0.00484,71.98976795,
0.00486,1.242579938,0.00486,72.72062854,
0.00488,0.5117193495,0.00488,72.35519825,
0.0049,-0.2191412388,0.0049,71.98976795,
0.00492,1.608010232,0.00492,72.72062854,
0.00494,1.608010232,0.00494,72.72062854,
0.00496,1.608010232,0.00496,71.98976795,
0.00498,1.608010232,0.00498,72.72062854,
0.005,1.242579938,0.005,72.72062854,
0.00502,1.608010232,0.00502,71.98976795,
0.00504,1.973440526,0.00504,72.72062854,
0.00506,1.608010232,0.00506,72.72062854,
0.00508,1.242579938,0.00508,71.98976795,
0.0051,1.608010232,0.0051,72.72062854,
0.00512,0.1462890554,0.00512,73.08605883,
0.00514,0.8771496437,0.00514,72.35519825,
0.00516,0.1462890554,0.00516,72.72062854,
0.00518,0.1462890554,0.00518,72.35519825,
0.0052,-0.2191412388,0.0052,71.98976795,
0.00522,1.608010232,0.00522,72.72062854,
0.00524,1.973440526,0.00524,73.08605883,
0.00526,-0.2191412388,0.00526,71.98976795,
0.00528,1.608010232,0.00528,73.08605883,
0.0053,2.704301115,0.0053,72.72062854,
0.00532,-2.04629271,0.00532,71.98976795,
0.00534,-1.680862415,0.00534,72.72062854,
0.00536,1.242579938,0.00536,71.25890736,
0.00538,-3.142583592,0.00538,71.98976795,
0.0054,-0.2191412388,0.0054,73.08605883,
0.00542,-2.411723004,0.00542,72.72062854,
0.00544,-0.2191412388,0.00544,72.72062854,
0.00546,1.242579938,0.00546,71.98976795,
0.00548,-0.2191412388,0.00548,72.72062854,
0.0055,-0.2191412388,0.0055,72.72062854,
0.00552,1.608010232,0.00552,72.35519825,
0.00554,-0.2191412388,0.00554,72.35519825,
0.00556,-0.9500018272,0.00556,72.35519825,
0.00558,-0.584571533,0.00558,72.72062854,
0.0056,-0.584571533,0.0056,72.72062854,
0.00562,-0.584571533,0.00562,72.35519825,
0.00564,-0.2191412388,0.00564,72.35519825,
0.00566,-0.2191412388,0.00566,72.35519825,
0.00568,0.8771496437,0.00568,71.98976795,
0.0057,1.242579938,0.0057,72.72062854,
0.00572,1.973440526,0.00572,72.72062854,
0.00574,0.5117193495,0.00574,72.35519825,
0.00576,1.973440526,0.00576,72.72062854,
0.00578,0.5117193495,0.00578,73.08605883,
0.0058,0.5117193495,0.0058,72.35519825,
0.00582,0.8771496437,0.00582,72.72062854,
0.00584,1.242579938,0.00584,72.35519825,
0.00586,-0.2191412388,0.00586,71.98976795,
0.00588,1.242579938,0.00588,72.72062854,
0.0059,0.5117193495,0.0059,73.08605883,
0.00592,1.608010232,0.00592,71.62433766,
0.00594,2.33887082,0.00594,72.72062854,
0.00596,1.973440526,0.00596,72.72062854,
0.00598,2.33887082,0.00598,72.35519825,
0.006,1.973440526,0.006,72.72062854,
0.00602,1.608010232,0.00602,72.35519825,
0.00604,0.5117193495,0.00604,71.98976795,
0.00606,0.8771496437,0.00606,72.35519825,
0.00608,0.5117193495,0.00608,72.72062854,
0.0061,0.5117193495,0.0061,72.35519825,
0.00612,-0.9500018272,0.00612,72.72062854,
0.00614,0.1462890554,0.00614,71.98976795,
0.00616,-1.315432121,0.00616,73.08605883,
0.00618,0.5117193495,0.00618,72.35519825,
0.0062,-0.2191412388,0.0062,72.72062854,
0.00622,1.242579938,0.00622,73.08605883,
0.00624,0.5117193495,0.00624,73.08605883,
0.00626,-1.315432121,0.00626,71.98976795,
0.00628,-1.680862415,0.00628,72.35519825,
0.0063,0.8771496437,0.0063,71.98976795,
0.00632,-3.142583592,0.00632,73.08605883,
0.00634,-2.777153298,0.00634,73.08605883,
0.00636,-1.680862415,0.00636,72.35519825,
0.00638,-1.680862415,0.00638,71.98976795,
0.0064,-3.142583592,0.0064,72.72062854,
0.00642,-2.411723004,0.00642,72.35519825,
0.00644,0.1462890554,0.00644,71.98976795,
0.00646,1.242579938,0.00646,73.08605883,
0.00648,-0.584571533,0.00648,72.72062854,
0.0065,-1.680862415,0.0065,72.72062854,
0.00652,-0.2191412388,0.00652,72.72062854,
0.00654,-0.9500018272,0.00654,72.35519825,
0.00656,-0.584571533,0.00656,71.98976795,
0.00658,-2.04629271,0.00658,72.72062854,
0.0066,-1.315432121,0.0066,72.72062854,
0.00662,-0.9500018272,0.00662,72.35519825,
0.00664,0.1462890554,0.00664,73.08605883,
0.00666,0.1462890554,0.00666,72.72062854,
0.00668,0.1462890554,0.00668,72.35519825,
0.0067,1.608010232,0.0067,72.72062854,
0.00672,1.242579938,0.00672,72.35519825,
0.00674,1.242579938,0.00674,71.98976795,
0.00676,-0.2191412388,0.00676,73.08605883,
0.00678,0.5117193495,0.00678,72.35519825,
0.0068,0.8771496437,0.0068,72.35519825,
0.00682,0.5117193495,0.00682,73.08605883,
0.00684,-0.584571533,0.00684,72.72062854,
0.00686,0.1462890554,0.00686,72.72062854,
0.00688,0.5117193495,0.00688,72.72062854,
0.0069,0.8771496437,0.0069,72.72062854,
0.00692,0.5117193495,0.00692,72.35519825,
0.00694,3.069731409,0.00694,72.72062854,
0.00696,1.973440526,0.00696,72.35519825,
0.00698,1.608010232,0.00698,72.35519825,
0.007,2.704301115,0.007,73.45148913,
0.00702,0.5117193495,0.00702,73.08605883,
0.00704,-0.2191412388,0.00704,73.08605883,
0.00706,1.242579938,0.00706,72.72062854,
0.00708,-0.2191412388,0.00708,72.35519825,
0.0071,-0.2191412388,0.0071,73.08605883,
0.00712,-0.584571533,0.00712,72.72062854,
0.00714,0.1462890554,0.00714,72.72062854,
0.00716,0.8771496437,0.00716,73.08605883,
0.00718,0.8771496437,0.00718,72.35519825,
0.0072,3.069731409,0.0072,72.72062854,
0.00722,1.973440526,0.00722,73.45148913,
0.00724,-0.2191412388,0.00724,73.08605883,
0.00726,1.973440526,0.00726,73.08605883,
0.00728,-2.411723004,0.00728,73.08605883,
0.0073,-0.584571533,0.0073,72.35519825,
0.00732,-2.04629271,0.00732,72.72062854,
0.00734,-2.777153298,0.00734,72.72062854,
0.00736,-1.315432121,0.00736,73.08605883,
0.00738,-1.315432121,0.00738,71.98976795,
0.0074,-0.2191412388,0.0074,72.72062854,
0.00742,0.5117193495,0.00742,71.98976795,
0.00744,1.242579938,0.00744,73.08605883,
0.00746,1.242579938,0.00746,72.72062854,
0.00748,-0.9500018272,0.00748,71.98976795,
0.0075,-0.584571533,0.0075,72.72062854,
0.00752,-0.584571533,0.00752,72.72062854,
0.00754,-0.2191412388,0.00754,72.72062854,
0.00756,0.1462890554,0.00756,72.72062854,
0.00758,-0.584571533,0.00758,72.35519825,
0.0076,0.1462890554,0.0076,71.98976795,
0.00762,0.5117193495,0.00762,72.72062854,
0.00764,0.5117193495,0.00764,72.72062854,
0.00766,1.608010232,0.00766,72.35519825,
0.00768,2.33887082,0.00768,73.08605883,
0.0077,2.33887082,0.0077,72.35519825,
0.00772,1.608010232,0.00772,71.98976795,
0.00774,1.973440526,0.00774,72.35519825,
0.00776,0.5117193495,0.00776,72.72062854,
0.00778,1.608010232,0.00778,71.98976795,
0.0078,1.608010232,0.0078,72.35519825,
0.00782,0.8771496437,0.00782,73.08605883,
0.00784,-0.2191412388,0.00784,71.98976795,
0.00786,0.8771496437,0.00786,72.72062854,
0.00788,1.242579938,0.00788,72.72062854,
0.0079,2.704301115,0.0079,72.35519825,
0.00792,0.8771496437,0.00792,72.72062854,
0.00794,2.33887082,0.00794,72.35519825,
0.00796,1.973440526,0.00796,71.98976795,
0.00798,2.704301115,0.00798,72.72062854,
0.008,1.242579938,0.008,72.72062854,
0.00802,1.242579938,0.00802,71.98976795,
0.00804,0.8771496437,0.00804,72.72062854,
0.00806,-0.2191412388,0.00806,72.35519825,
0.00808,0.1462890554,0.00808,71.98976795,
0.0081,0.5117193495,0.0081,72.35519825,
0.00812,0.1462890554,0.00812,72.35519825,
0.00814,0.8771496437,0.00814,71.98976795,
0.00816,2.704301115,0.00816,72.72062854,
0.00818,2.33887082,0.00818,72.35519825,
0.0082,-0.2191412388,0.0082,71.98976795,
0.00822,1.608010232,0.00822,72.72062854,
0.00824,-1.315432121,0.00824,73.08605883,
0.00826,1.242579938,0.00826,71.62433766,
0.00828,-1.680862415,0.00828,71.98976795,
0.0083,-2.411723004,0.0083,72.72062854,
0.00832,-2.04629271,0.00832,72.35519825,
0.00834,0.1462890554,0.00834,73.08605883,
0.00836,-3.142583592,0.00836,73.08605883,
0.00838,0.1462890554,0.00838,71.62433766,
0.0084,-0.2191412388,0.0084,73.08605883,
0.00842,1.242579938,0.00842,72.72062854,
0.00844,-2.04629271,0.00844,71.98976795,
0.00846,0.1462890554,0.00846,72.72062854,
0.00848,0.5117193495,0.00848,72.72062854,
0.0085,-0.584571533,0.0085,72.35519825,
0.00852,-0.2191412388,0.00852,72.35519825,
0.00854,0.1462890554,0.00854,72.72062854,
0.00856,-0.9500018272,0.00856,71.62433766,
0.00858,-0.584571533,0.00858,72.35519825,
0.0086,-0.2191412388,0.0086,72.72062854,
0.00862,0.5117193495,0.00862,71.98976795,
0.00864,2.704301115,0.00864,72.35519825,
0.00866,1.973440526,0.00866,72.35519825,
0.00868,1.973440526,0.00868,72.35519825,
0.0087,0.1462890554,0.0087,72.72062854,
0.00872,1.242579938,0.00872,72.35519825,
0.00874,1.608010232,0.00874,71.62433766,
0.00876,0.1462890554,0.00876,72.35519825,
0.00878,0.8771496437,0.00878,72.35519825,
0.0088,0.5117193495,0.0088,72.35519825,
0.00882,0.8771496437,0.00882,72.35519825,
0.00884,0.8771496437,0.00884,72.72062854,
0.00886,1.608010232,0.00886,71.62433766,
0.00888,2.704301115,0.00888,72.35519825,
0.0089,1.242579938,0.0089,72.35519825,
0.00892,1.973440526,0.00892,71.62433766,
0.00894,2.704301115,0.00894,72.35519825,
0.00896,1.608010232,0.00896,72.35519825,
0.00898,1.242579938,0.00898,72.72062854,
0.009,1.242579938,0.009,73.08605883,
0.00902,0.8771496437,0.00902,72.35519825,
0.00904,0.1462890554,0.00904,72.35519825,
0.00906,-0.2191412388,0.00906,73.08605883,
0.00908,-1.315432121,0.00908,72.35519825,
0.0091,0.5117193495,0.0091,72.35519825,
0.00912,0.5117193495,0.00912,72.72062854,
0.00914,0.5117193495,0.00914,72.72062854,
0.00916,2.33887082,0.00916,71.98976795,
0.00918,-0.584571533,0.00918,73.08605883,
0.0092,-0.584571533,0.0092,71.98976795,
0.00922,0.1462890554,0.00922,71.25890736,
0.00924,-0.584571533,0.00924,72.72062854,
0.00926,-2.04629271,0.00926,71.98976795,
0.00928,-2.04629271,0.00928,71.98976795,
0.0093,-1.315432121,0.0093,73.08605883,
0.00932,-2.777153298,0.00932,72.35519825,
0.00934,-0.9500018272,0.00934,72.72062854,
0.00936,-0.2191412388,0.00936,73.08605883,
0.00938,-1.680862415,0.00938,72.35519825,
0.0094,0.5117193495,0.0094,71.98976795,
0.00942,0.8771496437,0.00942,73.08605883,
0.00944,-0.9500018272,0.00944,72.72062854,
0.00946,0.1462890554,0.00946,71.98976795,
0.00948,-0.9500018272,0.00948,73.08605883,
0.0095,-0.9500018272,0.0095,72.35519825,
0.00952,-1.315432121,0.00952,72.35519825,
0.00954,0.1462890554,0.00954,73.08605883,
0.00956,-0.9500018272,0.00956,72.35519825,
0.00958,-0.2191412388,0.00958,72.35519825,
0.0096,0.8771496437,0.0096,73.08605883,
0.00962,1.242579938,0.00962,72.35519825,
0.00964,0.5117193495,0.00964,72.35519825,
0.00966,1.608010232,0.00966,72.72062854,
0.00968,0.5117193495,0.00968,72.35519825,
0.0097,0.5117193495,0.0097,71.98976795,
0.00972,1.242579938,0.00972,73.08605883,
0.00974,0.1462890554,0.00974,72.35519825,
0.00976,-0.584571533,0.00976,71.98976795,
0.00978,1.242579938,0.00978,73.08605883,
0.0098,0.1462890554,0.0098,72.72062854,
0.00982,0.1462890554,0.00982,71.98976795,
0.00984,1.608010232,0.00984,73.08605883,
0.00986,1.608010232,0.00986,72.72062854,
0.00988,1.973440526,0.00988,72.35519825,
0.0099,1.608010232,0.0099,72.72062854,
0.00992,0.8771496437,0.00992,72.72062854,
0.00994,0.8771496437,0.00994,71.98976795,
0.00996,1.973440526,0.00996,73.08605883,
0.00998,1.973440526,0.00998,72.35519825,
0.01,0.5117193495,0.01,72.35519825,
0.01002,0.1462890554,0.01002,73.08605883,
0.01004,0.1462890554,0.01004,72.35519825,
0.01006,-0.584571533,0.01006,72.72062854,
0.01008,0.1462890554,0.01008,72.72062854,
0.0101,1.973440526,0.0101,72.35519825,
0.01012,-0.584571533,0.01012,72.35519825,
0.01014,0.1462890554,0.01014,72.72062854,
0.01016,-2.04629271,0.01016,72.35519825,
0.01018,-1.315432121,0.01018,71.98976795,
0.0102,-0.9500018272,0.0102,73.45148913,
0.01022,-2.04629271,0.01022,72.35519825,
0.01024,-1.315432121,0.01024,73.81691942,
0.01026,-2.777153298,0.01026,71.98976795,
0.01028,-2.777153298,0.01028,71.98976795,
0.0103,-4.238874475,0.0103,73.08605883,
0.01032,-1.315432121,0.01032,73.08605883,
0.01034,0.1462890554,0.01034,71.98976795,
0.01036,0.5117193495,0.01036,72.72062854,
0.01038,0.8771496437,0.01038,73.45148913,
0.0104,-1.315432121,0.0104,72.72062854,
0.01042,-0.2191412388,0.01042,72.35519825,
0.01044,-0.584571533,0.01044,73.45148913,
0.01046,-0.9500018272,0.01046,72.35519825,
0.01048,-0.9500018272,0.01048,72.35519825,
0.0105,-0.9500018272,0.0105,72.72062854,
0.01052,-2.04629271,0.01052,72.72062854,
0.01054,0.5117193495,0.01054,72.35519825,
0.01056,0.5117193495,0.01056,72.72062854,
0.01058,0.5117193495,0.01058,72.72062854,
0.0106,0.8771496437,0.0106,72.72062854,
0.01062,0.8771496437,0.01062,73.08605883,
0.01064,0.5117193495,0.01064,72.72062854,
0.01066,0.5117193495,0.01066,72.35519825,
0.01068,1.242579938,0.01068,73.08605883,
0.0107,0.1462890554,0.0107,72.72062854,
0.01072,0.1462890554,0.01072,71.98976795,
0.01074,1.608010232,0.01074,72.72062854,
0.01076,0.5117193495,0.01076,72.35519825,
0.01078,0.8771496437,0.01078,72.35519825,
0.0108,0.5117193495,0.0108,73.08605883,
0.01082,0.8771496437,0.01082,72.35519825,
0.01084,1.608010232,0.01084,71.98976795,
0.01086,1.973440526,0.01086,73.08605883,
0.01088,1.608010232,0.01088,72.35519825,
0.0109,0.8771496437,0.0109,72.72062854,
0.01092,1.608010232,0.01092,72.72062854,
0.01094,1.242579938,0.01094,72.35519825,
0.01096,-0.584571533,0.01096,72.72062854,
0.01098,-0.2191412388,0.01098,72.35519825,
0.011,0.8771496437,0.011,72.72062854,
0.01102,-0.584571533,0.01102,73.08605883,
0.01104,0.8771496437,0.01104,72.72062854,
0.01106,-0.2191412388,0.01106,72.35519825,
0.01108,2.704301115,0.01108,72.35519825,
0.0111,0.5117193495,0.0111,73.08605883,
0.01112,0.5117193495,0.01112,72.35519825,
0.01114,-0.584571533,0.01114,72.72062854,
0.01116,-2.777153298,0.01116,72.35519825,
0.01118,-3.142583592,0.01118,72.72062854,
0.0112,-1.315432121,0.0112,73.08605883,
0.01122,-3.508013886,0.01122,72.35519825,
0.01124,1.242579938,0.01124,72.72062854,
0.01126,-3.142583592,0.01126,73.08605883,
0.01128,-1.315432121,0.01128,73.08605883,
0.0113,-0.584571533,0.0113,72.72062854,
0.01132,0.8771496437,0.01132,72.72062854,
0.01134,0.1462890554,0.01134,73.08605883,
0.01136,-0.2191412388,0.01136,72.35519825,
0.01138,0.8771496437,0.01138,73.08605883,
0.0114,-0.584571533,0.0114,71.98976795,
0.01142,-0.9500018272,0.01142,72.35519825,
0.01144,-0.9500018272,0.01144,73.08605883,
0.01146,-0.9500018272,0.01146,72.35519825,
0.01148,-1.315432121,0.01148,72.35519825,
0.0115,-0.2191412388,0.0115,72.72062854,
0.01152,-0.584571533,0.01152,72.72062854,
0.01154,0.5117193495,0.01154,72.72062854,
0.01156,2.704301115,0.01156,73.08605883,
0.01158,0.5117193495,0.01158,72.35519825,
0.0116,0.8771496437,0.0116,72.72062854,
0.01162,0.5117193495,0.01162,72.72062854,
0.01164,-0.584571533,0.01164,72.72062854,
0.01166,0.8771496437,0.01166,72.35519825,
0.01168,0.8771496437,0.01168,73.45148913,
0.0117,-0.2191412388,0.0117,72.72062854,
0.01172,1.242579938,0.01172,72.35519825,
0.01174,0.5117193495,0.01174,72.72062854,
0.01176,0.5117193495,0.01176,72.72062854,
0.01178,0.5117193495,0.01178,72.35519825,
0.0118,2.33887082,0.0118,73.08605883,
0.01182,0.8771496437,0.01182,72.35519825,
0.01184,1.973440526,0.01184,72.35519825,
0.01186,2.33887082,0.01186,73.08605883,
0.01188,1.242579938,0.01188,72.72062854,
0.0119,1.242579938,0.0119,72.72062854,
0.01192,0.5117193495,0.01192,72.72062854,
0.01194,0.1462890554,0.01194,72.72062854,
0.01196,1.608010232,0.01196,72.72062854,
0.01198,0.1462890554,0.01198,73.08605883,
0.012,-1.680862415,0.012,72.72062854,
0.01202,-0.2191412388,0.01202,72.72062854,
0.01204,0.5117193495,0.01204,72.72062854,
0.01206,0.8771496437,0.01206,72.35519825,
0.01208,0.8771496437,0.01208,72.72062854,
0.0121,1.973440526,0.0121,72.72062854,
0.01212,-0.584571533,0.01212,71.98976795,
0.01214,0.1462890554,0.01214,72.72062854,
0.01216,-0.9500018272,0.01216,72.35519825,
0.01218,-0.584571533,0.01218,73.45148913,
0.0122,-1.315432121,0.0122,73.45148913,
0.01222,0.5117193495,0.01222,73.45148913,
0.01224,-1.680862415,0.01224,72.35519825,
0.01226,0.1462890554,0.01226,73.08605883,
0.01228,-0.584571533,0.01228,72.72062854,
0.0123,-0.2191412388,0.0123,72.72062854,
0.01232,0.5117193495,0.01232,73.08605883,
0.01234,0.5117193495,0.01234,72.35519825,
0.01236,0.1462890554,0.01236,72.35519825,
0.01238,0.5117193495,0.01238,72.72062854,
0.0124,-0.9500018272,0.0124,72.35519825,
0.01242,0.5117193495,0.01242,73.08605883,
0.01244,-0.2191412388,0.01244,73.08605883,
0.01246,-0.584571533,0.01246,72.35519825,
0.01248,-0.584571533,0.01248,72.72062854,
0.0125,0.8771496437,0.0125,73.08605883,
0.01252,1.973440526,0.01252,71.98976795,
0.01254,0.8771496437,0.01254,72.72062854,
0.01256,-0.2191412388,0.01256,72.72062854,
0.01258,0.5117193495,0.01258,72.35519825,
0.0126,0.8771496437,0.0126,72.72062854,
0.01262,1.242579938,0.01262,72.35519825,
0.01264,1.242579938,0.01264,72.72062854,
0.01266,1.973440526,0.01266,72.35519825,
0.01268,0.1462890554,0.01268,72.72062854,
0.0127,0.8771496437,0.0127,72.35519825,
0.01272,-0.584571533,0.01272,72.35519825,
0.01274,0.8771496437,0.01274,72.72062854,
0.01276,0.5117193495,0.01276,72.72062854,
0.01278,1.242579938,0.01278,72.35519825,
0.0128,1.973440526,0.0128,72.35519825,
0.01282,0.8771496437,0.01282,71.98976795,
0.01284,2.33887082,0.01284,72.35519825,
0.01286,1.608010232,0.01286,72.72062854,
0.01288,2.33887082,0.01288,72.35519825,
0.0129,0.8771496437,0.0129,72.35519825,
0.01292,0.8771496437,0.01292,72.72062854,
0.01294,-0.2191412388,0.01294,71.98976795,
0.01296,0.5117193495,0.01296,72.72062854,
0.01298,-0.2191412388,0.01298,72.72062854,
0.013,0.1462890554,0.013,71.62433766,
0.01302,1.608010232,0.01302,72.72062854,
0.01304,0.8771496437,0.01304,72.72062854,
0.01306,-0.2191412388,0.01306,71.25890736,
0.01308,0.8771496437,0.01308,73.08605883,
0.0131,-0.9500018272,0.0131,72.35519825,
0.01312,-2.04629271,0.01312,72.72062854,
0.01314,-1.315432121,0.01314,73.45148913,
0.01316,-0.584571533,0.01316,73.08605883,
0.01318,-2.777153298,0.01318,71.98976795,
0.0132,-2.777153298,0.0132,72.72062854,
0.01322,-1.315432121,0.01322,72.35519825,
0.01324,-2.04629271,0.01324,72.35519825,
0.01326,-0.2191412388,0.01326,72.35519825,
0.01328,0.5117193495,0.01328,72.72062854,
0.0133,0.1462890554,0.0133,71.98976795,
0.01332,0.8771496437,0.01332,72.35519825,
0.01334,0.1462890554,0.01334,72.35519825,
0.01336,-0.2191412388,0.01336,71.62433766,
0.01338,-0.584571533,0.01338,72.35519825,
0.0134,-0.584571533,0.0134,72.35519825,
0.01342,-0.2191412388,0.01342,71.98976795,
0.01344,-0.584571533,0.01344,72.72062854,
0.01346,-1.315432121,0.01346,72.72062854,
0.01348,-0.2191412388,0.01348,72.72062854,
0.0135,1.608010232,0.0135,72.35519825,
0.01352,1.608010232,0.01352,72.72062854,
0.01354,1.242579938,0.01354,71.98976795,
0.01356,1.973440526,0.01356,72.35519825,
0.01358,1.608010232,0.01358,72.35519825,
0.0136,0.5117193495,0.0136,71.98976795,
0.01362,1.242579938,0.01362,72.72062854,
0.01364,1.608010232,0.01364,72.35519825,
0.01366,0.1462890554,0.01366,71.62433766,
0.01368,1.608010232,0.01368,72.35519825,
0.0137,1.608010232,0.0137,72.72062854,
0.01372,0.8771496437,0.01372,71.98976795,
0.01374,0.8771496437,0.01374,72.35519825,
0.01376,1.973440526,0.01376,72.35519825,
0.01378,1.973440526,0.01378,71.98976795,
0.0138,3.069731409,0.0138,72.72062854,
0.01382,1.608010232,0.01382,71.98976795,
0.01384,0.8771496437,0.01384,72.35519825,
0.01386,0.8771496437,0.01386,72.35519825,
0.01388,1.608010232,0.01388,72.35519825,
0.0139,0.8771496437,0.0139,71.98976795,
0.01392,0.1462890554,0.01392,71.98976795,
0.01394,-0.9500018272,0.01394,72.35519825,
0.01396,-0.2191412388,0.01396,71.98976795,
0.01398,0.5117193495,0.01398,72.35519825,
0.014,0.1462890554,0.014,72.35519825,
0.01402,1.608010232,0.01402,71.25890736,
0.01404,1.242579938,0.01404,72.72062854,
0.01406,1.242579938,0.01406,72.72062854,
0.01408,-1.315432121,0.01408,71.25890736,
0.0141,1.242579938,0.0141,71.62433766,
0.01412,-1.315432121,0.01412,71.62433766,
0.01414,0.1462890554,0.01414,71.98976795,
0.01416,-2.04629271,0.01416,72.72062854,
0.01418,-1.680862415,0.01418,72.35519825,
0.0142,-0.584571533,0.0142,70.89347707,
0.01422,0.1462890554,0.01422,72.72062854,
0.01424,0.8771496437,0.01424,72.35519825,
0.01426,-0.2191412388,0.01426,72.35519825,
0.01428,-0.2191412388,0.01428,72.35519825,
0.0143,1.973440526,0.0143,72.72062854,
0.01432,0.1462890554,0.01432,72.35519825,
0.01434,-0.2191412388,0.01434,72.35519825,
0.01436,-0.9500018272,0.01436,72.72062854,
0.01438,-0.9500018272,0.01438,71.98976795,
0.0144,-0.9500018272,0.0144,71.98976795,
0.01442,-0.584571533,0.01442,72.72062854,
0.01444,0.1462890554,0.01444,72.35519825,
0.01446,0.1462890554,0.01446,72.35519825,
0.01448,0.8771496437,0.01448,72.72062854,
0.0145,0.8771496437,0.0145,72.35519825,
0.01452,0.8771496437,0.01452,72.35519825,
0.01454,0.8771496437,0.01454,72.72062854,
0.01456,0.5117193495,0.01456,71.62433766,
0.01458,-0.2191412388,0.01458,72.35519825,
0.0146,0.8771496437,0.0146,71.98976795,
0.01462,0.1462890554,0.01462,72.35519825,
0.01464,1.608010232,0.01464,72.35519825,
0.01466,0.5117193495,0.01466,72.35519825,
0.01468,-0.2191412388,0.01468,72.72062854,
0.0147,0.5117193495,0.0147,72.72062854,
0.01472,0.8771496437,0.01472,72.35519825,
0.01474,2.704301115,0.01474,73.08605883,
0.01476,1.973440526,0.01476,72.72062854,
0.01478,1.973440526,0.01478,72.35519825,
0.0148,1.973440526,0.0148,72.72062854,
0.01482,0.1462890554,0.01482,72.35519825,
0.01484,1.608010232,0.01484,72.72062854,
0.01486,1.242579938,0.01486,73.45148913,
0.01488,0.1462890554,0.01488,72.72062854,
0.0149,0.1462890554,0.0149,72.35519825,
0.01492,0.5117193495,0.01492,72.72062854,
0.01494,-0.584571533,0.01494,72.35519825,
0.01496,0.8771496437,0.01496,72.35519825,
0.01498,0.5117193495,0.01498,73.45148913,
0.015,0.8771496437,0.015,72.72062854,
0.01502,1.608010232,0.01502,72.35519825,
0.01504,2.33887082,0.01504,72.35519825,
0.01506,-1.680862415,0.01506,72.72062854,
0.01508,-0.9500018272,0.01508,73.08605883,
0.0151,-1.680862415,0.0151,73.08605883,
0.01512,-4.238874475,0.01512,73.08605883,
0.01514,-2.411723004,0.01514,71.98976795,
0.01516,-2.777153298,0.01516,73.08605883,
0.01518,-2.04629271,0.01518,71.62433766,
0.0152,-0.584571533,0.0152,71.62433766,
0.01522,-0.584571533,0.01522,72.72062854,
0.01524,-0.2191412388,0.01524,72.72062854,
0.01526,0.5117193495,0.01526,72.35519825,
0.01528,-0.584571533,0.01528,73.08605883,
0.0153,-1.315432121,0.0153,72.35519825,
0.01532,-0.9500018272,0.01532,72.35519825,
0.01534,-0.2191412388,0.01534,72.72062854,
0.01536,-0.9500018272,0.01536,73.08605883,
0.01538,-0.9500018272,0.01538,72.35519825,
0.0154,0.1462890554,0.0154,72.72062854,
0.01542,0.5117193495,0.01542,72.72062854,
0.01544,0.1462890554,0.01544,72.35519825,
0.01546,1.608010232,0.01546,72.72062854,
0.01548,-0.2191412388,0.01548,72.35519825,
0.0155,1.608010232,0.0155,72.35519825,
0.01552,2.33887082,0.01552,73.08605883,
0.01554,1.608010232,0.01554,72.72062854,
0.01556,1.242579938,0.01556,71.98976795,
0.01558,1.608010232,0.01558,72.72062854,
0.0156,0.1462890554,0.0156,72.35519825,
0.01562,0.8771496437,0.01562,72.35519825,
0.01564,0.5117193495,0.01564,72.72062854,
0.01566,-0.2191412388,0.01566,71.98976795,
0.01568,0.5117193495,0.01568,71.98976795,
0.0157,1.608010232,0.0157,72.72062854,
0.01572,1.242579938,0.01572,72.72062854,
0.01574,3.069731409,0.01574,71.98976795,
0.01576,1.973440526,0.01576,72.72062854,
0.01578,1.242579938,0.01578,72.35519825,
0.0158,1.608010232,0.0158,72.72062854,
0.01582,1.242579938,0.01582,72.72062854,
0.01584,0.1462890554,0.01584,72.35519825,
0.01586,1.242579938,0.01586,72.72062854,
0.01588,0.1462890554,0.01588,72.72062854,
0.0159,-0.9500018272,0.0159,72.35519825,
0.01592,-0.584571533,0.01592,72.35519825,
0.01594,0.1462890554,0.01594,73.08605883,
0.01596,1.608010232,0.01596,72.35519825,
0.01598,0.8771496437,0.01598,72.35519825,
0.016,1.242579938,0.016,73.08605883,
0.01602,-0.584571533,0.01602,71.98976795,
0.01604,-1.315432121,0.01604,72.35519825,
0.01606,-0.9500018272,0.01606,71.25890736,
0.01608,-2.04629271,0.01608,72.35519825,
0.0161,-2.04629271,0.0161,71.25890736,
0.01612,0.5117193495,0.01612,73.08605883,
0.01614,-3.508013886,0.01614,70.89347707,
0.01616,-2.777153298,0.01616,71.98976795,
0.01618,-1.315432121,0.01618,73.45148913,
0.0162,-1.680862415,0.0162,71.98976795,
0.01622,1.242579938,0.01622,72.35519825,
0.01624,0.5117193495,0.01624,72.72062854,
0.01626,-0.584571533,0.01626,72.72062854,
0.01628,-0.2191412388,0.01628,71.62433766,
0.0163,-0.2191412388,0.0163,72.72062854,
0.01632,-2.04629271,0.01632,72.35519825,
0.01634,-0.584571533,0.01634,71.98976795,
0.01636,-0.584571533,0.01636,72.72062854,
0.01638,-0.584571533,0.01638,72.35519825,
0.0164,-0.9500018272,0.0164,72.35519825,
0.01642,-0.2191412388,0.01642,72.72062854,
0.01644,0.1462890554,0.01644,72.35519825,
0.01646,0.8771496437,0.01646,71.98976795,
0.01648,0.5117193495,0.01648,73.08605883,
0.0165,-0.2191412388,0.0165,72.35519825,
0.01652,0.8771496437,0.01652,72.35519825,
0.01654,1.242579938,0.01654,73.45148913,
0.01656,0.5117193495,0.01656,72.35519825,
0.01658,0.8771496437,0.01658,72.72062854,
0.0166,1.242579938,0.0166,73.08605883,
0.01662,0.5117193495,0.01662,72.35519825,
0.01664,0.5117193495,0.01664,73.08605883,
0.01666,-0.2191412388,0.01666,72.35519825,
0.01668,1.608010232,0.01668,72.72062854,
0.0167,1.608010232,0.0167,72.72062854,
0.01672,1.608010232,0.01672,72.72062854,
0.01674,1.973440526,0.01674,72.35519825,
0.01676,1.973440526,0.01676,72.72062854,
0.01678,0.5117193495,0.01678,72.72062854,
0.0168,1.242579938,0.0168,72.72062854,
0.01682,0.8771496437,0.01682,73.08605883,
0.01684,-0.2191412388,0.01684,72.72062854,
0.01686,0.5117193495,0.01686,72.35519825,
0.01688,0.1462890554,0.01688,73.08605883,
0.0169,-0.2191412388,0.0169,72.35519825,
0.01692,-0.2191412388,0.01692,71.98976795,
0.01694,0.1462890554,0.01694,72.72062854,
0.01696,2.33887082,0.01696,71.98976795,
0.01698,0.1462890554,0.01698,72.35519825,
0.017,-0.2191412388,0.017,73.45148913,
0.01702,-0.584571533,0.01702,73.08605883,
0.01704,0.1462890554,0.01704,71.98976795,
0.01706,-0.584571533,0.01706,73.08605883,
0.01708,-0.9500018272,0.01708,71.98976795,
0.0171,-1.680862415,0.0171,72.35519825,
0.01712,0.5117193495,0.01712,72.35519825,
0.01714,-2.411723004,0.01714,73.08605883,
0.01716,-0.584571533,0.01716,72.35519825,
0.01718,-1.315432121,0.01718,72.35519825,
0.0172,-0.584571533,0.0172,72.72062854,
0.01722,-0.2191412388,0.01722,72.72062854,
0.01724,0.8771496437,0.01724,73.08605883,
0.01726,-0.2191412388,0.01726,72.72062854,
0.01728,-0.9500018272,0.01728,71.98976795,
0.0173,-0.584571533,0.0173,71.98976795,
0.01732,-1.680862415,0.01732,72.35519825,
0.01734,-0.2191412388,0.01734,72.35519825,
0.01736,-0.9500018272,0.01736,72.72062854,
0.01738,-0.2191412388,0.01738,72.72062854,
0.0174,0.8771496437,0.0174,72.35519825,
0.01742,1.608010232,0.01742,72.72062854,
0.01744,2.33887082,0.01744,72.35519825,
0.01746,1.973440526,0.01746,72.72062854,
0.01748,0.8771496437,0.01748,72.72062854,
0.0175,0.8771496437,0.0175,72.35519825,
0.01752,1.242579938,0.01752,72.35519825,
0.01754,1.242579938,0.01754,73.08605883,
0.01756,0.8771496437,0.01756,72.72062854,
0.01758,-0.2191412388,0.01758,72.72062854,
0.0176,0.1462890554,0.0176,71.98976795,
0.01762,0.8771496437,0.01762,72.35519825,
0.01764,1.608010232,0.01764,71.62433766,
0.01766,1.973440526,0.01766,72.35519825,
0.01768,2.33887082,0.01768,72.72062854,
0.0177,1.242579938,0.0177,71.98976795,
0.01772,2.33887082,0.01772,72.72062854,
0.01774,2.33887082,0.01774,72.72062854,
0.01776,0.1462890554,0.01776,71.98976795,
0.01778,1.242579938,0.01778,72.35519825,
0.0178,0.5117193495,0.0178,72.35519825,
0.01782,-0.2191412388,0.01782,71.98976795,
0.01784,-0.2191412388,0.01784,72.72062854,
0.01786,-1.315432121,0.01786,72.35519825,
0.01788,-0.2191412388,0.01788,71.62433766,
0.0179,0.1462890554,0.0179,72.72062854,
0.01792,1.608010232,0.01792,72.72062854,
0.01794,1.608010232,0.01794,71.25890736,
0.01796,1.973440526,0.01796,73.08605883,
0.01798,0.5117193495,0.01798,71.62433766,
0.018,0.5117193495,0.018,71.98976795,
0.01802,1.973440526,0.01802,73.08605883,
0.01804,-3.142583592,0.01804,73.81691942,
0.01806,-2.04629271,0.01806,71.98976795,
0.01808,-2.411723004,0.01808,71.98976795,
0.0181,-2.777153298,0.0181,72.72062854,
0.01812,-2.777153298,0.01812,72.35519825,
0.01814,-0.584571533,0.01814,73.08605883,
0.01816,0.1462890554,0.01816,71.62433766,
0.01818,-0.2191412388,0.01818,72.35519825,
0.0182,0.1462890554,0.0182,72.72062854,
0.01822,-0.2191412388,0.01822,71.98976795,
0.01824,-0.584571533,0.01824,72.35519825,
0.01826,-0.9500018272,0.01826,72.35519825,
0.01828,-1.680862415,0.01828,72.72062854,
0.0183,-0.584571533,0.0183,71.98976795,
0.01832,0.1462890554,0.01832,72.72062854,
0.01834,-0.584571533,0.01834,72.35519825,
0.01836,0.1462890554,0.01836,71.98976795,
0.01838,1.608010232,0.01838,72.72062854,
0.0184,0.8771496437,0.0184,72.72062854,
0.01842,1.608010232,0.01842,72.35519825,
0.01844,1.242579938,0.01844,72.35519825,
0.01846,0.5117193495,0.01846,72.72062854,
0.01848,0.1462890554,0.01848,71.98976795,
0.0185,1.608010232,0.0185,72.35519825,
0.01852,0.5117193495,0.01852,71.98976795,
0.01854,0.8771496437,0.01854,72.35519825,
0.01856,1.608010232,0.01856,72.35519825,
0.01858,-0.2191412388,0.01858,72.35519825,
0.0186,0.1462890554,0.0186,71.62433766,
0.01862,2.33887082,0.01862,72.35519825,
0.01864,2.33887082,0.01864,72.35519825,
0.01866,1.242579938,0.01866,71.62433766,
0.01868,2.704301115,0.01868,72.72062854,
0.0187,1.242579938,0.0187,71.98976795,
0.01872,1.242579938,0.01872,71.98976795,
0.01874,1.608010232,0.01874,72.35519825,
0.01876,0.5117193495,0.01876,71.98976795,
0.01878,-0.2191412388,0.01878,72.35519825,
0.0188,0.5117193495,0.0188,72.35519825,
0.01882,-0.9500018272,0.01882,72.35519825,
0.01884,-0.9500018272,0.01884,71.98976795,
0.01886,0.5117193495,0.01886,72.35519825,
0.01888,-0.2191412388,0.01888,72.35519825,
0.0189,1.242579938,0.0189,72.35519825,
0.01892,3.435161703,0.01892,72.35519825,
0.01894,0.1462890554,0.01894,71.62433766,
0.01896,-0.9500018272,0.01896,72.72062854,
0.01898,-2.411723004,0.01898,73.81691942,
0.019,2.33887082,0.019,72.35519825,
0.01902,-1.680862415,0.01902,73.08605883,
0.01904,-3.142583592,0.01904,71.98976795,
0.01906,-3.508013886,0.01906,71.98976795,
0.01908,1.242579938,0.01908,71.62433766,
0.0191,-1.680862415,0.0191,73.08605883,
0.01912,0.5117193495,0.01912,71.25890736,
0.01914,1.608010232,0.01914,71.62433766,
0.01916,0.5117193495,0.01916,72.35519825,
0.01918,-0.2191412388,0.01918,71.98976795,
0.0192,-0.584571533,0.0192,72.35519825,
0.01922,0.5117193495,0.01922,72.35519825,
0.01924,-0.584571533,0.01924,72.35519825,
0.01926,-0.2191412388,0.01926,71.98976795,
0.01928,-0.584571533,0.01928,72.72062854,
0.0193,-1.315432121,0.0193,72.35519825,
0.01932,-0.2191412388,0.01932,71.62433766,
0.01934,1.608010232,0.01934,71.98976795,
0.01936,0.5117193495,0.01936,72.35519825,
0.01938,1.608010232,0.01938,71.98976795,
0.0194,0.8771496437,0.0194,72.35519825,
0.01942,1.608010232,0.01942,72.35519825,
0.01944,0.8771496437,0.01944,71.98976795,
0.01946,1.973440526,0.01946,72.72062854,
0.01948,0.5117193495,0.01948,72.35519825,
0.0195,0.1462890554,0.0195,71.98976795,
0.01952,1.242579938,0.01952,72.35519825,
0.01954,0.1462890554,0.01954,72.35519825,
0.01956,1.242579938,0.01956,72.35519825,
0.01958,1.242579938,0.01958,72.35519825,
0.0196,1.242579938,0.0196,72.72062854,
0.01962,1.608010232,0.01962,71.98976795,
0.01964,1.608010232,0.01964,72.35519825,
0.01966,1.608010232,0.01966,73.08605883,
0.01968,1.242579938,0.01968,71.98976795,
0.0197,0.5117193495,0.0197,73.08605883,
0.01972,1.242579938,0.01972,72.35519825,
0.01974,1.242579938,0.01974,72.35519825,
0.01976,0.8771496437,0.01976,72.72062854,
0.01978,-0.2191412388,0.01978,72.35519825,
0.0198,-1.680862415,0.0198,71.98976795,
0.01982,-0.9500018272,0.01982,72.35519825,
0.01984,0.1462890554,0.01984,72.35519825,
0.01986,1.242579938,0.01986,72.35519825,
0.01988,0.1462890554,0.01988,71.98976795,
0.0199,0.1462890554,0.0199,71.62433766,
0.01992,-1.315432121,0.01992,71.98976795,
0.01994,3.435161703,0.01994,71.98976795,
0.01996,-0.584571533,0.01996,72.72062854,
0.01998,-1.315432121,0.01998,71.98976795,
0.02,0.1462890554,0.02,71.98976795,
0.02002,-2.411723004,0.02002,71.98976795,
0.02004,-0.9500018272,0.02004,71.98976795,
0.02006,-2.04629271,0.02006,73.08605883,
0.02008,0.5117193495,0.02008,73.08605883,
0.0201,0.8771496437,0.0201,72.35519825,
0.02012,0.8771496437,0.02012,72.35519825,
0.02014,0.1462890554,0.02014,72.35519825,
0.02016,-1.315432121,0.02016,71.98976795,
0.02018,0.5117193495,0.02018,72.35519825,
0.0202,0.1462890554,0.0202,72.35519825,
0.02022,-1.315432121,0.02022,71.98976795,
0.02024,-0.584571533,0.02024,72.35519825,
0.02026,-0.2191412388,0.02026,72.35519825,
0.02028,-1.680862415,0.02028,72.35519825,
0.0203,-0.2191412388,0.0203,72.35519825,
0.02032,0.8771496437,0.02032,72.35519825,
0.02034,0.5117193495,0.02034,71.98976795,
0.02036,1.973440526,0.02036,72.35519825,
0.02038,0.5117193495,0.02038,72.35519825,
0.0204,0.8771496437,0.0204,71.98976795,
0.02042,0.8771496437,0.02042,72.72062854,
0.02044,0.5117193495,0.02044,72.35519825,
0.02046,0.5117193495,0.02046,72.35519825,
0.02048,1.242579938,0.02048,73.08605883,
0.0205,0.1462890554,0.0205,71.98976795,
0.02052,-0.2191412388,0.02052,72.35519825,
0.02054,0.8771496437,0.02054,73.08605883,
0.02056,-0.584571533,0.02056,72.72062854,
0.02058,0.5117193495,0.02058,72.35519825,
0.0206,0.8771496437,0.0206,73.08605883,
0.02062,1.973440526,0.02062,71.98976795,
0.02064,1.608010232,0.02064,71.98976795,
0.02066,0.1462890554,0.02066,73.08605883,
0.02068,0.1462890554,0.02068,72.72062854,
0.0207,1.242579938,0.0207,72.72062854,
0.02072,-0.584571533,0.02072,73.08605883,
0.02074,-0.2191412388,0.02074,72.35519825,
0.02076,-0.2191412388,0.02076,71.98976795,
0.02078,-0.584571533,0.02078,73.08605883,
0.0208,-0.2191412388,0.0208,71.98976795,
0.02082,-0.584571533,0.02082,72.35519825,
0.02084,-0.2191412388,0.02084,73.08605883,
0.02086,0.5117193495,0.02086,72.35519825,
0.02088,0.5117193495,0.02088,71.98976795,
0.0209,-0.584571533,0.0209,72.72062854,
0.02092,-0.9500018272,0.02092,72.35519825,
0.02094,-0.2191412388,0.02094,71.98976795,
0.02096,0.5117193495,0.02096,73.81691942,
0.02098,-3.142583592,0.02098,71.62433766,
0.021,1.242579938,0.021,70.52804678,
0.02102,-1.680862415,0.02102,73.45148913,
0.02104,-1.680862415,0.02104,71.25890736,
0.02106,-1.315432121,0.02106,73.08605883,
0.02108,-2.04629271,0.02108,72.35519825,
0.0211,-0.9500018272,0.0211,72.35519825,
0.02112,-0.584571533,0.02112,72.35519825,
0.02114,1.608010232,0.02114,72.72062854,
0.02116,-1.315432121,0.02116,72.35519825,
0.02118,-0.2191412388,0.02118,72.35519825,
0.0212,-1.315432121,0.0212,73.08605883,
0.02122,-0.9500018272,0.02122,72.35519825,
0.02124,-0.584571533,0.02124,71.62433766,
0.02126,-1.315432121,0.02126,72.72062854,
0.02128,-1.680862415,0.02128,72.35519825,
0.0213,0.1462890554,0.0213,71.98976795,
0.02132,-0.2191412388,0.02132,72.72062854,
0.02134,-0.2191412388,0.02134,71.98976795,
0.02136,0.8771496437,0.02136,72.72062854,
0.02138,0.8771496437,0.02138,73.08605883,
0.0214,0.5117193495,0.0214,72.72062854,
0.02142,1.608010232,0.02142,71.98976795,
0.02144,1.242579938,0.02144,72.72062854,
0.02146,-0.584571533,0.02146,72.72062854,
0.02148,0.1462890554,0.02148,72.35519825,
0.0215,1.608010232,0.0215,72.72062854,
0.02152,-0.2191412388,0.02152,71.98976795,
0.02154,0.8771496437,0.02154,72.35519825,
0.02156,-0.2191412388,0.02156,72.72062854,
0.02158,2.704301115,0.02158,72.72062854,
0.0216,0.8771496437,0.0216,71.98976795,
0.02162,1.973440526,0.02162,73.08605883,
0.02164,0.5117193495,0.02164,72.72062854,
0.02166,1.608010232,0.02166,72.35519825,
0.02168,1.242579938,0.02168,72.35519825,
0.0217,0.1462890554,0.0217,72.35519825,
0.02172,-0.584571533,0.02172,71.98976795,
0.02174,0.1462890554,0.02174,72.72062854,
0.02176,-1.680862415,0.02176,71.98976795,
0.02178,-0.2191412388,0.02178,71.98976795,
0.0218,0.5117193495,0.0218,72.72062854,
0.02182,-0.584571533,0.02182,71.98976795,
0.02184,0.1462890554,0.02184,72.35519825,
0.02186,3.435161703,0.02186,72.72062854,
0.02188,-0.2191412388,0.02188,72.35519825,
0.0219,0.5117193495,0.0219,71.62433766,
0.02192,-1.680862415,0.02192,73.45148913,
0.02194,-3.142583592,0.02194,71.98976795,
0.02196,-2.411723004,0.02196,71.62433766,
0.02198,-2.777153298,0.02198,73.45148913,
0.022,-0.9500018272,0.022,71.98976795,
0.02202,-2.777153298,0.02202,72.72062854,
0.02204,0.8771496437,0.02204,72.35519825,
0.02206,-0.2191412388,0.02206,72.72062854,
0.02208,-0.2191412388,0.02208,72.35519825,
0.0221,0.5117193495,0.0221,73.45148913,
0.02212,-0.9500018272,0.02212,72.35519825,
0.02214,0.1462890554,0.02214,72.35519825,
0.02216,-2.411723004,0.02216,72.72062854,
0.02218,-1.315432121,0.02218,72.35519825,
0.0222,-1.680862415,0.0222,71.98976795,
0.02222,-0.584571533,0.02222,72.72062854,
0.02224,0.8771496437,0.02224,72.72062854,
0.02226,-0.584571533,0.02226,72.72062854,
0.02228,0.5117193495,0.02228,72.72062854,
0.0223,0.5117193495,0.0223,73.08605883,
0.02232,0.8771496437,0.02232,72.72062854,
0.02234,0.5117193495,0.02234,72.72062854,
0.02236,1.242579938,0.02236,71.98976795,
0.02238,1.608010232,0.02238,72.35519825,
0.0224,0.8771496437,0.0224,72.72062854,
0.02242,1.242579938,0.02242,72.72062854,
0.02244,-0.2191412388,0.02244,72.72062854,
0.02246,-0.2191412388,0.02246,72.72062854,
0.02248,-0.2191412388,0.02248,72.35519825,
0.0225,0.8771496437,0.0225,72.72062854,
0.02252,0.1462890554,0.02252,72.72062854,
0.02254,1.973440526,0.02254,72.35519825,
0.02256,1.973440526,0.02256,72.35519825,
0.02258,1.973440526,0.02258,72.35519825,
0.0226,2.33887082,0.0226,72.72062854,
0.02262,1.608010232,0.02262,72.72062854,
0.02264,2.33887082,0.02264,72.72062854,
0.02266,1.608010232,0.02266,72.72062854,
0.02268,0.5117193495,0.02268,72.72062854,
0.0227,0.5117193495,0.0227,73.08605883,
0.02272,-0.9500018272,0.02272,72.35519825,
0.02274,-1.315432121,0.02274,72.72062854,
0.02276,-0.2191412388,0.02276,71.98976795,
0.02278,0.1462890554,0.02278,73.08605883,
0.0228,0.5117193495,0.0228,72.35519825,
0.02282,0.1462890554,0.02282,72.35519825,
0.02284,0.5117193495,0.02284,73.08605883,
0.02286,1.608010232,0.02286,72.35519825,
0.02288,1.242579938,0.02288,71.98976795,
0.0229,1.973440526,0.0229,71.98976795,
0.02292,-3.873444181,0.02292,73.08605883,
0.02294,-3.508013886,0.02294,72.72062854,
0.02296,-4.969735063,0.02296,73.81691942,
0.02298,-2.411723004,0.02298,73.45148913,
0.023,-1.315432121,0.023,72.72062854,
0.02302,-0.584571533,0.02302,73.45148913,
0.02304,-0.584571533,0.02304,72.35519825,
0.02306,-0.584571533,0.02306,72.35519825,
0.02308,-2.04629271,0.02308,72.72062854,
0.0231,0.5117193495,0.0231,71.98976795,
0.02312,-1.315432121,0.02312,71.98976795,
0.02314,-0.584571533,0.02314,72.72062854,
0.02316,-1.315432121,0.02316,71.98976795,
0.02318,-0.9500018272,0.02318,72.35519825,
0.0232,-1.315432121,0.0232,72.35519825,
0.02322,-0.2191412388,0.02322,71.98976795,
0.02324,-0.2191412388,0.02324,71.98976795,
0.02326,0.8771496437,0.02326,71.98976795,
0.02328,0.8771496437,0.02328,72.35519825,
0.0233,1.242579938,0.0233,72.72062854,
0.02332,1.242579938,0.02332,71.98976795,
0.02334,0.5117193495,0.02334,71.98976795,
0.02336,0.8771496437,0.02336,72.72062854,
0.02338,0.1462890554,0.02338,72.72062854,
0.0234,0.8771496437,0.0234,71.98976795,
0.02342,1.608010232,0.02342,72.72062854,
0.02344,-1.315432121,0.02344,72.72062854,
0.02346,0.8771496437,0.02346,71.98976795,
0.02348,0.8771496437,0.02348,72.72062854,
0.0235,0.1462890554,0.0235,71.98976795,
0.02352,0.5117193495,0.02352,71.98976795,
0.02354,1.973440526,0.02354,72.72062854,
0.02356,0.8771496437,0.02356,72.72062854,
0.02358,1.608010232,0.02358,71.98976795,
0.0236,0.8771496437,0.0236,73.08605883,
0.02362,0.8771496437,0.02362,72.35519825,
0.02364,1.608010232,0.02364,71.98976795,
0.02366,0.8771496437,0.02366,72.72062854,
0.02368,0.5117193495,0.02368,72.35519825,
0.0237,-0.584571533,0.0237,71.98976795,
0.02372,-0.9500018272,0.02372,72.72062854,
0.02374,-1.315432121,0.02374,72.35519825,
0.02376,0.1462890554,0.02376,72.35519825,
0.02378,2.704301115,0.02378,72.72062854,
0.0238,-0.2191412388,0.0238,72.35519825,
0.02382,1.608010232,0.02382,72.35519825,
0.02384,-0.9500018272,0.02384,72.35519825,
0.02386,-2.411723004,0.02386,73.08605883,
0.02388,-2.777153298,0.02388,71.98976795,
0.0239,-0.9500018272,0.0239,72.72062854,
0.02392,-3.142583592,0.02392,72.72062854,
0.02394,0.8771496437,0.02394,72.72062854,
0.02396,-3.508013886,0.02396,73.45148913,
0.02398,-2.777153298,0.02398,72.35519825,
0.024,-0.584571533,0.024,72.35519825,
0.02402,0.5117193495,0.02402,73.08605883,
0.02404,-0.9500018272,0.02404,71.98976795,
0.02406,-0.584571533,0.02406,71.98976795,
0.02408,0.5117193495,0.02408,72.72062854,
0.0241,-1.315432121,0.0241,71.98976795,
0.02412,-0.9500018272,0.02412,72.35519825,
0.02414,-1.315432121,0.02414,73.08605883,
0.02416,-1.315432121,0.02416,72.35519825,
0.02418,-0.584571533,0.02418,72.72062854,
0.0242,-0.2191412388,0.0242,72.72062854,
0.02422,0.1462890554,0.02422,72.72062854,
0.02424,0.1462890554,0.02424,72.35519825,
0.02426,1.242579938,0.02426,72.35519825,
0.02428,0.8771496437,0.02428,72.35519825,
0.0243,0.5117193495,0.0243,72.35519825,
0.02432,1.242579938,0.02432,72.72062854,
0.02434,-0.2191412388,0.02434,72.72062854,
0.02436,0.8771496437,0.02436,72.35519825,
0.02438,1.608010232,0.02438,72.72062854,
0.0244,0.5117193495,0.0244,71.98976795,
0.02442,-0.9500018272,0.02442,72.35519825,
0.02444,0.1462890554,0.02444,72.72062854,
0.02446,-0.2191412388,0.02446,73.08605883,
0.02448,0.8771496437,0.02448,72.35519825,
0.0245,1.242579938,0.0245,73.45148913,
0.02452,0.8771496437,0.02452,71.98976795,
0.02454,1.973440526,0.02454,72.35519825,
0.02456,1.608010232,0.02456,72.72062854,
0.02458,1.608010232,0.02458,72.35519825,
0.0246,0.1462890554,0.0246,72.35519825,
0.02462,0.8771496437,0.02462,72.72062854,
0.02464,-0.2191412388,0.02464,72.35519825,
0.02466,-0.584571533,0.02466,72.35519825,
0.02468,-0.584571533,0.02468,72.72062854,
0.0247,-0.584571533,0.0247,72.35519825,
0.02472,-0.9500018272,0.02472,72.35519825,
0.02474,1.608010232,0.02474,72.72062854,
0.02476,-0.584571533,0.02476,72.72062854,
0.02478,1.608010232,0.02478,72.35519825,
0.0248,1.242579938,0.0248,73.08605883,
0.02482,0.1462890554,0.02482,72.35519825,
0.02484,-1.680862415,0.02484,72.35519825,
0.02486,-2.04629271,0.02486,71.98976795,
0.02488,-2.04629271,0.02488,73.45148913,
0.0249,-1.315432121,0.0249,71.25890736,
0.02492,-2.04629271,0.02492,73.08605883,
0.02494,0.5117193495,0.02494,71.98976795,
0.02496,-4.238874475,0.02496,71.98976795,
0.02498,-0.9500018272,0.02498,72.72062854,
0.025,-0.9500018272,0.025,71.98976795,
0.02502,0.1462890554,0.02502,72.35519825,
0.02504,0.1462890554,0.02504,73.08605883,
0.02506,-1.315432121,0.02506,71.98976795,
0.02508,-2.411723004,0.02508,71.98976795,
0.0251,-0.584571533,0.0251,72.72062854,
0.02512,-1.680862415,0.02512,71.98976795,
0.02514,-2.04629271,0.02514,72.35519825,
0.02516,-0.584571533,0.02516,73.08605883,
0.02518,-1.315432121,0.02518,72.35519825,
0.0252,0.1462890554,0.0252,72.35519825,
0.02522,0.8771496437,0.02522,72.72062854,
0.02524,1.242579938,0.02524,72.35519825,
0.02526,1.608010232,0.02526,72.35519825,
0.02528,1.608010232,0.02528,73.08605883,
0.0253,0.1462890554,0.0253,72.72062854,
0.02532,-0.584571533,0.02532,72.35519825,
0.02534,0.5117193495,0.02534,72.72062854,
0.02536,0.8771496437,0.02536,72.72062854,
0.02538,0.1462890554,0.02538,72.35519825,
0.0254,-0.2191412388,0.0254,73.08605883,
0.02542,0.1462890554,0.02542,72.72062854,
0.02544,0.8771496437,0.02544,73.08605883,
0.02546,0.1462890554,0.02546,73.08605883,
0.02548,1.242579938,0.02548,72.72062854,
0.0255,2.33887082,0.0255,72.35519825,
0.02552,2.704301115,0.02552,72.72062854,
0.02554,-0.2191412388,0.02554,72.72062854,
0.02556,1.973440526,0.02556,72.35519825,
0.02558,1.242579938,0.02558,73.08605883,
0.0256,0.1462890554,0.0256,72.72062854,
0.02562,0.8771496437,0.02562,72.35519825,
0.02564,0.1462890554,0.02564,72.72062854,
0.02566,-1.680862415,0.02566,72.72062854,
0.02568,-0.2191412388,0.02568,72.35519825,
0.0257,0.5117193495,0.0257,72.72062854,
0.02572,-0.2191412388,0.02572,72.35519825,
0.02574,1.973440526,0.02574,72.72062854,
0.02576,0.8771496437,0.02576,72.72062854,
0.02578,-0.584571533,0.02578,73.08605883,
0.0258,-1.680862415,0.0258,72.72062854,
0.02582,-0.584571533,0.02582,71.62433766,
0.02584,0.5117193495,0.02584,72.72062854,
0.02586,-3.142583592,0.02586,70.89347707,
0.02588,-0.9500018272,0.02588,73.81691942,
0.0259,-3.873444181,0.0259,73.81691942,
0.02592,-3.873444181,0.02592,71.98976795,
0.02594,-2.411723004,0.02594,72.72062854,
0.02596,-2.04629271,0.02596,72.72062854,
0.02598,0.5117193495,0.02598,72.35519825,
0.026,0.1462890554,0.026,72.72062854,
0.02602,-2.04629271,0.02602,73.08605883,
0.02604,-0.2191412388,0.02604,71.98976795,
0.02606,-0.584571533,0.02606,72.72062854,
0.02608,-0.9500018272,0.02608,73.08605883,
0.0261,-0.584571533,0.0261,72.72062854,
0.02612,-0.584571533,0.02612,72.72062854,
0.02614,-0.9500018272,0.02614,72.72062854,
0.02616,-0.9500018272,0.02616,72.72062854,
0.02618,-1.315432121,0.02618,73.08605883,
0.0262,0.8771496437,0.0262,72.72062854,
0.02622,1.242579938,0.02622,72.72062854,
0.02624,0.5117193495,0.02624,72.72062854,
0.02626,1.242579938,0.02626,72.72062854,
0.02628,1.608010232,0.02628,72.72062854,
0.0263,0.5117193495,0.0263,73.08605883,
0.02632,0.5117193495,0.02632,72.72062854,
0.02634,0.5117193495,0.02634,72.35519825,
0.02636,0.5117193495,0.02636,72.72062854,
0.02638,-0.2191412388,0.02638,72.35519825,
0.0264,0.5117193495,0.0264,72.35519825,
0.02642,0.5117193495,0.02642,72.72062854,
0.02644,0.1462890554,0.02644,72.35519825,
0.02646,1.973440526,0.02646,72.72062854,
0.02648,1.242579938,0.02648,72.72062854,
0.0265,0.8771496437,0.0265,72.35519825,
0.02652,2.704301115,0.02652,72.35519825,
0.02654,1.973440526,0.02654,72.72062854,
0.02656,1.242579938,0.02656,71.98976795,
0.02658,1.608010232,0.02658,72.35519825,
0.0266,0.1462890554,0.0266,72.72062854,
0.02662,-0.9500018272,0.02662,72.72062854,
0.02664,-0.584571533,0.02664,71.98976795,
0.02666,-0.584571533,0.02666,73.08605883,
0.02668,-1.680862415,0.02668,72.35519825,
0.0267,1.242579938,0.0267,72.35519825,
0.02672,1.973440526,0.02672,73.08605883,
0.02674,-0.584571533,0.02674,72.35519825,
0.02676,-2.411723004,0.02676,72.35519825,
0.02678,-0.9500018272,0.02678,72.35519825,
0.0268,0.5117193495,0.0268,72.35519825,
0.02682,0.8771496437,0.02682,72.72062854,
0.02684,-3.142583592,0.02684,73.08605883,
0.02686,-3.142583592,0.02686,73.81691942,
0.02688,-0.9500018272,0.02688,71.98976795,
0.0269,-3.508013886,0.0269,72.72062854,
0.02692,-2.777153298,0.02692,72.72062854,
0.02694,0.5117193495,0.02694,73.08605883,
0.02696,-1.315432121,0.02696,72.35519825,
0.02698,0.8771496437,0.02698,72.72062854,
0.027,-1.315432121,0.027,71.98976795,
0.02702,-0.9500018272,0.02702,72.35519825,
0.02704,-2.411723004,0.02704,72.35519825,
0.02706,0.5117193495,0.02706,72.35519825,
0.02708,-0.9500018272,0.02708,71.62433766,
0.0271,-0.2191412388,0.0271,72.72062854,
0.02712,-0.2191412388,0.02712,72.35519825,
0.02714,-0.584571533,0.02714,71.62433766,
0.02716,-0.2191412388,0.02716,72.35519825,
0.02718,2.33887082,0.02718,71.98976795,
0.0272,1.608010232,0.0272,71.98976795,
0.02722,2.33887082,0.02722,71.98976795,
0.02724,1.608010232,0.02724,72.35519825,
0.02726,0.1462890554,0.02726,71.98976795,
0.02728,1.608010232,0.02728,72.35519825,
0.0273,0.8771496437,0.0273,72.72062854,
0.02732,0.5117193495,0.02732,71.98976795,
0.02734,1.973440526,0.02734,72.35519825,
0.02736,-0.2191412388,0.02736,72.35519825,
0.02738,0.1462890554,0.02738,71.98976795,
0.0274,1.608010232,0.0274,72.72062854,
0.02742,1.242579938,0.02742,72.35519825,
0.02744,0.5117193495,0.02744,71.62433766,
0.02746,3.435161703,0.02746,72.35519825,
0.02748,0.8771496437,0.02748,72.35519825,
0.0275,1.608010232,0.0275,72.35519825,
0.02752,0.5117193495,0.02752,72.72062854,
0.02754,0.5117193495,0.02754,72.35519825,
0.02756,0.8771496437,0.02756,72.72062854,
0.02758,0.5117193495,0.02758,72.72062854,
0.0276,-0.9500018272,0.0276,72.72062854,
0.02762,0.8771496437,0.02762,72.35519825,
0.02764,-0.2191412388,0.02764,72.35519825,
0.02766,0.1462890554,0.02766,73.08605883,
0.02768,-0.2191412388,0.02768,72.72062854,
0.0277,0.5117193495,0.0277,72.72062854,
0.02772,-0.2191412388,0.02772,72.35519825,
0.02774,1.608010232,0.02774,73.08605883,
0.02776,-0.2191412388,0.02776,72.72062854,
0.02778,-0.584571533,0.02778,71.98976795,
0.0278,-2.04629271,0.0278,71.98976795,
0.02782,-3.508013886,0.02782,71.62433766,
0.02784,-3.508013886,0.02784,71.98976795,
0.02786,-2.04629271,0.02786,73.45148913,
0.02788,-1.315432121,0.02788,72.72062854,
0.0279,0.5117193495,0.0279,72.35519825,
0.02792,1.242579938,0.02792,73.08605883,
0.02794,-1.315432121,0.02794,71.98976795,
0.02796,-1.680862415,0.02796,72.72062854,
0.02798,-0.584571533,0.02798,73.08605883,
0.028,-1.315432121,0.028,72.35519825,
0.02802,-0.2191412388,0.02802,72.72062854,
0.02804,-1.680862415,0.02804,72.72062854,
0.02806,-2.04629271,0.02806,72.72062854,
0.02808,-0.9500018272,0.02808,72.35519825,
0.0281,-0.9500018272,0.0281,73.08605883,
0.02812,-0.2191412388,0.02812,72.72062854,
0.02814,0.1462890554,0.02814,72.35519825,
0.02816,0.8771496437,0.02816,73.08605883,
0.02818,0.1462890554,0.02818,72.72062854,
0.0282,0.1462890554,0.0282,72.35519825,
0.02822,1.608010232,0.02822,73.08605883,
0.02824,0.1462890554,0.02824,72.35519825,
0.02826,0.8771496437,0.02826,72.35519825,
0.02828,1.242579938,0.02828,72.35519825,
0.0283,-0.2191412388,0.0283,72.72062854,
0.02832,-0.2191412388,0.02832,72.72062854,
0.02834,0.5117193495,0.02834,72.72062854,
0.02836,-0.584571533,0.02836,72.72062854,
0.02838,0.8771496437,0.02838,72.35519825,
0.0284,0.5117193495,0.0284,72.72062854,
0.02842,1.973440526,0.02842,72.35519825,
0.02844,1.973440526,0.02844,72.35519825,
0.02846,1.973440526,0.02846,72.72062854,
0.02848,0.5117193495,0.02848,71.98976795,
0.0285,1.242579938,0.0285,72.35519825,
0.02852,0.1462890554,0.02852,72.72062854,
0.02854,0.5117193495,0.02854,72.72062854,
0.02856,0.1462890554,0.02856,72.72062854,
0.02858,-0.584571533,0.02858,73.08605883,
0.0286,-0.2191412388,0.0286,72.35519825,
0.02862,0.1462890554,0.02862,72.35519825,
0.02864,-0.584571533,0.02864,73.08605883,
0.02866,-1.315432121,0.02866,72.35519825,
0.02868,0.8771496437,0.02868,72.35519825,
0.0287,0.1462890554,0.0287,71.98976795,
0.02872,-0.9500018272,0.02872,71.98976795,
0.02874,-0.9500018272,0.02874,72.35519825,
0.02876,-1.315432121,0.02876,71.25890736,
0.02878,-3.873444181,0.02878,72.35519825,
0.0288,-3.508013886,0.0288,73.45148913,
0.02882,-3.508013886,0.02882,72.72062854,
0.02884,-4.238874475,0.02884,72.72062854,
0.02886,-3.142583592,0.02886,72.35519825,
0.02888,-0.584571533,0.02888,72.72062854,
0.0289,-0.9500018272,0.0289,72.72062854,
0.02892,-0.2191412388,0.02892,71.98976795,
0.02894,-0.584571533,0.02894,72.72062854,
0.02896,-0.2191412388,0.02896,72.35519825,
0.02898,0.1462890554,0.02898,72.72062854,
0.029,-0.584571533,0.029,72.72062854,
0.02902,-2.04629271,0.02902,72.72062854,
0.02904,-1.315432121,0.02904,72.72062854,
0.02906,-0.9500018272,0.02906,72.72062854,
0.02908,-1.680862415,0.02908,72.35519825,
0.0291,0.8771496437,0.0291,72.35519825,
0.02912,-0.9500018272,0.02912,73.08605883,
0.02914,0.1462890554,0.02914,72.35519825,
0.02916,1.242579938,0.02916,72.35519825,
0.02918,1.242579938,0.02918,72.35519825,
0.0292,-0.2191412388,0.0292,72.72062854,
0.02922,0.8771496437,0.02922,72.35519825,
0.02924,-0.584571533,0.02924,72.35519825,
0.02926,-0.2191412388,0.02926,72.35519825,
0.02928,0.8771496437,0.02928,72.72062854,
0.0293,1.608010232,0.0293,73.08605883,
0.02932,-0.584571533,0.02932,72.35519825,
0.02934,0.1462890554,0.02934,72.35519825,
0.02936,0.1462890554,0.02936,72.72062854,
0.02938,0.8771496437,0.02938,72.72062854,
0.0294,0.1462890554,0.0294,72.35519825,
0.02942,1.242579938,0.02942,72.72062854,
0.02944,0.5117193495,0.02944,72.35519825,
0.02946,1.973440526,0.02946,72.35519825,
0.02948,0.5117193495,0.02948,72.72062854,
0.0295,-0.9500018272,0.0295,72.72062854,
0.02952,0.1462890554,0.02952,72.35519825,
0.02954,-1.315432121,0.02954,72.72062854,
0.02956,-0.9500018272,0.02956,72.35519825,
0.02958,-0.2191412388,0.02958,72.35519825,
0.0296,-1.680862415,0.0296,72.35519825,
0.02962,-0.2191412388,0.02962,72.72062854,
0.02964,1.608010232,0.02964,71.98976795,
0.02966,0.1462890554,0.02966,72.35519825,
0.02968,0.1462890554,0.02968,72.72062854,
0.0297,-0.584571533,0.0297,72.72062854,
0.02972,-2.04629271,0.02972,72.72062854,
0.02974,-2.411723004,0.02974,72.72062854,
0.02976,0.1462890554,0.02976,70.89347707,
0.02978,-2.777153298,0.02978,72.72062854,
0.0298,-0.584571533,0.0298,72.72062854,
0.02982,-2.411723004,0.02982,72.72062854,
0.02984,-0.9500018272,0.02984,73.08605883,
0.02986,-1.315432121,0.02986,72.72062854,
0.02988,0.8771496437,0.02988,71.62433766,
0.0299,-0.2191412388,0.0299,72.72062854,
0.02992,0.5117193495,0.02992,72.72062854,
0.02994,0.1462890554,0.02994,72.72062854,
0.02996,-0.584571533,0.02996,72.35519825,
0.02998,-2.04629271,0.02998,71.98976795,
0.03,0.1462890554,0.03,71.98976795,
0.03002,-0.9500018272,0.03002,72.35519825,
0.03004,-0.9500018272,0.03004,71.62433766,
0.03006,-0.584571533,0.03006,72.72062854,
0.03008,0.1462890554,0.03008,72.35519825,
0.0301,0.5117193495,0.0301,72.35519825,
0.03012,0.8771496437,0.03012,71.98976795,
0.03014,1.242579938,0.03014,72.35519825,
0.03016,0.5117193495,0.03016,71.62433766,
0.03018,1.242579938,0.03018,72.35519825,
0.0302,0.5117193495,0.0302,71.98976795,
0.03022,0.1462890554,0.03022,71.98976795,
0.03024,-0.2191412388,0.03024,73.08605883,
0.03026,0.8771496437,0.03026,72.35519825,
0.03028,-0.2191412388,0.03028,71.98976795,
0.0303,0.5117193495,0.0303,72.35519825,
0.03032,0.8771496437,0.03032,72.35519825,
0.03034,0.5117193495,0.03034,72.35519825,
0.03036,1.242579938,0.03036,71.98976795,
0.03038,1.608010232,0.03038,72.35519825,
0.0304,0.8771496437,0.0304,72.35519825,
0.03042,2.33887082,0.03042,72.35519825,
0.03044,0.8771496437,0.03044,72.35519825,
0.03046,1.608010232,0.03046,71.98976795,
0.03048,0.5117193495,0.03048,72.35519825,
0.0305,0.8771496437,0.0305,72.35519825,
0.03052,0.8771496437,0.03052,71.98976795,
0.03054,-0.584571533,0.03054,72.35519825,
0.03056,-1.315432121,0.03056,72.35519825,
0.03058,-0.2191412388,0.03058,72.35519825,
0.0306,0.8771496437,0.0306,72.35519825,
0.03062,0.8771496437,0.03062,72.72062854,
0.03064,1.242579938,0.03064,71.25890736,
0.03066,1.242579938,0.03066,71.25890736,
0.03068,0.1462890554,0.03068,71.98976795,
0.0307,-0.9500018272,0.0307,72.35519825,
0.03072,-2.411723004,0.03072,72.72062854,
0.03074,0.8771496437,0.03074,71.98976795,
0.03076,-3.508013886,0.03076,71.62433766,
0.03078,-2.04629271,0.03078,71.25890736,
0.0308,-2.04629271,0.0308,71.62433766,
0.03082,-1.315432121,0.03082,71.62433766,
0.03084,0.8771496437,0.03084,72.72062854,
0.03086,-0.2191412388,0.03086,73.08605883,
0.03088,-0.2191412388,0.03088,71.25890736,
0.0309,1.242579938,0.0309,72.35519825,
0.03092,-0.584571533,0.03092,72.35519825,
0.03094,-1.680862415,0.03094,71.62433766,
0.03096,-2.04629271,0.03096,72.35519825,
0.03098,-1.315432121,0.03098,72.35519825,
0.031,-0.9500018272,0.031,72.35519825,
0.03102,-0.584571533,0.03102,71.98976795,
0.03104,-1.680862415,0.03104,72.35519825,
0.03106,-1.315432121,0.03106,72.35519825,
0.03108,0.5117193495,0.03108,72.72062854,
0.0311,0.8771496437,0.0311,72.35519825,
0.03112,0.5117193495,0.03112,71.98976795,
0.03114,2.33887082,0.03114,72.35519825,
0.03116,0.8771496437,0.03116,72.35519825,
0.03118,0.8771496437,0.03118,71.62433766,
0.0312,0.5117193495,0.0312,72.35519825,
0.03122,0.5117193495,0.03122,72.35519825,
0.03124,-1.315432121,0.03124,71.62433766,
0.03126,0.5117193495,0.03126,72.35519825,
0.03128,-0.9500018272,0.03128,72.35519825,
0.0313,0.1462890554,0.0313,71.98976795,
0.03132,0.5117193495,0.03132,72.35519825,
0.03134,1.608010232,0.03134,71.98976795,
0.03136,2.33887082,0.03136,71.98976795,
0.03138,2.704301115,0.03138,72.72062854,
0.0314,1.242579938,0.0314,72.35519825,
0.03142,1.242579938,0.03142,71.98976795,
0.03144,1.242579938,0.03144,72.35519825,
0.03146,0.1462890554,0.03146,71.98976795,
0.03148,-1.680862415,0.03148,71.98976795,
0.0315,0.5117193495,0.0315,72.35519825,
0.03152,-1.315432121,0.03152,72.35519825,
0.03154,-0.9500018272,0.03154,71.98976795,
0.03156,0.1462890554,0.03156,71.98976795,
0.03158,-0.584571533,0.03158,72.35519825,
0.0316,-0.584571533,0.0316,71.98976795,
0.03162,-0.2191412388,0.03162,72.72062854,
0.03164,0.1462890554,0.03164,72.35519825,
0.03166,-1.680862415,0.03166,72.72062854,
0.03168,-0.584571533,0.03168,71.98976795,
0.0317,-0.2191412388,0.0317,72.72062854,
0.03172,-2.04629271,0.03172,72.35519825,
0.03174,-2.777153298,0.03174,71.98976795,
0.03176,-2.411723004,0.03176,73.08605883,
0.03178,-2.777153298,0.03178,71.98976795,
0.0318,-1.315432121,0.0318,73.45148913,
0.03182,-1.680862415,0.03182,71.98976795,
0.03184,-0.584571533,0.03184,72.72062854,
0.03186,0.1462890554,0.03186,72.35519825,
0.03188,-2.411723004,0.03188,71.98976795,
0.0319,-0.2191412388,0.0319,72.35519825,
0.03192,-1.315432121,0.03192,72.35519825,
0.03194,-1.315432121,0.03194,72.35519825,
0.03196,-0.9500018272,0.03196,72.72062854,
0.03198,-1.315432121,0.03198,72.35519825,
0.032,-2.04629271,0.032,71.98976795,
0.03202,-0.9500018272,0.03202,72.72062854,
0.03204,-1.680862415,0.03204,71.98976795,
0.03206,0.5117193495,0.03206,72.35519825,
0.03208,1.608010232,0.03208,72.35519825,
0.0321,0.8771496437,0.0321,72.35519825,
0.03212,1.242579938,0.03212,72.72062854,
0.03214,1.242579938,0.03214,73.08605883,
0.03216,-0.2191412388,0.03216,72.35519825,
0.03218,0.1462890554,0.03218,72.35519825,
0.0322,-0.9500018272,0.0322,72.72062854,
0.03222,0.5117193495,0.03222,71.98976795,
0.03224,-1.680862415,0.03224,72.35519825,
0.03226,0.8771496437,0.03226,72.72062854,
0.03228,-0.584571533,0.03228,72.35519825,
0.0323,-0.2191412388,0.0323,71.98976795,
0.03232,1.608010232,0.03232,71.98976795,
0.03234,2.33887082,0.03234,72.72062854,
0.03236,1.973440526,0.03236,72.35519825,
0.03238,1.242579938,0.03238,72.72062854,
0.0324,-0.2191412388,0.0324,72.35519825,
0.03242,0.8771496437,0.03242,72.35519825,
0.03244,0.8771496437,0.03244,72.72062854,
0.03246,-0.2191412388,0.03246,72.35519825,
0.03248,-0.9500018272,0.03248,71.98976795,
0.0325,-0.584571533,0.0325,72.72062854,
0.03252,-1.315432121,0.03252,72.35519825,
0.03254,-0.9500018272,0.03254,72.35519825,
0.03256,-0.584571533,0.03256,73.08605883,
0.03258,-0.9500018272,0.03258,72.72062854,
0.0326,0.8771496437,0.0326,72.72062854,
0.03262,-0.584571533,0.03262,72.72062854,
0.03264,-0.584571533,0.03264,72.35519825,
0.03266,-1.680862415,0.03266,71.98976795,
0.03268,-1.680862415,0.03268,71.98976795,
0.0327,-3.508013886,0.0327,72.72062854,
0.03272,-3.873444181,0.03272,72.35519825,
0.03274,-2.411723004,0.03274,72.72062854,
0.03276,-2.411723004,0.03276,71.62433766,
0.03278,-1.315432121,0.03278,71.62433766,
0.0328,-0.584571533,0.0328,72.72062854,
0.03282,0.1462890554,0.03282,71.98976795,
0.03284,0.5117193495,0.03284,71.98976795,
0.03286,-0.584571533,0.03286,73.08605883,
0.03288,-1.315432121,0.03288,72.72062854,
0.0329,-1.315432121,0.0329,73.08605883,
0.03292,-2.411723004,0.03292,72.72062854,
0.03294,-0.9500018272,0.03294,72.72062854,
0.03296,-0.584571533,0.03296,71.25890736,
0.03298,-1.315432121,0.03298,71.98976795,
0.033,-0.584571533,0.033,71.98976795,
0.03302,0.5117193495,0.03302,72.72062854,
0.03304,-0.2191412388,0.03304,72.72062854,
0.03306,1.242579938,0.03306,71.98976795,
0.03308,1.608010232,0.03308,72.72062854,
0.0331,0.1462890554,0.0331,72.35519825,
0.03312,0.5117193495,0.03312,71.98976795,
0.03314,1.973440526,0.03314,72.35519825,
0.03316,-0.2191412388,0.03316,73.08605883,
0.03318,0.1462890554,0.03318,71.98976795,
0.0332,0.5117193495,0.0332,72.35519825,
0.03322,0.5117193495,0.03322,72.35519825,
0.03324,-0.584571533,0.03324,71.98976795,
0.03326,0.8771496437,0.03326,72.35519825,
0.03328,0.8771496437,0.03328,72.35519825,
0.0333,1.973440526,0.0333,71.62433766,
0.03332,0.5117193495,0.03332,72.35519825,
0.03334,2.33887082,0.03334,72.35519825,
0.03336,0.8771496437,0.03336,72.35519825,
0.03338,1.242579938,0.03338,71.98976795,
0.0334,0.8771496437,0.0334,71.98976795,
0.03342,-0.2191412388,0.03342,72.35519825,
0.03344,-0.584571533,0.03344,72.35519825,
0.03346,-0.2191412388,0.03346,72.35519825,
0.03348,-1.680862415,0.03348,71.62433766,
0.0335,0.1462890554,0.0335,71.98976795,
0.03352,-0.2191412388,0.03352,73.08605883,
0.03354,0.5117193495,0.03354,71.98976795,
0.03356,2.704301115,0.03356,72.35519825,
0.03358,0.5117193495,0.03358,72.35519825,
0.0336,-0.9500018272,0.0336,71.98976795,
0.03362,-0.2191412388,0.03362,71.98976795,
0.03364,-1.315432121,0.03364,72.72062854,
0.03366,-3.873444181,0.03366,71.98976795,
0.03368,-2.04629271,0.03368,73.08605883,
0.0337,-3.508013886,0.0337,72.72062854,
0.03372,-3.142583592,0.03372,70.89347707,
0.03374,-2.04629271,0.03374,71.98976795,
0.03376,-1.315432121,0.03376,71.62433766,
0.03378,0.5117193495,0.03378,71.62433766,
0.0338,0.8771496437,0.0338,71.62433766,
0.03382,-0.2191412388,0.03382,72.72062854,
0.03384,-0.2191412388,0.03384,71.98976795,
0.03386,-0.9500018272,0.03386,72.35519825,
0.03388,-0.9500018272,0.03388,72.35519825,
0.0339,-1.680862415,0.0339,71.98976795,
0.03392,-0.9500018272,0.03392,71.62433766,
0.03394,-0.9500018272,0.03394,72.72062854,
0.03396,-0.584571533,0.03396,71.62433766,
0.03398,0.1462890554,0.03398,72.35519825,
0.034,0.1462890554,0.034,71.98976795,
0.03402,0.1462890554,0.03402,71.98976795,
0.03404,0.8771496437,0.03404,71.98976795,
0.03406,1.242579938,0.03406,72.35519825,
0.03408,1.242579938,0.03408,71.62433766,
0.0341,1.242579938,0.0341,72.35519825,
0.03412,-0.2191412388,0.03412,72.72062854,
0.03414,-0.2191412388,0.03414,71.98976795,
0.03416,1.608010232,0.03416,72.35519825,
0.03418,1.242579938,0.03418,72.35519825,
0.0342,-0.2191412388,0.0342,71.98976795,
0.03422,0.5117193495,0.03422,72.35519825,
0.03424,0.8771496437,0.03424,72.35519825,
0.03426,0.8771496437,0.03426,71.62433766,
0.03428,2.33887082,0.03428,72.35519825,
0.0343,2.33887082,0.0343,72.35519825,
0.03432,1.242579938,0.03432,72.35519825,
0.03434,1.608010232,0.03434,72.35519825,
0.03436,1.242579938,0.03436,72.72062854,
0.03438,-0.2191412388,0.03438,71.98976795,
0.0344,0.5117193495,0.0344,72.35519825,
0.03442,-0.2191412388,0.03442,72.35519825,
0.03444,0.1462890554,0.03444,71.62433766,
0.03446,0.5117193495,0.03446,72.35519825,
0.03448,-0.2191412388,0.03448,72.35519825,
0.0345,-0.2191412388,0.0345,71.62433766,
0.03452,0.8771496437,0.03452,71.98976795,
0.03454,0.8771496437,0.03454,72.35519825,
0.03456,-0.584571533,0.03456,71.98976795,
0.03458,-0.2191412388,0.03458,71.98976795,
0.0346,0.1462890554,0.0346,71.62433766,
0.03462,-0.584571533,0.03462,72.72062854,
0.03464,-2.411723004,0.03464,72.72062854,
0.03466,-0.9500018272,0.03466,73.45148913,
0.03468,-4.969735063,0.03468,71.98976795,
0.0347,-3.508013886,0.0347,71.25890736,
0.03472,-2.411723004,0.03472,71.62433766,
0.03474,-0.584571533,0.03474,72.72062854,
0.03476,-1.680862415,0.03476,72.35519825,
0.03478,-0.9500018272,0.03478,72.72062854,
0.0348,-1.680862415,0.0348,73.08605883,
0.03482,-0.584571533,0.03482,72.72062854,
0.03484,-0.9500018272,0.03484,71.98976795,
0.03486,-1.680862415,0.03486,73.08605883,
0.03488,-1.680862415,0.03488,72.35519825,
0.0349,-1.315432121,0.0349,72.35519825,
0.03492,-0.2191412388,0.03492,73.45148913,
0.03494,-1.315432121,0.03494,71.98976795,
0.03496,-0.9500018272,0.03496,72.35519825,
0.03498,1.242579938,0.03498,72.72062854,
0.035,0.8771496437,0.035,72.35519825,
0.03502,0.5117193495,0.03502,72.35519825,
0.03504,1.973440526,0.03504,73.08605883,
0.03506,1.242579938,0.03506,72.35519825,
0.03508,0.1462890554,0.03508,72.35519825,
0.0351,0.1462890554,0.0351,72.72062854,
0.03512,0.5117193495,0.03512,72.72062854,
0.03514,0.5117193495,0.03514,72.35519825,
0.03516,0.5117193495,0.03516,72.72062854,
0.03518,0.5117193495,0.03518,72.35519825,
0.0352,-0.584571533,0.0352,72.35519825,
0.03522,0.8771496437,0.03522,72.72062854,
0.03524,0.1462890554,0.03524,72.35519825,
0.03526,1.973440526,0.03526,71.62433766,
0.03528,1.242579938,0.03528,72.72062854,
0.0353,0.8771496437,0.0353,72.35519825,
0.03532,0.5117193495,0.03532,71.98976795,
0.03534,1.242579938,0.03534,72.72062854,
0.03536,-0.584571533,0.03536,72.35519825,
0.03538,0.1462890554,0.03538,72.35519825,
0.0354,0.1462890554,0.0354,73.08605883,
0.03542,-0.584571533,0.03542,72.72062854,
0.03544,-0.584571533,0.03544,71.98976795,
0.03546,-0.2191412388,0.03546,72.72062854,
0.03548,-1.315432121,0.03548,72.35519825,
0.0355,-1.315432121,0.0355,71.98976795,
0.03552,0.5117193495,0.03552,73.08605883,
0.03554,-0.2191412388,0.03554,72.72062854,
0.03556,-0.584571533,0.03556,71.98976795,
0.03558,0.8771496437,0.03558,71.62433766,
0.0356,0.1462890554,0.0356,71.98976795,
0.03562,-2.411723004,0.03562,72.72062854,
0.03564,-2.04629271,0.03564,73.45148913,
0.03566,-3.508013886,0.03566,71.25890736,
0.03568,-3.142583592,0.03568,71.98976795,
0.0357,-2.04629271,0.0357,72.72062854,
0.03572,-2.777153298,0.03572,72.72062854,
0.03574,-1.315432121,0.03574,71.98976795,
0.03576,-0.9500018272,0.03576,72.72062854,
0.03578,-0.584571533,0.03578,72.35519825,
0.0358,-0.9500018272,0.0358,72.35519825,
0.03582,-1.680862415,0.03582,72.72062854,
0.03584,-2.04629271,0.03584,72.35519825,
0.03586,-1.315432121,0.03586,72.35519825,
0.03588,-0.584571533,0.03588,72.35519825,
0.0359,-1.315432121,0.0359,72.35519825,
0.03592,-1.315432121,0.03592,72.35519825,
0.03594,-0.2191412388,0.03594,73.08605883,
0.03596,0.5117193495,0.03596,71.98976795,
0.03598,0.5117193495,0.03598,71.98976795,
0.036,0.8771496437,0.036,72.72062854,
0.03602,0.1462890554,0.03602,72.35519825,
0.03604,0.5117193495,0.03604,71.98976795,
0.03606,0.1462890554,0.03606,72.35519825,
0.03608,1.242579938,0.03608,72.35519825,
0.0361,0.8771496437,0.0361,72.35519825,
0.03612,0.1462890554,0.03612,72.72062854,
0.03614,-0.2191412388,0.03614,72.35519825,
0.03616,-0.584571533,0.03616,72.35519825,
0.03618,0.8771496437,0.03618,72.72062854,
0.0362,-0.2191412388,0.0362,72.35519825,
0.03622,0.8771496437,0.03622,72.72062854,
0.03624,0.8771496437,0.03624,72.72062854,
0.03626,1.973440526,0.03626,72.35519825,
0.03628,1.608010232,0.03628,72.35519825,
0.0363,0.8771496437,0.0363,72.72062854,
0.03632,0.1462890554,0.03632,72.35519825,
0.03634,0.5117193495,0.03634,71.98976795,
0.03636,0.5117193495,0.03636,72.72062854,
0.03638,-0.2191412388,0.03638,72.35519825,
0.0364,-0.9500018272,0.0364,72.35519825,
0.03642,-0.9500018272,0.03642,73.08605883,
0.03644,-0.2191412388,0.03644,72.35519825,
0.03646,0.8771496437,0.03646,72.35519825,
0.03648,0.1462890554,0.03648,72.72062854,
0.0365,-0.2191412388,0.0365,71.62433766,
0.03652,0.5117193495,0.03652,72.35519825,
0.03654,-2.411723004,0.03654,73.45148913,
0.03656,-0.9500018272,0.03656,72.35519825,
0.03658,-2.411723004,0.03658,71.25890736,
0.0366,-2.777153298,0.0366,71.98976795,
0.03662,-3.873444181,0.03662,73.08605883,
0.03664,-3.142583592,0.03664,71.98976795,
0.03666,-3.142583592,0.03666,73.45148913,
0.03668,-3.508013886,0.03668,72.72062854,
0.0367,1.242579938,0.0367,72.72062854,
0.03672,-0.9500018272,0.03672,72.72062854,
0.03674,1.608010232,0.03674,72.72062854,
0.03676,-0.584571533,0.03676,73.08605883,
0.03678,-0.584571533,0.03678,72.72062854,
0.0368,-0.584571533,0.0368,72.35519825,
0.03682,-0.584571533,0.03682,72.72062854,
0.03684,-1.315432121,0.03684,72.35519825,
0.03686,-1.315432121,0.03686,72.72062854,
0.03688,-1.315432121,0.03688,72.72062854,
0.0369,-0.584571533,0.0369,72.72062854,
0.03692,-0.2191412388,0.03692,72.35519825,
0.03694,0.5117193495,0.03694,72.72062854,
0.03696,-0.2191412388,0.03696,73.08605883,
0.03698,0.8771496437,0.03698,72.35519825,
0.037,-0.2191412388,0.037,72.72062854,
0.03702,0.8771496437,0.03702,72.35519825,
0.03704,0.5117193495,0.03704,72.72062854,
0.03706,1.242579938,0.03706,72.72062854,
0.03708,-0.2191412388,0.03708,72.72062854,
0.0371,0.8771496437,0.0371,72.35519825,
0.03712,0.8771496437,0.03712,73.08605883,
0.03714,-0.9500018272,0.03714,72.72062854,
0.03716,0.1462890554,0.03716,72.72062854,
0.03718,0.8771496437,0.03718,73.08605883,
0.0372,0.8771496437,0.0372,72.72062854,
0.03722,2.33887082,0.03722,72.72062854,
0.03724,1.242579938,0.03724,72.72062854,
0.03726,1.242579938,0.03726,72.72062854,
0.03728,1.608010232,0.03728,72.35519825,
0.0373,1.242579938,0.0373,73.08605883,
0.03732,-0.584571533,0.03732,72.72062854,
0.03734,-0.584571533,0.03734,72.35519825,
0.03736,-0.2191412388,0.03736,72.35519825,
0.03738,-1.315432121,0.03738,72.72062854,
0.0374,-0.584571533,0.0374,72.35519825,
0.03742,-0.2191412388,0.03742,72.35519825,
0.03744,-0.2191412388,0.03744,72.72062854,
0.03746,-0.2191412388,0.03746,71.62433766,
0.03748,-0.9500018272,0.03748,71.98976795,
0.0375,0.5117193495,0.0375,72.35519825,
0.03752,0.5117193495,0.03752,72.35519825,
0.03754,-0.2191412388,0.03754,73.45148913,
0.03756,-4.238874475,0.03756,72.35519825,
0.03758,-0.9500018272,0.03758,71.62433766,
0.0376,-2.777153298,0.0376,73.45148913,
0.03762,-2.777153298,0.03762,72.35519825,
0.03764,-1.680862415,0.03764,71.25890736,
0.03766,-2.411723004,0.03766,72.35519825,
0.03768,-3.142583592,0.03768,72.35519825,
0.0377,-0.9500018272,0.0377,72.35519825,
0.03772,-1.315432121,0.03772,73.08605883,
0.03774,-2.04629271,0.03774,72.72062854,
0.03776,-1.315432121,0.03776,72.35519825,
0.03778,-0.9500018272,0.03778,71.62433766,
0.0378,-1.315432121,0.0378,71.98976795,
0.03782,-2.04629271,0.03782,72.72062854,
0.03784,-0.9500018272,0.03784,72.72062854,
0.03786,-0.584571533,0.03786,72.35519825,
0.03788,-0.584571533,0.03788,72.35519825,
0.0379,0.1462890554,0.0379,72.35519825,
0.03792,-0.2191412388,0.03792,72.72062854,
0.03794,0.5117193495,0.03794,72.72062854,
0.03796,-0.584571533,0.03796,72.35519825,
0.03798,1.242579938,0.03798,72.72062854,
0.038,1.242579938,0.038,72.35519825,
0.03802,-0.2191412388,0.03802,72.35519825,
0.03804,0.1462890554,0.03804,72.72062854,
0.03806,-0.2191412388,0.03806,72.35519825,
0.03808,0.1462890554,0.03808,72.35519825,
0.0381,0.1462890554,0.0381,73.08605883,
0.03812,-0.9500018272,0.03812,72.35519825,
0.03814,-0.2191412388,0.03814,71.98976795,
0.03816,-0.2191412388,0.03816,73.08605883,
0.03818,0.8771496437,0.03818,72.72062854,
0.0382,1.973440526,0.0382,72.35519825,
0.03822,1.608010232,0.03822,72.72062854,
0.03824,0.5117193495,0.03824,72.35519825,
0.03826,2.33887082,0.03826,72.35519825,
0.03828,0.5117193495,0.03828,72.72062854,
0.0383,0.1462890554,0.0383,71.98976795,
0.03832,-0.584571533,0.03832,72.72062854,
0.03834,-1.315432121,0.03834,72.72062854,
0.03836,-0.9500018272,0.03836,72.72062854,
0.03838,-0.2191412388,0.03838,72.35519825,
0.0384,0.8771496437,0.0384,72.72062854,
0.03842,0.5117193495,0.03842,72.35519825,
0.03844,0.1462890554,0.03844,72.35519825,
0.03846,-0.584571533,0.03846,72.35519825,
0.03848,0.5117193495,0.03848,72.35519825,
0.0385,0.5117193495,0.0385,72.72062854,
0.03852,0.5117193495,0.03852,71.62433766,
0.03854,-2.777153298,0.03854,71.62433766,
0.03856,-1.315432121,0.03856,72.72062854,
0.03858,0.8771496437,0.03858,72.35519825,
0.0386,-3.142583592,0.0386,72.72062854,
0.03862,-1.680862415,0.03862,73.08605883,
0.03864,-1.315432121,0.03864,71.25890736,
0.03866,-2.04629271,0.03866,72.35519825,
0.03868,-0.2191412388,0.03868,72.72062854,
0.0387,0.5117193495,0.0387,72.35519825,
0.03872,-0.2191412388,0.03872,72.35519825,
0.03874,0.5117193495,0.03874,71.98976795,
0.03876,-0.584571533,0.03876,72.72062854,
0.03878,-1.680862415,0.03878,71.62433766,
0.0388,-1.315432121,0.0388,72.35519825,
0.03882,-0.2191412388,0.03882,72.35519825,
0.03884,-2.04629271,0.03884,71.98976795,
0.03886,0.5117193495,0.03886,71.98976795,
0.03888,-0.584571533,0.03888,72.35519825,
0.0389,0.1462890554,0.0389,71.98976795,
0.03892,1.242579938,0.03892,72.72062854,
0.03894,0.5117193495,0.03894,71.98976795,
0.03896,0.8771496437,0.03896,71.62433766,
0.03898,1.242579938,0.03898,72.35519825,
0.039,1.608010232,0.039,72.35519825,
0.03902,1.242579938,0.03902,71.62433766,
0.03904,-0.2191412388,0.03904,72.35519825,
0.03906,0.1462890554,0.03906,72.35519825,
0.03908,-0.584571533,0.03908,72.35519825,
0.0391,-0.584571533,0.0391,71.98976795,
0.03912,1.242579938,0.03912,71.98976795,
0.03914,0.8771496437,0.03914,71.98976795,
0.03916,1.608010232,0.03916,72.35519825,
0.03918,1.608010232,0.03918,72.35519825,
0.0392,1.608010232,0.0392,71.62433766,
0.03922,1.973440526,0.03922,72.35519825,
0.03924,0.1462890554,0.03924,72.35519825,
0.03926,1.242579938,0.03926,71.98976795,
0.03928,0.1462890554,0.03928,72.35519825,
0.0393,0.5117193495,0.0393,72.35519825,
0.03932,-0.9500018272,0.03932,71.62433766,
0.03934,-1.315432121,0.03934,72.35519825,
0.03936,-0.9500018272,0.03936,72.35519825,
0.03938,-0.9500018272,0.03938,71.98976795,
0.0394,1.242579938,0.0394,71.98976795,
0.03942,0.8771496437,0.03942,72.35519825,
0.03944,-0.584571533,0.03944,72.35519825,
0.03946,-0.584571533,0.03946,72.35519825,
0.03948,-0.2191412388,0.03948,71.98976795,
0.0395,0.5117193495,0.0395,72.35519825,
0.03952,-1.315432121,0.03952,73.08605883,
0.03954,-3.508013886,0.03954,71.25890736,
0.03956,-3.142583592,0.03956,72.35519825,
0.03958,0.8771496437,0.03958,72.72062854,
0.0396,-3.142583592,0.0396,71.98976795,
0.03962,-2.04629271,0.03962,71.25890736,
0.03964,0.1462890554,0.03964,72.72062854,
0.03966,0.1462890554,0.03966,72.35519825,
0.03968,0.1462890554,0.03968,71.62433766,
0.0397,0.1462890554,0.0397,72.35519825,
0.03972,-1.315432121,0.03972,71.98976795,
0.03974,-1.315432121,0.03974,71.98976795,
0.03976,-1.680862415,0.03976,72.35519825,
0.03978,-1.315432121,0.03978,72.35519825,
0.0398,-2.04629271,0.0398,71.62433766,
0.03982,-1.315432121,0.03982,72.35519825,
0.03984,-1.315432121,0.03984,72.35519825,
0.03986,-0.584571533,0.03986,71.98976795,
0.03988,1.242579938,0.03988,71.98976795,
0.0399,1.608010232,0.0399,72.35519825,
0.03992,0.5117193495,0.03992,71.98976795,
0.03994,2.33887082,0.03994,71.98976795,
0.03996,1.242579938,0.03996,71.98976795,
0.03998,0.1462890554,0.03998,71.98976795,
0.04,0.1462890554,0.04,72.35519825,
0.04002,0.1462890554,0.04002,71.98976795,
0.04004,-0.2191412388,0.04004,71.98976795,
0.04006,-0.9500018272,0.04006,72.35519825,
0.04008,0.1462890554,0.04008,72.35519825,
0.0401,0.5117193495,0.0401,71.98976795,
0.04012,1.608010232,0.04012,72.72062854,
0.04014,1.608010232,0.04014,71.98976795,
0.04016,1.242579938,0.04016,71.62433766,
0.04018,1.608010232,0.04018,71.98976795,
0.0402,0.5117193495,0.0402,72.35519825,
0.04022,0.5117193495,0.04022,71.62433766,
0.04024,0.8771496437,0.04024,71.62433766,
0.04026,0.1462890554,0.04026,72.72062854,
0.04028,0.1462890554,0.04028,72.35519825,
0.0403,-0.2191412388,0.0403,72.35519825,
0.04032,-1.680862415,0.04032,72.35519825,
0.04034,-0.584571533,0.04034,71.62433766,
0.04036,0.1462890554,0.04036,72.35519825,
0.04038,0.5117193495,0.04038,72.72062854,
0.0404,1.242579938,0.0404,72.35519825,
0.04042,1.608010232,0.04042,73.08605883,
0.04044,0.1462890554,0.04044,72.35519825,
0.04046,-0.9500018272,0.04046,72.72062854,
0.04048,-0.2191412388,0.04048,72.72062854,
0.0405,1.608010232,0.0405,73.08605883,
0.04052,-4.604304769,0.04052,71.62433766,
0.04054,-2.411723004,0.04054,72.72062854,
0.04056,-3.508013886,0.04056,71.98976795,
0.04058,-2.411723004,0.04058,71.62433766,
0.0406,0.1462890554,0.0406,72.72062854,
0.04062,-0.2191412388,0.04062,71.98976795,
0.04064,-0.2191412388,0.04064,72.35519825,
0.04066,0.8771496437,0.04066,73.08605883,
0.04068,-0.584571533,0.04068,72.35519825,
0.0407,-0.584571533,0.0407,72.72062854,
0.04072,-1.315432121,0.04072,73.08605883,
0.04074,-2.04629271,0.04074,72.35519825,
0.04076,-2.04629271,0.04076,71.98976795,
0.04078,-0.584571533,0.04078,72.72062854,
0.0408,-1.315432121,0.0408,71.98976795,
0.04082,-0.584571533,0.04082,71.98976795,
0.04084,0.5117193495,0.04084,72.72062854,
0.04086,-0.2191412388,0.04086,72.72062854,
0.04088,0.8771496437,0.04088,71.98976795,
0.0409,0.8771496437,0.0409,72.72062854,
0.04092,-0.2191412388,0.04092,71.98976795,
0.04094,0.1462890554,0.04094,72.35519825,
0.04096,0.1462890554,0.04096,72.72062854,
0.04098,0.8771496437,0.04098,72.72062854,
0.041,-0.584571533,0.041,71.98976795,
0.04102,-0.2191412388,0.04102,72.72062854,
0.04104,-0.584571533,0.04104,72.35519825,
0.04106,-0.584571533,0.04106,71.98976795,
0.04108,0.5117193495,0.04108,73.08605883,
0.0411,0.8771496437,0.0411,71.98976795,
0.04112,0.1462890554,0.04112,71.98976795,
0.04114,1.973440526,0.04114,72.72062854,
0.04116,1.242579938,0.04116,71.98976795,
0.04118,0.8771496437,0.04118,72.35519825,
0.0412,0.5117193495,0.0412,73.08605883,
0.04122,0.5117193495,0.04122,72.35519825,
0.04124,-0.2191412388,0.04124,72.35519825,
0.04126,-0.2191412388,0.04126,72.72062854,
0.04128,-2.777153298,0.04128,71.98976795,
0.0413,-0.9500018272,0.0413,71.98976795,
0.04132,-0.2191412388,0.04132,72.35519825,
0.04134,-0.2191412388,0.04134,72.72062854,
0.04136,-0.584571533,0.04136,72.35519825,
0.04138,1.608010232,0.04138,73.45148913,
0.0414,-0.584571533,0.0414,72.35519825,
0.04142,-1.680862415,0.04142,71.98976795,
0.04144,-2.777153298,0.04144,71.62433766,
0.04146,-1.680862415,0.04146,72.72062854,
0.04148,-2.411723004,0.04148,70.89347707,
0.0415,-2.04629271,0.0415,73.08605883,
0.04152,-3.142583592,0.04152,72.35519825,
0.04154,-0.2191412388,0.04154,70.89347707,
0.04156,-2.777153298,0.04156,72.72062854,
0.04158,-2.411723004,0.04158,72.35519825,
0.0416,0.1462890554,0.0416,71.98976795,
0.04162,0.5117193495,0.04162,72.72062854,
0.04164,-1.315432121,0.04164,72.72062854,
0.04166,-1.680862415,0.04166,71.98976795,
0.04168,-1.315432121,0.04168,72.35519825,
0.0417,-2.04629271,0.0417,72.35519825,
0.04172,-1.315432121,0.04172,71.98976795,
0.04174,-1.315432121,0.04174,72.72062854,
0.04176,-2.411723004,0.04176,72.35519825,
0.04178,-0.584571533,0.04178,72.35519825,
0.0418,-0.584571533,0.0418,73.08605883,
0.04182,0.1462890554,0.04182,72.35519825,
0.04184,0.8771496437,0.04184,71.98976795,
0.04186,1.608010232,0.04186,72.35519825,
0.04188,0.5117193495,0.04188,71.98976795,
0.0419,0.5117193495,0.0419,71.98976795,
0.04192,0.5117193495,0.04192,72.72062854,
0.04194,-0.584571533,0.04194,72.72062854,
0.04196,0.1462890554,0.04196,71.98976795,
0.04198,0.8771496437,0.04198,72.35519825,
0.042,0.5117193495,0.042,71.98976795,
0.04202,-0.2191412388,0.04202,71.98976795,
0.04204,0.5117193495,0.04204,72.72062854,
0.04206,0.1462890554,0.04206,72.35519825,
0.04208,0.8771496437,0.04208,72.35519825,
0.0421,0.8771496437,0.0421,73.08605883,
0.04212,0.5117193495,0.04212,72.35519825,
0.04214,1.608010232,0.04214,71.98976795,
0.04216,0.8771496437,0.04216,73.08605883,
0.04218,0.5117193495,0.04218,71.98976795,
0.0422,0.1462890554,0.0422,71.98976795,
0.04222,0.5117193495,0.04222,72.35519825,
0.04224,-1.315432121,0.04224,72.72062854,
0.04226,-1.680862415,0.04226,72.35519825,
0.04228,-1.315432121,0.04228,72.72062854,
0.0423,-0.584571533,0.0423,72.72062854,
0.04232,0.5117193495,0.04232,72.35519825,
0.04234,-0.2191412388,0.04234,72.35519825,
0.04236,0.5117193495,0.04236,72.35519825,
0.04238,0.1462890554,0.04238,72.72062854,
0.0424,-2.04629271,0.0424,72.72062854,
0.04242,1.973440526,0.04242,73.08605883,
0.04244,-2.777153298,0.04244,73.45148913,
0.04246,-2.04629271,0.04246,71.62433766,
0.04248,-3.873444181,0.04248,71.98976795,
0.0425,-1.315432121,0.0425,73.45148913,
0.04252,-3.873444181,0.04252,72.35519825,
0.04254,-2.04629271,0.04254,73.08605883,
0.04256,-0.584571533,0.04256,72.35519825,
0.04258,-0.2191412388,0.04258,72.72062854,
0.0426,-0.2191412388,0.0426,72.35519825,
0.04262,0.8771496437,0.04262,72.35519825,
0.04264,-0.9500018272,0.04264,71.98976795,
0.04266,-0.584571533,0.04266,71.98976795,
0.04268,-1.315432121,0.04268,72.72062854,
0.0427,-2.04629271,0.0427,72.72062854,
0.04272,-1.680862415,0.04272,71.98976795,
0.04274,-0.584571533,0.04274,72.72062854,
0.04276,-2.04629271,0.04276,72.35519825,
0.04278,0.1462890554,0.04278,72.35519825,
0.0428,0.5117193495,0.0428,72.72062854,
0.04282,-0.2191412388,0.04282,72.35519825,
0.04284,1.973440526,0.04284,72.35519825,
0.04286,0.5117193495,0.04286,72.72062854,
0.04288,0.1462890554,0.04288,72.72062854,
0.0429,-0.2191412388,0.0429,73.08605883,
0.04292,0.5117193495,0.04292,72.72062854,
0.04294,0.5117193495,0.04294,72.72062854,
0.04296,0.1462890554,0.04296,72.35519825,
0.04298,0.8771496437,0.04298,72.35519825,
0.043,-0.584571533,0.043,72.72062854,
0.04302,1.242579938,0.04302,72.35519825,
0.04304,0.8771496437,0.04304,72.35519825,
0.04306,0.5117193495,0.04306,72.72062854,
0.04308,0.8771496437,0.04308,72.72062854,
0.0431,1.242579938,0.0431,71.98976795,
0.04312,1.973440526,0.04312,71.98976795,
0.04314,1.973440526,0.04314,72.35519825,
0.04316,0.5117193495,0.04316,73.08605883,
0.04318,0.8771496437,0.04318,73.08605883,
0.0432,-0.9500018272,0.0432,71.98976795,
0.04322,-0.584571533,0.04322,72.35519825,
0.04324,-0.9500018272,0.04324,72.35519825,
0.04326,-0.2191412388,0.04326,71.98976795,
0.04328,-0.2191412388,0.04328,72.35519825,
0.0433,-0.9500018272,0.0433,73.08605883,
0.04332,-0.584571533,0.04332,72.72062854,
0.04334,-0.2191412388,0.04334,71.98976795,
0.04336,-1.315432121,0.04336,72.72062854,
0.04338,-0.9500018272,0.04338,72.72062854,
0.0434,-1.680862415,0.0434,71.98976795,
0.04342,1.608010232,0.04342,73.08605883,
0.04344,-3.873444181,0.04344,71.25890736,
0.04346,-1.680862415,0.04346,72.35519825,
0.04348,-2.777153298,0.04348,72.72062854,
0.0435,-3.142583592,0.0435,72.35519825,
0.04352,-2.04629271,0.04352,72.72062854,
0.04354,-1.680862415,0.04354,72.35519825,
0.04356,-1.680862415,0.04356,73.08605883,
0.04358,-2.411723004,0.04358,71.98976795,
0.0436,-0.2191412388,0.0436,72.72062854,
0.04362,-0.584571533,0.04362,72.35519825,
0.04364,-0.2191412388,0.04364,71.98976795,
0.04366,-0.584571533,0.04366,72.35519825,
0.04368,-2.04629271,0.04368,72.35519825,
0.0437,-2.777153298,0.0437,72.35519825,
0.04372,-0.9500018272,0.04372,73.08605883,
0.04374,-0.584571533,0.04374,71.98976795,
0.04376,-0.2191412388,0.04376,71.98976795,
0.04378,1.608010232,0.04378,72.72062854,
0.0438,-0.2191412388,0.0438,71.98976795,
0.04382,-0.584571533,0.04382,72.35519825,
0.04384,0.1462890554,0.04384,72.35519825,
0.04386,0.5117193495,0.04386,72.35519825,
0.04388,-0.2191412388,0.04388,71.98976795,
0.0439,0.5117193495,0.0439,73.08605883,
0.04392,0.1462890554,0.04392,72.35519825,
0.04394,0.5117193495,0.04394,71.62433766,
0.04396,-0.2191412388,0.04396,72.72062854,
0.04398,-0.9500018272,0.04398,72.35519825,
0.044,0.1462890554,0.044,71.98976795,
0.04402,1.608010232,0.04402,72.72062854,
0.04404,0.5117193495,0.04404,71.98976795,
0.04406,0.8771496437,0.04406,72.35519825,
0.04408,1.608010232,0.04408,72.72062854,
0.0441,-0.2191412388,0.0441,71.98976795,
0.04412,0.8771496437,0.04412,71.98976795,
0.04414,0.5117193495,0.04414,72.72062854,
0.04416,-0.584571533,0.04416,72.35519825,
0.04418,-0.9500018272,0.04418,71.62433766,
0.0442,-0.2191412388,0.0442,73.08605883,
0.04422,-1.680862415,0.04422,71.98976795,
0.04424,-0.2191412388,0.04424,71.98976795,
0.04426,-0.584571533,0.04426,72.35519825,
0.04428,-0.584571533,0.04428,72.72062854,
0.0443,0.1462890554,0.0443,72.35519825,
0.04432,2.33887082,0.04432,73.08605883,
0.04434,-1.315432121,0.04434,72.72062854,
0.04436,-2.04629271,0.04436,72.35519825,
0.04438,0.8771496437,0.04438,72.35519825,
0.0444,-2.04629271,0.0444,73.08605883,
0.04442,-2.04629271,0.04442,73.08605883,
0.04444,-0.2191412388,0.04444,71.62433766,
0.04446,-2.777153298,0.04446,72.35519825,
0.04448,-2.411723004,0.04448,72.35519825,
0.0445,-0.584571533,0.0445,71.62433766,
0.04452,0.5117193495,0.04452,72.35519825,
0.04454,-0.2191412388,0.04454,71.62433766,
0.04456,-0.584571533,0.04456,73.08605883,
0.04458,-0.2191412388,0.04458,72.72062854,
0.0446,-0.9500018272,0.0446,71.98976795,
0.04462,-0.2191412388,0.04462,72.72062854,
0.04464,-2.04629271,0.04464,71.98976795,
0.04466,-2.04629271,0.04466,71.98976795,
0.04468,-0.9500018272,0.04468,72.35519825,
0.0447,-0.9500018272,0.0447,71.98976795,
0.04472,-0.9500018272,0.04472,71.62433766,
0.04474,0.1462890554,0.04474,72.72062854,
0.04476,0.8771496437,0.04476,72.35519825,
0.04478,0.1462890554,0.04478,71.98976795,
0.0448,0.5117193495,0.0448,72.72062854,
0.04482,1.242579938,0.04482,71.98976795,
0.04484,0.8771496437,0.04484,71.98976795,
0.04486,1.242579938,0.04486,72.72062854,
0.04488,-0.584571533,0.04488,71.98976795,
0.0449,-0.584571533,0.0449,72.35519825,
0.04492,0.8771496437,0.04492,72.35519825,
0.04494,0.1462890554,0.04494,71.98976795,
0.04496,0.1462890554,0.04496,71.98976795,
0.04498,-0.2191412388,0.04498,72.72062854,
0.045,-0.2191412388,0.045,72.35519825,
0.04502,0.5117193495,0.04502,71.98976795,
0.04504,1.242579938,0.04504,72.72062854,
0.04506,1.608010232,0.04506,71.98976795,
0.04508,1.242579938,0.04508,71.98976795,
0.0451,1.242579938,0.0451,72.35519825,
0.04512,0.5117193495,0.04512,72.35519825,
0.04514,0.1462890554,0.04514,72.35519825,
0.04516,-0.9500018272,0.04516,72.35519825,
0.04518,-0.2191412388,0.04518,73.08605883,
0.0452,-0.2191412388,0.0452,71.98976795,
0.04522,-0.9500018272,0.04522,72.72062854,
0.04524,-0.9500018272,0.04524,73.08605883,
0.04526,-0.2191412388,0.04526,72.35519825,
0.04528,0.8771496437,0.04528,72.72062854,
0.0453,0.5117193495,0.0453,71.98976795,
0.04532,-0.2191412388,0.04532,72.72062854,
0.04534,-0.9500018272,0.04534,73.08605883,
0.04536,0.1462890554,0.04536,72.35519825,
0.04538,-0.2191412388,0.04538,73.45148913,
0.0454,-0.584571533,0.0454,71.25890736,
0.04542,-1.680862415,0.04542,73.08605883,
0.04544,-2.04629271,0.04544,72.72062854,
0.04546,0.1462890554,0.04546,72.72062854,
0.04548,-2.777153298,0.04548,72.35519825,
0.0455,0.1462890554,0.0455,72.35519825,
0.04552,-0.2191412388,0.04552,71.98976795,
0.04554,0.1462890554,0.04554,72.35519825,
0.04556,0.5117193495,0.04556,72.35519825,
0.04558,-0.9500018272,0.04558,72.35519825,
0.0456,-1.680862415,0.0456,71.98976795,
0.04562,-1.315432121,0.04562,71.62433766,
0.04564,-0.584571533,0.04564,72.35519825,
0.04566,-2.04629271,0.04566,72.72062854,
0.04568,-0.9500018272,0.04568,71.98976795,
0.0457,-0.584571533,0.0457,72.72062854,
0.04572,-0.2191412388,0.04572,72.72062854,
0.04574,0.5117193495,0.04574,72.35519825,
0.04576,1.242579938,0.04576,72.35519825,
0.04578,0.1462890554,0.04578,72.72062854,
0.0458,0.5117193495,0.0458,72.35519825,
0.04582,1.242579938,0.04582,72.72062854,
0.04584,-0.2191412388,0.04584,72.72062854,
0.04586,1.242579938,0.04586,72.35519825,
0.04588,0.8771496437,0.04588,73.08605883,
0.0459,0.1462890554,0.0459,72.35519825,
0.04592,0.1462890554,0.04592,72.35519825,
0.04594,0.5117193495,0.04594,72.72062854,
0.04596,-0.9500018272,0.04596,72.35519825,
0.04598,0.8771496437,0.04598,71.98976795,
0.046,1.608010232,0.046,72.35519825,
0.04602,1.608010232,0.04602,71.98976795,
0.04604,1.608010232,0.04604,72.35519825,
0.04606,1.608010232,0.04606,72.35519825,
0.04608,1.242579938,0.04608,72.35519825,
0.0461,0.8771496437,0.0461,72.35519825,
0.04612,1.242579938,0.04612,73.08605883,
0.04614,-0.2191412388,0.04614,72.35519825,
0.04616,-1.680862415,0.04616,72.35519825,
0.04618,-0.9500018272,0.04618,72.35519825,
0.0462,0.5117193495,0.0462,72.35519825,
0.04622,-0.584571533,0.04622,72.35519825,
0.04624,-0.2191412388,0.04624,72.72062854,
0.04626,0.5117193495,0.04626,72.35519825,
0.04628,-0.584571533,0.04628,72.35519825,
0.0463,1.973440526,0.0463,71.98976795,
0.04632,-0.584571533,0.04632,71.98976795,
0.04634,0.8771496437,0.04634,72.72062854,
0.04636,0.1462890554,0.04636,71.98976795,
0.04638,-4.238874475,0.04638,72.35519825,
0.0464,-0.584571533,0.0464,71.98976795,
0.04642,-2.04629271,0.04642,71.62433766,
0.04644,-3.508013886,0.04644,72.72062854,
0.04646,0.5117193495,0.04646,72.35519825,
0.04648,-0.2191412388,0.04648,72.35519825,
0.0465,-0.584571533,0.0465,72.72062854,
0.04652,0.1462890554,0.04652,72.72062854,
0.04654,-0.584571533,0.04654,72.72062854,
0.04656,-0.9500018272,0.04656,71.98976795,
0.04658,-0.9500018272,0.04658,71.98976795,
0.0466,-0.9500018272,0.0466,72.72062854,
0.04662,-2.411723004,0.04662,72.72062854,
0.04664,-1.680862415,0.04664,72.35519825,
0.04666,-0.2191412388,0.04666,72.72062854,
0.04668,-1.680862415,0.04668,72.72062854,
0.0467,0.5117193495,0.0467,71.98976795,
0.04672,-0.2191412388,0.04672,72.72062854,
0.04674,0.5117193495,0.04674,72.35519825,
0.04676,0.8771496437,0.04676,72.35519825,
0.04678,0.5117193495,0.04678,72.72062854,
0.0468,-0.2191412388,0.0468,72.35519825,
0.04682,1.242579938,0.04682,72.35519825,
0.04684,0.5117193495,0.04684,72.72062854,
0.04686,0.1462890554,0.04686,72.35519825,
0.04688,0.5117193495,0.04688,72.35519825,
0.0469,0.1462890554,0.0469,72.72062854,
0.04692,-0.9500018272,0.04692,72.72062854,
0.04694,0.5117193495,0.04694,72.35519825,
0.04696,0.5117193495,0.04696,72.72062854,
0.04698,0.8771496437,0.04698,72.35519825,
0.047,1.608010232,0.047,72.35519825,
0.04702,0.5117193495,0.04702,72.72062854,
0.04704,1.242579938,0.04704,72.35519825,
0.04706,1.242579938,0.04706,72.72062854,
0.04708,0.1462890554,0.04708,72.35519825,
0.0471,0.5117193495,0.0471,72.35519825,
0.04712,-0.584571533,0.04712,72.35519825,
0.04714,-0.584571533,0.04714,71.98976795,
0.04716,-0.2191412388,0.04716,72.35519825,
0.04718,-0.9500018272,0.04718,72.35519825,
0.0472,-0.2191412388,0.0472,71.98976795,
0.04722,1.973440526,0.04722,72.72062854,
0.04724,0.8771496437,0.04724,72.35519825,
0.04726,1.973440526,0.04726,71.62433766,
0.04728,-0.2191412388,0.04728,71.62433766,
0.0473,-1.315432121,0.0473,73.08605883,
0.04732,-2.777153298,0.04732,71.62433766,
0.04734,-2.04629271,0.04734,71.62433766,
0.04736,-3.508013886,0.04736,71.25890736,
0.04738,-3.873444181,0.04738,71.62433766,
0.0474,-3.142583592,0.0474,71.62433766,
0.04742,-2.411723004,0.04742,71.62433766,
0.04744,-1.315432121,0.04744,71.98976795,
0.04746,-0.9500018272,0.04746,71.98976795,
0.04748,-0.584571533,0.04748,72.35519825,
0.0475,-2.04629271,0.0475,71.62433766,
0.04752,-0.2191412388,0.04752,72.72062854,
0.04754,0.8771496437,0.04754,72.72062854,
0.04756,-0.9500018272,0.04756,71.98976795,
0.04758,-1.315432121,0.04758,72.35519825,
0.0476,-1.315432121,0.0476,72.35519825,
0.04762,-1.315432121,0.04762,71.98976795,
0.04764,-0.584571533,0.04764,72.35519825,
0.04766,-0.2191412388,0.04766,72.72062854,
0.04768,-0.9500018272,0.04768,71.98976795,
0.0477,1.242579938,0.0477,72.35519825,
0.04772,0.8771496437,0.04772,72.35519825,
0.04774,1.242579938,0.04774,71.62433766,
0.04776,0.5117193495,0.04776,72.35519825,
0.04778,1.242579938,0.04778,71.98976795,
0.0478,0.5117193495,0.0478,71.62433766,
0.04782,0.5117193495,0.04782,72.35519825,
0.04784,-0.2191412388,0.04784,72.35519825,
0.04786,0.1462890554,0.04786,71.62433766,
0.04788,0.1462890554,0.04788,72.35519825,
0.0479,-0.584571533,0.0479,72.35519825,
0.04792,-0.2191412388,0.04792,72.35519825,
0.04794,1.608010232,0.04794,71.98976795,
0.04796,1.242579938,0.04796,72.35519825,
0.04798,0.8771496437,0.04798,71.62433766,
0.048,1.608010232,0.048,72.35519825,
0.04802,0.5117193495,0.04802,72.35519825,
0.04804,0.1462890554,0.04804,71.98976795,
0.04806,0.1462890554,0.04806,72.72062854,
0.04808,-0.584571533,0.04808,72.35519825,
0.0481,-0.584571533,0.0481,71.98976795,
0.04812,-1.680862415,0.04812,72.72062854,
0.04814,-0.584571533,0.04814,72.35519825,
0.04816,-0.584571533,0.04816,72.72062854,
0.04818,-0.584571533,0.04818,72.35519825,
0.0482,0.5117193495,0.0482,72.35519825,
0.04822,2.704301115,0.04822,72.35519825,
0.04824,-0.584571533,0.04824,72.35519825,
0.04826,-1.315432121,0.04826,72.35519825,
0.04828,0.5117193495,0.04828,72.35519825,
0.0483,-0.584571533,0.0483,72.72062854,
0.04832,-1.680862415,0.04832,72.72062854,
0.04834,-4.238874475,0.04834,73.45148913,
0.04836,-2.411723004,0.04836,71.62433766,
0.04838,0.1462890554,0.04838,71.62433766,
0.0484,-1.680862415,0.0484,72.72062854,
0.04842,-2.04629271,0.04842,72.35519825,
0.04844,-0.584571533,0.04844,71.62433766,
0.04846,-0.2191412388,0.04846,72.72062854,
0.04848,-0.2191412388,0.04848,72.72062854,
0.0485,-0.9500018272,0.0485,72.35519825,
0.04852,-1.315432121,0.04852,72.35519825,
0.04854,-0.584571533,0.04854,72.72062854,
0.04856,-0.9500018272,0.04856,71.98976795,
0.04858,-0.584571533,0.04858,72.35519825,
0.0486,-2.04629271,0.0486,72.72062854,
0.04862,-1.680862415,0.04862,72.35519825,
0.04864,-0.584571533,0.04864,72.35519825,
0.04866,-0.2191412388,0.04866,72.35519825,
0.04868,1.242579938,0.04868,71.98976795,
0.0487,0.1462890554,0.0487,72.35519825,
0.04872,0.1462890554,0.04872,72.35519825,
0.04874,1.608010232,0.04874,72.35519825,
0.04876,0.5117193495,0.04876,73.08605883,
0.04878,0.1462890554,0.04878,72.35519825,
0.0488,0.1462890554,0.0488,72.35519825,
0.04882,-0.2191412388,0.04882,72.72062854,
0.04884,-0.2191412388,0.04884,72.72062854,
0.04886,1.608010232,0.04886,72.35519825,
0.04888,-0.584571533,0.04888,73.08605883,
0.0489,0.5117193495,0.0489,72.35519825,
0.04892,1.608010232,0.04892,72.35519825,
0.04894,1.608010232,0.04894,73.08605883,
0.04896,0.5117193495,0.04896,72.35519825,
0.04898,0.5117193495,0.04898,72.35519825,
0.049,0.8771496437,0.049,73.08605883,
0.04902,0.5117193495,0.04902,72.35519825,
0.04904,0.5117193495,0.04904,72.35519825,
0.04906,0.5117193495,0.04906,72.72062854,
0.04908,-0.584571533,0.04908,72.72062854,
0.0491,-0.2191412388,0.0491,72.35519825,
0.04912,-1.315432121,0.04912,72.35519825,
0.04914,-0.2191412388,0.04914,72.35519825,
0.04916,0.8771496437,0.04916,72.35519825,
0.04918,1.973440526,0.04918,72.35519825,
0.0492,1.608010232,0.0492,72.35519825,
0.04922,-0.2191412388,0.04922,73.08605883,
0.04924,-0.584571533,0.04924,73.45148913,
0.04926,-0.2191412388,0.04926,71.98976795,
0.04928,-0.9500018272,0.04928,73.08605883,
0.0493,-2.777153298,0.0493,72.72062854,
0.04932,-3.873444181,0.04932,72.35519825,
0.04934,-1.315432121,0.04934,70.89347707,
0.04936,-2.04629271,0.04936,73.08605883,
0.04938,0.1462890554,0.04938,72.35519825,
0.0494,0.8771496437,0.0494,71.25890736,
0.04942,1.242579938,0.04942,72.72062854,
0.04944,-1.315432121,0.04944,72.35519825,
0.04946,-0.2191412388,0.04946,71.98976795,
0.04948,-1.315432121,0.04948,72.72062854,
0.0495,-0.584571533,0.0495,72.35519825,
0.04952,-1.315432121,0.04952,71.98976795,
0.04954,-1.315432121,0.04954,72.72062854,
0.04956,-2.411723004,0.04956,72.72062854,
0.04958,-0.584571533,0.04958,71.98976795,
0.0496,-0.584571533,0.0496,72.72062854,
0.04962,-0.9500018272,0.04962,72.35519825,
0.04964,-0.2191412388,0.04964,72.35519825,
0.04966,0.8771496437,0.04966,72.72062854,
0.04968,1.242579938,0.04968,72.72062854,
0.0497,1.608010232,0.0497,72.35519825,
0.04972,0.5117193495,0.04972,73.08605883,
0.04974,0.1462890554,0.04974,72.35519825,
0.04976,0.1462890554,0.04976,72.35519825,
0.04978,1.242579938,0.04978,72.35519825,
0.0498,-0.584571533,0.0498,72.35519825,
0.04982,0.1462890554,0.04982,72.35519825,
0.04984,-0.2191412388,0.04984,72.35519825,
0.04986,0.5117193495,0.04986,72.35519825,
0.04988,-0.584571533,0.04988,72.35519825,
0.0499,0.5117193495,0.0499,72.72062854,
0.04992,1.242579938,0.04992,71.98976795,
0.04994,2.33887082,0.04994,72.35519825,
0.04996,1.608010232,0.04996,71.98976795,
0.04998,-0.584571533,0.04998,72.35519825,
0.05,0.8771496437,0.05,71.98976795,
0.05002,0.1462890554,0.05002,71.98976795,
0.05004,0.5117193495,0.05004,71.62433766,
0.05006,1.242579938,0.05006,72.35519825,
0.05008,-0.584571533,0.05008,71.98976795,
0.0501,-0.584571533,0.0501,71.98976795,
0.05012,0.5117193495,0.05012,71.98976795,
0.05014,0.8771496437,0.05014,71.98976795,
0.05016,1.242579938,0.05016,71.62433766,
0.05018,0.1462890554,0.05018,72.72062854,
0.0502,1.973440526,0.0502,72.35519825,
0.05022,-2.04629271,0.05022,71.98976795,
0.05024,-0.2191412388,0.05024,73.08605883,
0.05026,-0.2191412388,0.05026,72.72062854,
0.05028,-2.777153298,0.05028,71.62433766,
0.0503,-1.680862415,0.0503,71.98976795,
0.05032,-3.508013886,0.05032,70.89347707,
0.05034,-2.777153298,0.05034,71.62433766,
0.05036,-2.777153298,0.05036,71.62433766,
0.05038,0.1462890554,0.05038,72.72062854,
0.0504,-0.2191412388,0.0504,71.62433766,
0.05042,-1.315432121,0.05042,71.98976795,
0.05044,0.5117193495,0.05044,72.35519825,
0.05046,-1.315432121,0.05046,71.62433766,
0.05048,-0.9500018272,0.05048,72.72062854,
0.0505,-0.584571533,0.0505,71.98976795,
0.05052,-1.315432121,0.05052,71.62433766,
0.05054,-0.9500018272,0.05054,72.35519825,
0.05056,-2.04629271,0.05056,72.35519825,
0.05058,-1.315432121,0.05058,71.62433766,
0.0506,0.5117193495,0.0506,72.72062854,
0.05062,0.8771496437,0.05062,71.98976795,
0.05064,0.1462890554,0.05064,71.98976795,
0.05066,1.242579938,0.05066,72.35519825,
0.05068,0.1462890554,0.05068,72.35519825,
0.0507,0.5117193495,0.0507,71.98976795,
0.05072,0.5117193495,0.05072,72.35519825,
0.05074,0.5117193495,0.05074,72.72062854,
0.05076,0.1462890554,0.05076,71.98976795,
0.05078,0.8771496437,0.05078,71.98976795,
0.0508,0.1462890554,0.0508,71.98976795,
0.05082,-0.2191412388,0.05082,71.62433766,
0.05084,0.8771496437,0.05084,72.35519825,
0.05086,0.5117193495,0.05086,72.72062854,
0.05088,0.8771496437,0.05088,71.98976795,
0.0509,2.33887082,0.0509,72.72062854,
0.05092,0.8771496437,0.05092,72.72062854,
0.05094,1.973440526,0.05094,71.98976795,
0.05096,0.8771496437,0.05096,71.98976795,
0.05098,0.1462890554,0.05098,72.72062854,
0.051,0.1462890554,0.051,72.35519825,
0.05102,0.1462890554,0.05102,72.35519825,
0.05104,-0.584571533,0.05104,72.35519825,
0.05106,-0.584571533,0.05106,71.62433766,
0.05108,-1.315432121,0.05108,71.98976795,
0.0511,0.1462890554,0.0511,71.98976795,
0.05112,-0.584571533,0.05112,71.98976795,
0.05114,1.973440526,0.05114,72.35519825,
0.05116,0.8771496437,0.05116,72.72062854,
0.05118,-0.9500018272,0.05118,71.98976795,
0.0512,2.33887082,0.0512,71.25890736,
0.05122,-0.2191412388,0.05122,72.72062854,
0.05124,-0.9500018272,0.05124,70.89347707,
0.05126,-1.680862415,0.05126,71.25890736,
0.05128,-0.9500018272,0.05128,71.98976795,
0.0513,-2.777153298,0.0513,71.25890736,
0.05132,-2.777153298,0.05132,71.25890736,
0.05134,1.242579938,0.05134,73.08605883,
0.05136,-0.2191412388,0.05136,71.25890736,
0.05138,0.5117193495,0.05138,71.62433766,
0.0514,0.1462890554,0.0514,72.35519825,
0.05142,-1.315432121,0.05142,71.98976795,
0.05144,0.5117193495,0.05144,72.35519825,
0.05146,-1.315432121,0.05146,72.35519825,
0.05148,-1.680862415,0.05148,71.62433766,
0.0515,-0.584571533,0.0515,72.35519825,
0.05152,-0.584571533,0.05152,72.35519825,
0.05154,-1.680862415,0.05154,71.25890736,
0.05156,0.1462890554,0.05156,72.35519825,
0.05158,0.1462890554,0.05158,72.35519825,
0.0516,-0.2191412388,0.0516,71.98976795,
0.05162,0.5117193495,0.05162,72.72062854,
0.05164,0.8771496437,0.05164,71.98976795,
0.05166,1.242579938,0.05166,71.98976795,
0.05168,0.5117193495,0.05168,71.98976795,
0.0517,-0.2191412388,0.0517,72.35519825,
0.05172,-0.9500018272,0.05172,71.62433766,
0.05174,1.242579938,0.05174,72.35519825,
0.05176,0.1462890554,0.05176,72.72062854,
0.05178,0.5117193495,0.05178,71.62433766,
0.0518,0.5117193495,0.0518,72.35519825,
0.05182,0.1462890554,0.05182,71.98976795,
0.05184,0.8771496437,0.05184,71.98976795,
0.05186,0.5117193495,0.05186,71.98976795,
0.05188,0.1462890554,0.05188,71.98976795,
0.0519,1.608010232,0.0519,72.72062854,
0.05192,0.8771496437,0.05192,72.35519825,
0.05194,0.5117193495,0.05194,72.35519825,
0.05196,-0.2191412388,0.05196,72.72062854,
0.05198,0.1462890554,0.05198,72.35519825,
0.052,-0.2191412388,0.052,72.35519825,
0.05202,-0.9500018272,0.05202,72.72062854,
0.05204,-0.2191412388,0.05204,72.35519825,
0.05206,-0.9500018272,0.05206,72.35519825,
0.05208,0.8771496437,0.05208,72.72062854,
0.0521,0.5117193495,0.0521,71.98976795,
0.05212,0.5117193495,0.05212,71.62433766,
0.05214,-0.9500018272,0.05214,71.98976795,
0.05216,-0.2191412388,0.05216,72.72062854,
0.05218,-1.315432121,0.05218,72.35519825,
0.0522,-2.411723004,0.0522,72.35519825,
0.05222,-3.508013886,0.05222,72.35519825,
0.05224,-4.238874475,0.05224,71.62433766,
0.05226,-3.508013886,0.05226,71.98976795,
0.05228,-2.04629271,0.05228,73.08605883,
0.0523,-2.777153298,0.0523,71.62433766,
0.05232,-2.04629271,0.05232,72.72062854,
0.05234,-2.04629271,0.05234,72.35519825,
0.05236,-2.411723004,0.05236,72.35519825,
0.05238,0.5117193495,0.05238,73.45148913,
0.0524,-1.315432121,0.0524,71.98976795,
0.05242,-0.584571533,0.05242,71.98976795,
0.05244,-0.584571533,0.05244,72.72062854,
0.05246,-0.9500018272,0.05246,72.72062854,
0.05248,-2.04629271,0.05248,72.35519825,
0.0525,-2.04629271,0.0525,72.72062854,
0.05252,-1.680862415,0.05252,72.35519825,
0.05254,0.1462890554,0.05254,71.98976795,
0.05256,0.1462890554,0.05256,72.35519825,
0.05258,-0.9500018272,0.05258,71.98976795,
0.0526,0.5117193495,0.0526,72.35519825,
0.05262,-0.2191412388,0.05262,72.72062854,
0.05264,-0.584571533,0.05264,72.35519825,
0.05266,0.1462890554,0.05266,72.35519825,
0.05268,0.1462890554,0.05268,72.35519825,
0.0527,-0.2191412388,0.0527,72.35519825,
0.05272,-0.2191412388,0.05272,71.98976795,
0.05274,0.5117193495,0.05274,72.72062854,
0.05276,-0.584571533,0.05276,72.35519825,
0.05278,-0.584571533,0.05278,72.35519825,
0.0528,0.8771496437,0.0528,72.72062854,
0.05282,0.5117193495,0.05282,72.35519825,
0.05284,0.5117193495,0.05284,72.35519825,
0.05286,1.608010232,0.05286,73.08605883,
0.05288,-0.584571533,0.05288,71.98976795,
0.0529,1.242579938,0.0529,71.98976795,
0.05292,0.1462890554,0.05292,72.35519825,
0.05294,0.5117193495,0.05294,72.35519825,
0.05296,0.1462890554,0.05296,71.98976795,
0.05298,-0.2191412388,0.05298,72.72062854,
0.053,-2.04629271,0.053,71.98976795,
0.05302,-0.584571533,0.05302,72.35519825,
0.05304,-0.9500018272,0.05304,72.72062854,
0.05306,-1.315432121,0.05306,72.35519825,
0.05308,0.1462890554,0.05308,72.35519825,
0.0531,0.5117193495,0.0531,72.35519825,
0.05312,1.608010232,0.05312,72.35519825,
0.05314,-0.2191412388,0.05314,71.98976795,
0.05316,-1.680862415,0.05316,71.25890736,
0.05318,-0.9500018272,0.05318,71.98976795,
0.0532,-0.584571533,0.0532,73.08605883,
0.05322,-3.508013886,0.05322,72.72062854,
0.05324,0.8771496437,0.05324,72.35519825,
0.05326,-0.2191412388,0.05326,72.72062854,
0.05328,-2.411723004,0.05328,71.98976795,
0.0533,-0.2191412388,0.0533,72.72062854,
0.05332,-0.584571533,0.05332,72.35519825,
0.05334,0.1462890554,0.05334,72.72062854,
0.05336,-0.9500018272,0.05336,72.72062854,
0.05338,0.8771496437,0.05338,72.35519825,
0.0534,0.1462890554,0.0534,72.35519825,
0.05342,-2.04629271,0.05342,72.35519825,
0.05344,-1.680862415,0.05344,72.35519825,
0.05346,-0.9500018272,0.05346,72.72062854,
0.05348,-0.9500018272,0.05348,72.72062854,
0.0535,-1.315432121,0.0535,72.35519825,
0.05352,-0.2191412388,0.05352,72.35519825,
0.05354,-0.584571533,0.05354,72.35519825,
0.05356,0.1462890554,0.05356,72.72062854,
0.05358,0.8771496437,0.05358,73.08605883,
0.0536,-0.584571533,0.0536,72.35519825,
0.05362,0.5117193495,0.05362,72.35519825,
0.05364,0.1462890554,0.05364,72.72062854,
0.05366,-0.9500018272,0.05366,72.35519825,
0.05368,-0.584571533,0.05368,71.98976795,
0.0537,0.5117193495,0.0537,72.72062854,
0.05372,-0.2191412388,0.05372,72.35519825,
0.05374,0.5117193495,0.05374,72.72062854,
0.05376,0.5117193495,0.05376,72.35519825,
0.05378,0.1462890554,0.05378,72.72062854,
0.0538,0.8771496437,0.0538,72.35519825,
0.05382,0.5117193495,0.05382,72.72062854,
0.05384,3.435161703,0.05384,72.35519825,
0.05386,1.973440526,0.05386,72.72062854,
0.05388,1.973440526,0.05388,72.72062854,
0.0539,1.608010232,0.0539,71.98976795,
0.05392,0.8771496437,0.05392,72.35519825,
0.05394,0.1462890554,0.05394,72.72062854,
0.05396,-0.584571533,0.05396,72.35519825,
0.05398,0.1462890554,0.05398,71.98976795,
0.054,0.1462890554,0.054,72.35519825,
0.05402,0.5117193495,0.05402,72.72062854,
0.05404,0.5117193495,0.05404,71.98976795,
0.05406,1.608010232,0.05406,72.35519825,
0.05408,0.8771496437,0.05408,72.35519825,
0.0541,-0.2191412388,0.0541,71.62433766,
0.05412,0.1462890554,0.05412,72.72062854,
0.05414,-0.584571533,0.05414,71.98976795,
0.05416,1.242579938,0.05416,71.25890736,
0.05418,-3.142583592,0.05418,73.08605883,
0.0542,0.8771496437,0.0542,71.98976795,
0.05422,-3.873444181,0.05422,73.08605883,
0.05424,-3.142583592,0.05424,72.35519825,
0.05426,-0.584571533,0.05426,73.08605883,
0.05428,0.5117193495,0.05428,71.98976795,
0.0543,-0.2191412388,0.0543,72.72062854,
0.05432,-0.584571533,0.05432,72.72062854,
0.05434,-1.680862415,0.05434,71.98976795,
0.05436,0.1462890554,0.05436,72.72062854,
0.05438,-0.9500018272,0.05438,72.72062854,
0.0544,-0.9500018272,0.0544,72.35519825,
0.05442,-0.2191412388,0.05442,72.35519825,
0.05444,-2.04629271,0.05444,72.35519825,
0.05446,-1.680862415,0.05446,72.35519825,
0.05448,0.8771496437,0.05448,72.72062854,
0.0545,0.5117193495,0.0545,71.98976795,
0.05452,-0.584571533,0.05452,72.72062854,
0.05454,1.242579938,0.05454,72.72062854,
0.05456,1.608010232,0.05456,72.72062854,
0.05458,1.242579938,0.05458,72.72062854,
0.0546,1.973440526,0.0546,72.35519825,
0.05462,1.242579938,0.05462,72.35519825,
0.05464,0.8771496437,0.05464,72.35519825,
0.05466,0.5117193495,0.05466,72.35519825,
0.05468,0.1462890554,0.05468,72.72062854,
0.0547,0.8771496437,0.0547,72.72062854,
0.05472,-0.2191412388,0.05472,72.72062854,
0.05474,-0.9500018272,0.05474,72.35519825,
0.05476,-0.2191412388,0.05476,71.98976795,
0.05478,1.242579938,0.05478,73.08605883,
0.0548,0.5117193495,0.0548,71.98976795,
0.05482,0.8771496437,0.05482,72.35519825,
0.05484,0.5117193495,0.05484,72.72062854,
0.05486,1.242579938,0.05486,72.35519825,
0.05488,0.8771496437,0.05488,71.62433766,
0.0549,1.242579938,0.0549,72.72062854,
0.05492,-0.2191412388,0.05492,72.35519825,
0.05494,-0.9500018272,0.05494,71.98976795,
0.05496,-0.9500018272,0.05496,72.35519825,
0.05498,-0.9500018272,0.05498,72.35519825,
0.055,-0.584571533,0.055,71.98976795,
0.05502,1.242579938,0.05502,72.72062854,
0.05504,0.1462890554,0.05504,71.62433766,
0.05506,1.242579938,0.05506,71.25890736,
0.05508,-0.584571533,0.05508,72.72062854,
0.0551,-2.777153298,0.0551,72.35519825,
0.05512,-0.2191412388,0.05512,71.98976795,
0.05514,-0.584571533,0.05514,71.98976795,
0.05516,-2.411723004,0.05516,71.62433766,
0.05518,-2.04629271,0.05518,71.98976795,
0.0552,-2.04629271,0.0552,73.08605883,
0.05522,-3.873444181,0.05522,72.72062854,
0.05524,-2.04629271,0.05524,71.98976795,
0.05526,0.1462890554,0.05526,72.72062854,
0.05528,-0.584571533,0.05528,71.62433766,
0.0553,0.1462890554,0.0553,72.35519825,
0.05532,-0.2191412388,0.05532,73.08605883,
0.05534,-1.315432121,0.05534,72.35519825,
0.05536,-0.9500018272,0.05536,71.62433766,
0.05538,-0.9500018272,0.05538,72.35519825,
0.0554,-1.680862415,0.0554,72.35519825,
0.05542,-2.04629271,0.05542,72.35519825,
0.05544,0.1462890554,0.05544,72.72062854,
0.05546,-0.9500018272,0.05546,72.35519825,
0.05548,-0.9500018272,0.05548,71.98976795,
0.0555,0.8771496437,0.0555,73.08605883,
0.05552,1.973440526,0.05552,72.72062854,
0.05554,1.242579938,0.05554,71.98976795,
0.05556,1.242579938,0.05556,72.72062854,
0.05558,-0.2191412388,0.05558,72.35519825,
0.0556,0.5117193495,0.0556,72.35519825,
0.05562,1.242579938,0.05562,72.72062854,
0.05564,-0.9500018272,0.05564,72.35519825,
0.05566,-0.584571533,0.05566,72.35519825,
0.05568,0.8771496437,0.05568,72.72062854,
0.0557,0.1462890554,0.0557,72.35519825,
0.05572,-0.2191412388,0.05572,71.62433766,
0.05574,-0.2191412388,0.05574,72.72062854,
0.05576,1.242579938,0.05576,71.98976795,
0.05578,1.608010232,0.05578,72.35519825,
0.0558,1.608010232,0.0558,72.72062854,
0.05582,1.242579938,0.05582,72.35519825,
0.05584,0.5117193495,0.05584,72.35519825,
0.05586,0.8771496437,0.05586,72.35519825,
0.05588,-0.584571533,0.05588,71.98976795,
0.0559,0.1462890554,0.0559,71.98976795,
0.05592,-0.584571533,0.05592,72.72062854,
0.05594,-1.315432121,0.05594,72.35519825,
0.05596,-1.315432121,0.05596,71.98976795,
0.05598,0.1462890554,0.05598,72.35519825,
0.056,0.1462890554,0.056,72.35519825,
0.05602,0.1462890554,0.05602,72.35519825,
0.05604,0.5117193495,0.05604,73.08605883,
0.05606,0.8771496437,0.05606,71.25890736,
0.05608,-2.04629271,0.05608,71.98976795,
0.0561,-0.9500018272,0.0561,71.98976795,
0.05612,-2.04629271,0.05612,73.08605883,
0.05614,-1.680862415,0.05614,71.98976795,
0.05616,-2.411723004,0.05616,73.45148913,
0.05618,-3.142583592,0.05618,72.35519825,
0.0562,-2.411723004,0.0562,71.98976795,
0.05622,-0.584571533,0.05622,72.35519825,
0.05624,-1.315432121,0.05624,71.98976795,
0.05626,-1.680862415,0.05626,71.98976795,
0.05628,-0.2191412388,0.05628,72.72062854,
0.0563,-0.2191412388,0.0563,72.35519825,
0.05632,-0.2191412388,0.05632,71.98976795,
0.05634,-0.2191412388,0.05634,73.08605883,
0.05636,-2.04629271,0.05636,72.35519825,
0.05638,-1.680862415,0.05638,71.98976795,
0.0564,-0.2191412388,0.0564,72.35519825,
0.05642,-0.9500018272,0.05642,72.35519825,
0.05644,-0.2191412388,0.05644,71.62433766,
0.05646,0.1462890554,0.05646,73.08605883,
0.05648,-0.2191412388,0.05648,71.98976795,
0.0565,0.5117193495,0.0565,71.98976795,
0.05652,0.5117193495,0.05652,72.72062854,
0.05654,0.5117193495,0.05654,71.98976795,
0.05656,0.8771496437,0.05656,72.35519825,
0.05658,0.8771496437,0.05658,73.08605883,
0.0566,0.5117193495,0.0566,72.35519825,
0.05662,0.5117193495,0.05662,71.98976795,
0.05664,-0.584571533,0.05664,72.72062854,
0.05666,0.1462890554,0.05666,72.72062854,
0.05668,1.608010232,0.05668,71.98976795,
0.0567,0.1462890554,0.0567,72.35519825,
0.05672,0.5117193495,0.05672,72.35519825,
0.05674,1.973440526,0.05674,72.72062854,
0.05676,1.973440526,0.05676,73.08605883,
0.05678,-0.9500018272,0.05678,72.35519825,
0.0568,0.8771496437,0.0568,72.35519825,
0.05682,0.8771496437,0.05682,72.72062854,
0.05684,-0.584571533,0.05684,72.35519825,
0.05686,0.5117193495,0.05686,72.35519825,
0.05688,-0.2191412388,0.05688,72.72062854,
0.0569,-0.9500018272,0.0569,72.72062854,
0.05692,-2.411723004,0.05692,72.35519825,
0.05694,-0.9500018272,0.05694,72.72062854,
0.05696,-0.2191412388,0.05696,72.35519825,
0.05698,1.242579938,0.05698,71.98976795,
0.057,0.8771496437,0.057,72.72062854,
0.05702,-1.315432121,0.05702,71.98976795,
0.05704,0.1462890554,0.05704,72.35519825,
0.05706,1.242579938,0.05706,72.72062854,
0.05708,-1.315432121,0.05708,71.98976795,
0.0571,-0.584571533,0.0571,73.08605883,
0.05712,-0.9500018272,0.05712,72.72062854,
0.05714,-3.873444181,0.05714,71.62433766,
0.05716,-3.508013886,0.05716,71.62433766,
0.05718,-1.680862415,0.05718,73.45148913,
0.0572,-0.2191412388,0.0572,72.35519825,
0.05722,-1.315432121,0.05722,72.35519825,
0.05724,-0.2191412388,0.05724,73.08605883,
0.05726,-0.2191412388,0.05726,71.98976795,
0.05728,-0.9500018272,0.05728,71.98976795,
0.0573,-0.2191412388,0.0573,72.35519825,
0.05732,-1.680862415,0.05732,72.35519825,
0.05734,-0.9500018272,0.05734,72.72062854,
0.05736,-0.9500018272,0.05736,72.72062854,
0.05738,-1.315432121,0.05738,72.35519825,
0.0574,-0.584571533,0.0574,72.35519825,
0.05742,-0.584571533,0.05742,72.35519825,
0.05744,0.1462890554,0.05744,72.72062854,
0.05746,1.242579938,0.05746,71.98976795,
0.05748,0.8771496437,0.05748,72.35519825,
0.0575,0.5117193495,0.0575,72.35519825,
0.05752,1.973440526,0.05752,71.98976795,
0.05754,1.242579938,0.05754,72.72062854,
0.05756,-0.584571533,0.05756,72.35519825,
0.05758,0.1462890554,0.05758,72.35519825,
0.0576,1.973440526,0.0576,72.72062854,
0.05762,-0.9500018272,0.05762,71.98976795,
0.05764,0.5117193495,0.05764,71.98976795,
0.05766,0.8771496437,0.05766,73.08605883,
0.05768,-0.584571533,0.05768,72.72062854,
0.0577,1.242579938,0.0577,72.35519825,
0.05772,1.608010232,0.05772,72.72062854,
0.05774,0.5117193495,0.05774,72.35519825,
0.05776,3.069731409,0.05776,71.98976795,
0.05778,0.8771496437,0.05778,72.72062854,
0.0578,0.1462890554,0.0578,72.35519825,
