"A0_accX_x","A0_accX_y","A1_rmsX_x","A1_rmsX_y"
0,-0.1955636762,0,72.72062854,
2e-05,-1.291854559,2e-05,73.08605883,
4e-05,0.5352969121,4e-05,73.08605883,
6e-05,1.2661575,6e-05,73.45148913,
8e-05,0.5352969121,8e-05,73.08605883,
0.0001,0.9007272063,0.0001,72.72062854,
0.00012,0.5352969121,0.00012,73.08605883,
0.00014,-0.5609939704,0.00014,73.45148913,
0.00016,0.9007272063,0.00016,73.45148913,
0.00018,1.997018089,0.00018,72.72062854,
0.0002,-0.5609939704,0.0002,73.81691942,
0.00022,-2.753575735,0.00022,73.81691942,
0.00024,-2.022715147,0.00024,72.35519825,
0.00026,-1.657284853,0.00026,73.08605883,
0.00028,-0.9264242646,0.00028,73.45148913,
0.0003,0.5352969121,0.0003,73.45148913,
0.00032,-2.388145441,0.00032,72.72062854,
0.00034,0.9007272063,0.00034,72.72062854,
0.00036,-0.5609939704,0.00036,72.72062854,
0.00038,-0.5609939704,0.00038,72.35519825,
0.0004,-1.291854559,0.0004,73.08605883,
0.00042,-1.657284853,0.00042,73.08605883,
0.00044,-1.291854559,0.00044,72.72062854,
0.00046,-0.5609939704,0.00046,72.72062854,
0.00048,-0.9264242646,0.00048,73.45148913,
0.0005,-1.291854559,0.0005,72.72062854,
0.00052,-0.1955636762,0.00052,72.35519825,
0.00054,1.2661575,0.00054,73.45148913,
0.00056,1.631587795,0.00056,72.72062854,
0.00058,0.9007272063,0.00058,72.35519825,
0.0006,0.9007272063,0.0006,72.72062854,
0.00062,1.997018089,0.00062,72.72062854,
0.00064,1.2661575,0.00064,72.72062854,
0.00066,0.9007272063,0.00066,73.45148913,
0.00068,-0.1955636762,0.00068,72.72062854,
0.0007,-0.1955636762,0.0007,73.08605883,
0.00072,0.5352969121,0.00072,73.08605883,
0.00074,-0.5609939704,0.00074,72.72062854,
0.00076,0.5352969121,0.00076,72.72062854,
0.00078,1.631587795,0.00078,73.45148913,
0.0008,1.997018089,0.0008,73.08605883,
0.00082,1.631587795,0.00082,72.72062854,
0.00084,2.362448383,0.00084,73.45148913,
0.00086,1.631587795,0.00086,73.08605883,
0.00088,1.631587795,0.00088,72.72062854,
0.0009,0.9007272063,0.0009,73.45148913,
0.00092,0.9007272063,0.00092,73.08605883,
0.00094,-0.5609939704,0.00094,72.72062854,
0.00096,-1.291854559,0.00096,73.08605883,
0.00098,-1.291854559,0.00098,72.35519825,
0.001,-0.1955636762,0.001,71.98976795,
0.00102,0.5352969121,0.00102,73.08605883,
0.00104,0.5352969121,0.00104,72.72062854,
0.00106,1.997018089,0.00106,71.98976795,
0.00108,1.631587795,0.00108,73.08605883,
0.0011,-0.9264242646,0.0011,73.45148913,
0.00112,-2.388145441,0.00112,72.72062854,
0.00114,-0.9264242646,0.00114,73.81691942,
0.00116,-0.9264242646,0.00116,71.98976795,
0.00118,-2.753575735,0.00118,72.35519825,
0.0012,-3.11900603,0.0012,73.08605883,
0.00122,-3.849866618,0.00122,73.45148913,
0.00124,-2.022715147,0.00124,73.08605883,
0.00126,0.5352969121,0.00126,73.81691942,
0.00128,-0.5609939704,0.00128,72.72062854,
0.0013,0.5352969121,0.0013,72.35519825,
0.00132,-0.1955636762,0.00132,72.72062854,
0.00134,-0.9264242646,0.00134,72.72062854,
0.00136,-1.291854559,0.00136,72.72062854,
0.00138,0.1698666179,0.00138,73.08605883,
0.0014,-1.291854559,0.0014,73.08605883,
0.00142,-0.5609939704,0.00142,72.35519825,
0.00144,-1.291854559,0.00144,73.45148913,
0.00146,-0.9264242646,0.00146,73.08605883,
0.00148,0.5352969121,0.00148,73.08605883,
0.0015,0.5352969121,0.0015,73.45148913,
0.00152,0.9007272063,0.00152,72.72062854,
0.00154,0.9007272063,0.00154,72.35519825,
0.00156,0.5352969121,0.00156,72.72062854,
0.00158,1.2661575,0.00158,73.45148913,
0.0016,0.9007272063,0.0016,72.35519825,
0.00162,1.2661575,0.00162,73.45148913,
0.00164,0.1698666179,0.00164,72.72062854,
0.00166,0.1698666179,0.00166,73.08605883,
0.00168,0.9007272063,0.00168,73.45148913,
0.0017,-0.9264242646,0.0017,72.72062854,
0.00172,0.9007272063,0.00172,72.35519825,
0.00174,0.9007272063,0.00174,73.08605883,
0.00176,0.5352969121,0.00176,72.72062854,
0.00178,2.362448383,0.00178,72.35519825,
0.0018,2.362448383,0.0018,73.08605883,
0.00182,0.9007272063,0.00182,72.72062854,
0.00184,1.2661575,0.00184,72.35519825,
0.00186,1.631587795,0.00186,73.45148913,
0.00188,0.9007272063,0.00188,72.72062854,
0.0019,0.9007272063,0.0019,72.72062854,
0.00192,0.1698666179,0.00192,73.45148913,
0.00194,-0.5609939704,0.00194,72.72062854,
0.00196,-0.9264242646,0.00196,72.72062854,
0.00198,0.5352969121,0.00198,73.45148913,
0.002,-1.657284853,0.002,72.72062854,
0.00202,0.1698666179,0.00202,72.35519825,
0.00204,1.631587795,0.00204,73.81691942,
0.00206,1.631587795,0.00206,72.72062854,
0.00208,-0.1955636762,0.00208,73.08605883,
0.0021,-0.5609939704,0.0021,72.72062854,
0.00212,-2.388145441,0.00212,73.45148913,
0.00214,-3.849866618,0.00214,73.45148913,
0.00216,-2.022715147,0.00216,73.81691942,
0.00218,-2.022715147,0.00218,72.72062854,
0.0022,-3.11900603,0.0022,73.08605883,
0.00222,0.1698666179,0.00222,73.45148913,
0.00224,1.631587795,0.00224,73.08605883,
0.00226,-0.5609939704,0.00226,73.08605883,
0.00228,1.997018089,0.00228,73.08605883,
0.0023,-0.5609939704,0.0023,72.72062854,
0.00232,-0.5609939704,0.00232,72.72062854,
0.00234,-0.9264242646,0.00234,73.45148913,
0.00236,-1.657284853,0.00236,73.08605883,
0.00238,-0.5609939704,0.00238,72.72062854,
0.0024,-1.291854559,0.0024,73.08605883,
0.00242,-0.5609939704,0.00242,73.08605883,
0.00244,0.5352969121,0.00244,72.72062854,
0.00246,0.1698666179,0.00246,73.45148913,
0.00248,-0.9264242646,0.00248,72.72062854,
0.0025,0.9007272063,0.0025,72.72062854,
0.00252,1.631587795,0.00252,73.08605883,
0.00254,1.631587795,0.00254,72.35519825,
0.00256,1.631587795,0.00256,72.72062854,
0.00258,0.5352969121,0.00258,72.72062854,
0.0026,-0.9264242646,0.0026,72.35519825,
0.00262,1.2661575,0.00262,72.35519825,
0.00264,0.9007272063,0.00264,72.72062854,
0.00266,-0.5609939704,0.00266,73.08605883,
0.00268,1.2661575,0.00268,72.35519825,
0.0027,1.997018089,0.0027,73.08605883,
0.00272,0.5352969121,0.00272,73.08605883,
0.00274,0.5352969121,0.00274,73.08605883,
0.00276,2.362448383,0.00276,73.45148913,
0.00278,1.631587795,0.00278,72.72062854,
0.0028,2.362448383,0.0028,72.72062854,
0.00282,1.2661575,0.00282,73.08605883,
0.00284,2.362448383,0.00284,72.72062854,
0.00286,0.5352969121,0.00286,72.72062854,
0.00288,0.5352969121,0.00288,73.08605883,
0.0029,-0.5609939704,0.0029,73.08605883,
0.00292,-1.657284853,0.00292,72.72062854,
0.00294,-0.5609939704,0.00294,73.45148913,
0.00296,0.1698666179,0.00296,72.72062854,
0.00298,0.5352969121,0.00298,72.72062854,
0.003,0.5352969121,0.003,72.35519825,
0.00302,1.2661575,0.00302,72.72062854,
0.00304,-0.1955636762,0.00304,73.08605883,
0.00306,-0.1955636762,0.00306,72.72062854,
0.00308,-0.5609939704,0.00308,73.81691942,
0.0031,1.997018089,0.0031,73.08605883,
0.00312,0.9007272063,0.00312,72.35519825,
0.00314,-2.022715147,0.00314,74.18234972,
0.00316,-3.11900603,0.00316,73.45148913,
0.00318,-0.9264242646,0.00318,74.18234972,
0.0032,0.1698666179,0.0032,71.98976795,
0.00322,-1.291854559,0.00322,73.08605883,
0.00324,-0.1955636762,0.00324,73.45148913,
0.00326,-0.5609939704,0.00326,73.08605883,
0.00328,-0.9264242646,0.00328,72.72062854,
0.0033,-0.9264242646,0.0033,73.08605883,
0.00332,-1.291854559,0.00332,72.72062854,
0.00334,-0.5609939704,0.00334,72.72062854,
0.00336,-1.291854559,0.00336,72.72062854,
0.00338,-0.5609939704,0.00338,73.08605883,
0.0034,0.1698666179,0.0034,72.72062854,
0.00342,0.9007272063,0.00342,73.45148913,
0.00344,-0.9264242646,0.00344,72.72062854,
0.00346,0.9007272063,0.00346,72.72062854,
0.00348,0.9007272063,0.00348,73.08605883,
0.0035,0.1698666179,0.0035,72.72062854,
0.00352,0.9007272063,0.00352,72.72062854,
0.00354,1.2661575,0.00354,73.45148913,
0.00356,-0.5609939704,0.00356,72.72062854,
0.00358,1.631587795,0.00358,72.35519825,
0.0036,0.9007272063,0.0036,72.72062854,
0.00362,0.5352969121,0.00362,72.72062854,
0.00364,1.2661575,0.00364,72.35519825,
0.00366,0.5352969121,0.00366,73.08605883,
0.00368,-0.1955636762,0.00368,72.72062854,
0.0037,1.2661575,0.0037,72.72062854,
0.00372,0.5352969121,0.00372,73.08605883,
0.00374,2.362448383,0.00374,72.35519825,
0.00376,1.631587795,0.00376,72.72062854,
0.00378,2.362448383,0.00378,73.08605883,
0.0038,0.9007272063,0.0038,73.08605883,
0.00382,1.2661575,0.00382,73.45148913,
0.00384,1.631587795,0.00384,73.08605883,
0.00386,0.1698666179,0.00386,73.08605883,
0.00388,-0.5609939704,0.00388,73.08605883,
0.0039,-0.9264242646,0.0039,73.08605883,
0.00392,-0.9264242646,0.00392,72.72062854,
0.00394,0.1698666179,0.00394,72.72062854,
0.00396,0.1698666179,0.00396,73.08605883,
0.00398,1.997018089,0.00398,73.08605883,
0.004,1.2661575,0.004,72.72062854,
0.00402,0.1698666179,0.00402,73.81691942,
0.00404,0.1698666179,0.00404,73.08605883,
0.00406,0.9007272063,0.00406,72.72062854,
0.00408,-0.1955636762,0.00408,73.08605883,
0.0041,-3.11900603,0.0041,73.08605883,
0.00412,-1.291854559,0.00412,73.81691942,
0.00414,-1.657284853,0.00414,73.45148913,
0.00416,-2.753575735,0.00416,73.08605883,
0.00418,-1.657284853,0.00418,71.98976795,
0.0042,-0.1955636762,0.0042,72.35519825,
0.00422,1.631587795,0.00422,73.08605883,
0.00424,0.1698666179,0.00424,73.08605883,
0.00426,0.9007272063,0.00426,71.98976795,
0.00428,0.5352969121,0.00428,72.35519825,
0.0043,-1.291854559,0.0043,72.72062854,
0.00432,-1.657284853,0.00432,72.35519825,
0.00434,-1.291854559,0.00434,73.08605883,
0.00436,-0.9264242646,0.00436,72.72062854,
0.00438,-0.1955636762,0.00438,72.35519825,
0.0044,-0.1955636762,0.0044,73.08605883,
0.00442,0.1698666179,0.00442,72.72062854,
0.00444,0.9007272063,0.00444,71.98976795,
0.00446,1.2661575,0.00446,72.72062854,
0.00448,1.2661575,0.00448,73.08605883,
0.0045,-0.1955636762,0.0045,72.35519825,
0.00452,1.2661575,0.00452,72.72062854,
0.00454,0.5352969121,0.00454,72.72062854,
0.00456,1.2661575,0.00456,72.35519825,
0.00458,1.2661575,0.00458,72.72062854,
0.0046,1.631587795,0.0046,73.08605883,
0.00462,-0.1955636762,0.00462,72.35519825,
0.00464,0.1698666179,0.00464,72.72062854,
0.00466,0.9007272063,0.00466,73.08605883,
0.00468,1.631587795,0.00468,71.98976795,
0.0047,1.997018089,0.0047,72.72062854,
0.00472,1.997018089,0.00472,72.72062854,
0.00474,1.631587795,0.00474,72.35519825,
0.00476,2.727878677,0.00476,72.72062854,
0.00478,1.997018089,0.00478,72.72062854,
0.0048,1.631587795,0.0048,72.35519825,
0.00482,1.2661575,0.00482,72.72062854,
0.00484,0.5352969121,0.00484,73.08605883,
0.00486,-0.5609939704,0.00486,72.72062854,
0.00488,0.1698666179,0.00488,73.45148913,
0.0049,-1.291854559,0.0049,72.72062854,
0.00492,0.1698666179,0.00492,72.35519825,
0.00494,0.5352969121,0.00494,72.72062854,
0.00496,0.9007272063,0.00496,73.08605883,
0.00498,0.5352969121,0.00498,72.35519825,
0.005,0.1698666179,0.005,73.81691942,
0.00502,0.9007272063,0.00502,73.45148913,
0.00504,-2.753575735,0.00504,71.25890736,
0.00506,-0.1955636762,0.00506,73.45148913,
0.00508,-2.388145441,0.00508,72.35519825,
0.0051,1.631587795,0.0051,71.98976795,
0.00512,-2.753575735,0.00512,72.35519825,
0.00514,-2.753575735,0.00514,71.98976795,
0.00516,-2.388145441,0.00516,73.45148913,
0.00518,-0.9264242646,0.00518,72.35519825,
0.0052,-0.1955636762,0.0052,73.08605883,
0.00522,0.5352969121,0.00522,73.08605883,
0.00524,-0.5609939704,0.00524,72.72062854,
0.00526,-0.5609939704,0.00526,73.08605883,
0.00528,0.9007272063,0.00528,73.08605883,
0.0053,-0.1955636762,0.0053,73.08605883,
0.00532,-0.1955636762,0.00532,72.72062854,
0.00534,-0.5609939704,0.00534,73.08605883,
0.00536,-0.5609939704,0.00536,72.72062854,
0.00538,-0.5609939704,0.00538,72.35519825,
0.0054,0.5352969121,0.0054,72.72062854,
0.00542,0.5352969121,0.00542,73.08605883,
0.00544,1.631587795,0.00544,73.45148913,
0.00546,0.9007272063,0.00546,73.45148913,
0.00548,0.9007272063,0.00548,72.72062854,
0.0055,1.2661575,0.0055,72.72062854,
0.00552,0.5352969121,0.00552,73.08605883,
0.00554,-0.5609939704,0.00554,73.08605883,
0.00556,0.5352969121,0.00556,72.35519825,
0.00558,0.5352969121,0.00558,73.08605883,
0.0056,-0.5609939704,0.0056,73.08605883,
0.00562,-0.1955636762,0.00562,73.08605883,
0.00564,0.5352969121,0.00564,73.45148913,
0.00566,0.1698666179,0.00566,72.72062854,
0.00568,2.362448383,0.00568,72.72062854,
0.0057,1.631587795,0.0057,73.08605883,
0.00572,2.362448383,0.00572,73.08605883,
0.00574,1.997018089,0.00574,72.35519825,
0.00576,2.362448383,0.00576,73.45148913,
0.00578,0.1698666179,0.00578,73.45148913,
0.0058,0.1698666179,0.0058,72.72062854,
0.00582,0.5352969121,0.00582,73.08605883,
0.00584,-1.657284853,0.00584,72.72062854,
0.00586,-0.1955636762,0.00586,72.72062854,
0.00588,-0.1955636762,0.00588,73.08605883,
0.0059,-0.5609939704,0.0059,72.35519825,
0.00592,1.997018089,0.00592,72.72062854,
0.00594,0.1698666179,0.00594,73.45148913,
0.00596,1.2661575,0.00596,72.72062854,
0.00598,0.5352969121,0.00598,72.72062854,
0.006,0.5352969121,0.006,73.81691942,
0.00602,-2.022715147,0.00602,73.45148913,
0.00604,-2.753575735,0.00604,72.72062854,
0.00606,-1.657284853,0.00606,72.72062854,
0.00608,-3.849866618,0.00608,73.08605883,
0.0061,-1.291854559,0.0061,73.81691942,
0.00612,-1.291854559,0.00612,72.35519825,
0.00614,-1.291854559,0.00614,73.08605883,
0.00616,-0.5609939704,0.00616,73.08605883,
0.00618,0.1698666179,0.00618,73.08605883,
0.0062,0.9007272063,0.0062,72.72062854,
0.00622,-0.9264242646,0.00622,72.35519825,
0.00624,0.1698666179,0.00624,73.08605883,
0.00626,-1.657284853,0.00626,73.45148913,
0.00628,0.1698666179,0.00628,72.35519825,
0.0063,-1.657284853,0.0063,73.08605883,
0.00632,-2.022715147,0.00632,72.72062854,
0.00634,-0.5609939704,0.00634,72.72062854,
0.00636,-0.1955636762,0.00636,73.08605883,
0.00638,-0.5609939704,0.00638,72.72062854,
0.0064,0.9007272063,0.0064,72.72062854,
0.00642,1.2661575,0.00642,73.45148913,
0.00644,0.9007272063,0.00644,72.72062854,
0.00646,1.997018089,0.00646,72.72062854,
0.00648,0.5352969121,0.00648,72.72062854,
0.0065,0.9007272063,0.0065,72.72062854,
0.00652,1.997018089,0.00652,72.72062854,
0.00654,0.9007272063,0.00654,72.72062854,
0.00656,-0.1955636762,0.00656,73.08605883,
0.00658,0.5352969121,0.00658,72.72062854,
0.0066,-0.1955636762,0.0066,72.72062854,
0.00662,-0.1955636762,0.00662,73.08605883,
0.00664,1.2661575,0.00664,72.72062854,
0.00666,1.631587795,0.00666,72.72062854,
0.00668,1.631587795,0.00668,73.45148913,
0.0067,0.9007272063,0.0067,73.08605883,
0.00672,1.2661575,0.00672,73.08605883,
0.00674,1.2661575,0.00674,72.72062854,
0.00676,1.2661575,0.00676,72.72062854,
0.00678,1.2661575,0.00678,72.72062854,
0.0068,0.9007272063,0.0068,73.08605883,
0.00682,-0.1955636762,0.00682,72.72062854,
0.00684,0.1698666179,0.00684,73.45148913,
0.00686,0.1698666179,0.00686,73.08605883,
0.00688,0.1698666179,0.00688,72.72062854,
0.0069,1.997018089,0.0069,73.45148913,
0.00692,-0.9264242646,0.00692,73.08605883,
0.00694,0.5352969121,0.00694,73.45148913,
0.00696,-0.1955636762,0.00696,72.72062854,
0.00698,-0.5609939704,0.00698,73.81691942,
0.007,0.1698666179,0.007,71.62433766,
0.00702,-2.022715147,0.00702,72.72062854,
0.00704,-3.11900603,0.00704,73.45148913,
0.00706,-2.388145441,0.00706,71.98976795,
0.00708,-1.657284853,0.00708,72.35519825,
0.0071,-1.657284853,0.0071,72.72062854,
0.00712,0.5352969121,0.00712,72.35519825,
0.00714,1.631587795,0.00714,71.98976795,
0.00716,-0.5609939704,0.00716,72.35519825,
0.00718,0.9007272063,0.00718,72.72062854,
0.0072,-1.657284853,0.0072,73.08605883,
0.00722,-0.9264242646,0.00722,72.35519825,
0.00724,-1.657284853,0.00724,72.72062854,
0.00726,-0.9264242646,0.00726,73.08605883,
0.00728,-2.022715147,0.00728,72.72062854,
0.0073,-1.291854559,0.0073,72.72062854,
0.00732,-0.9264242646,0.00732,72.72062854,
0.00734,-0.1955636762,0.00734,72.35519825,
0.00736,0.1698666179,0.00736,72.35519825,
0.00738,0.9007272063,0.00738,72.72062854,
0.0074,0.5352969121,0.0074,72.35519825,
0.00742,1.997018089,0.00742,72.72062854,
0.00744,1.997018089,0.00744,73.08605883,
0.00746,0.1698666179,0.00746,72.72062854,
0.00748,1.631587795,0.00748,73.08605883,
0.0075,1.2661575,0.0075,72.72062854,
0.00752,0.1698666179,0.00752,72.35519825,
0.00754,0.1698666179,0.00754,72.35519825,
0.00756,-0.5609939704,0.00756,72.72062854,
0.00758,0.1698666179,0.00758,72.72062854,
0.0076,1.631587795,0.0076,73.08605883,
0.00762,2.727878677,0.00762,72.35519825,
0.00764,1.2661575,0.00764,72.72062854,
0.00766,2.362448383,0.00766,72.72062854,
0.00768,1.2661575,0.00768,72.35519825,
0.0077,1.2661575,0.0077,72.35519825,
0.00772,1.2661575,0.00772,72.72062854,
0.00774,1.2661575,0.00774,72.72062854,
0.00776,0.1698666179,0.00776,72.35519825,
0.00778,0.9007272063,0.00778,72.72062854,
0.0078,-0.5609939704,0.0078,72.72062854,
0.00782,-0.5609939704,0.00782,72.35519825,
0.00784,-0.9264242646,0.00784,72.72062854,
0.00786,1.631587795,0.00786,73.08605883,
0.00788,1.2661575,0.00788,71.98976795,
0.0079,2.362448383,0.0079,72.35519825,
0.00792,0.9007272063,0.00792,73.45148913,
0.00794,-0.9264242646,0.00794,71.25890736,
0.00796,0.1698666179,0.00796,73.45148913,
0.00798,1.631587795,0.00798,72.35519825,
0.008,0.9007272063,0.008,71.98976795,
0.00802,-2.388145441,0.00802,73.45148913,
0.00804,-2.388145441,0.00804,73.08605883,
0.00806,-3.11900603,0.00806,72.72062854,
0.00808,0.1698666179,0.00808,72.35519825,
0.0081,0.5352969121,0.0081,72.35519825,
0.00812,-1.291854559,0.00812,71.98976795,
0.00814,0.9007272063,0.00814,72.35519825,
0.00816,0.5352969121,0.00816,73.08605883,
0.00818,-1.657284853,0.00818,72.72062854,
0.0082,-0.1955636762,0.0082,72.72062854,
0.00822,-0.9264242646,0.00822,73.08605883,
0.00824,-1.657284853,0.00824,72.35519825,
0.00826,-0.1955636762,0.00826,73.08605883,
0.00828,-0.9264242646,0.00828,72.72062854,
0.0083,-0.9264242646,0.0083,72.35519825,
0.00832,0.9007272063,0.00832,72.35519825,
0.00834,0.9007272063,0.00834,73.08605883,
0.00836,0.1698666179,0.00836,72.72062854,
0.00838,1.997018089,0.00838,72.72062854,
0.0084,1.2661575,0.0084,72.72062854,
0.00842,0.1698666179,0.00842,72.35519825,
0.00844,1.2661575,0.00844,72.72062854,
0.00846,1.631587795,0.00846,72.35519825,
0.00848,0.5352969121,0.00848,72.72062854,
0.0085,0.1698666179,0.0085,72.35519825,
0.00852,-0.5609939704,0.00852,73.08605883,
0.00854,0.1698666179,0.00854,72.35519825,
0.00856,0.5352969121,0.00856,72.72062854,
0.00858,0.9007272063,0.00858,73.08605883,
0.0086,1.2661575,0.0086,72.35519825,
0.00862,2.362448383,0.00862,72.72062854,
0.00864,1.631587795,0.00864,72.72062854,
0.00866,1.997018089,0.00866,72.35519825,
0.00868,1.997018089,0.00868,72.35519825,
0.0087,0.5352969121,0.0087,72.72062854,
0.00872,0.5352969121,0.00872,71.98976795,
0.00874,0.9007272063,0.00874,73.08605883,
0.00876,-0.1955636762,0.00876,72.72062854,
0.00878,-0.1955636762,0.00878,72.35519825,
0.0088,-0.1955636762,0.0088,72.72062854,
0.00882,0.1698666179,0.00882,72.72062854,
0.00884,-0.1955636762,0.00884,71.98976795,
0.00886,2.362448383,0.00886,72.72062854,
0.00888,0.9007272063,0.00888,72.72062854,
0.0089,1.631587795,0.0089,72.72062854,
0.00892,1.2661575,0.00892,73.45148913,
0.00894,-1.291854559,0.00894,72.72062854,
0.00896,-2.753575735,0.00896,73.45148913,
0.00898,-3.484436324,0.00898,71.98976795,
0.009,-4.215296912,0.009,73.08605883,
0.00902,-3.484436324,0.00902,73.08605883,
0.00904,0.1698666179,0.00904,73.08605883,
0.00906,-1.657284853,0.00906,72.72062854,
0.00908,-0.9264242646,0.00908,73.08605883,
0.0091,0.5352969121,0.0091,73.08605883,
0.00912,0.1698666179,0.00912,72.72062854,
0.00914,-0.5609939704,0.00914,73.08605883,
0.00916,-0.1955636762,0.00916,72.72062854,
0.00918,-2.022715147,0.00918,72.72062854,
0.0092,0.1698666179,0.0092,72.72062854,
0.00922,-0.9264242646,0.00922,72.72062854,
0.00924,-1.657284853,0.00924,72.72062854,
0.00926,-0.5609939704,0.00926,73.08605883,
0.00928,0.1698666179,0.00928,72.72062854,
0.0093,0.1698666179,0.0093,72.35519825,
0.00932,-0.5609939704,0.00932,73.45148913,
0.00934,1.631587795,0.00934,73.08605883,
0.00936,1.2661575,0.00936,72.35519825,
0.00938,1.997018089,0.00938,73.08605883,
0.0094,1.2661575,0.0094,72.72062854,
0.00942,0.9007272063,0.00942,72.72062854,
0.00944,0.9007272063,0.00944,73.45148913,
0.00946,1.2661575,0.00946,72.35519825,
0.00948,1.2661575,0.00948,72.72062854,
0.0095,0.9007272063,0.0095,73.08605883,
0.00952,-0.9264242646,0.00952,72.72062854,
0.00954,0.5352969121,0.00954,72.35519825,
0.00956,1.2661575,0.00956,73.45148913,
0.00958,1.631587795,0.00958,72.35519825,
0.0096,1.631587795,0.0096,72.72062854,
0.00962,1.631587795,0.00962,73.45148913,
0.00964,1.997018089,0.00964,72.72062854,
0.00966,1.2661575,0.00966,72.72062854,
0.00968,2.362448383,0.00968,72.72062854,
0.0097,0.5352969121,0.0097,72.72062854,
0.00972,-0.1955636762,0.00972,72.35519825,
0.00974,0.5352969121,0.00974,73.08605883,
0.00976,-0.9264242646,0.00976,72.72062854,
0.00978,0.5352969121,0.00978,72.35519825,
0.0098,0.1698666179,0.0098,73.08605883,
0.00982,0.5352969121,0.00982,71.98976795,
0.00984,1.997018089,0.00984,71.98976795,
0.00986,-0.1955636762,0.00986,73.45148913,
0.00988,-0.5609939704,0.00988,73.45148913,
0.0099,-2.388145441,0.0099,72.35519825,
0.00992,-0.9264242646,0.00992,73.45148913,
0.00994,-3.11900603,0.00994,71.62433766,
0.00996,0.1698666179,0.00996,72.35519825,
0.00998,-4.580727206,0.00998,73.08605883,
0.01,-4.215296912,0.01,71.62433766,
0.01002,0.1698666179,0.01002,72.72062854,
0.01004,-1.291854559,0.01004,73.81691942,
0.01006,-1.657284853,0.01006,73.08605883,
0.01008,-0.1955636762,0.01008,72.35519825,
0.0101,0.5352969121,0.0101,73.08605883,
0.01012,-1.291854559,0.01012,73.08605883,
0.01014,-0.1955636762,0.01014,72.72062854,
0.01016,-1.657284853,0.01016,72.72062854,
0.01018,-1.291854559,0.01018,72.35519825,
0.0102,-0.9264242646,0.0102,72.35519825,
0.01022,-0.5609939704,0.01022,73.08605883,
0.01024,-0.5609939704,0.01024,72.72062854,
0.01026,-0.1955636762,0.01026,72.35519825,
0.01028,0.9007272063,0.01028,71.98976795,
0.0103,0.5352969121,0.0103,72.72062854,
0.01032,1.2661575,0.01032,72.72062854,
0.01034,1.631587795,0.01034,72.35519825,
0.01036,1.2661575,0.01036,72.72062854,
0.01038,2.362448383,0.01038,72.72062854,
0.0104,0.5352969121,0.0104,73.08605883,
0.01042,0.5352969121,0.01042,72.72062854,
0.01044,1.997018089,0.01044,72.72062854,
0.01046,1.2661575,0.01046,72.72062854,
0.01048,-0.5609939704,0.01048,72.72062854,
0.0105,0.9007272063,0.0105,72.72062854,
0.01052,0.9007272063,0.01052,72.72062854,
0.01054,0.9007272063,0.01054,72.72062854,
0.01056,1.2661575,0.01056,73.08605883,
0.01058,1.997018089,0.01058,73.08605883,
0.0106,1.2661575,0.0106,72.72062854,
0.01062,1.2661575,0.01062,73.08605883,
0.01064,1.2661575,0.01064,73.08605883,
0.01066,0.9007272063,0.01066,72.35519825,
0.01068,0.9007272063,0.01068,72.72062854,
0.0107,-0.1955636762,0.0107,73.08605883,
0.01072,0.5352969121,0.01072,73.08605883,
0.01074,-0.5609939704,0.01074,73.08605883,
0.01076,0.1698666179,0.01076,73.08605883,
0.01078,0.1698666179,0.01078,72.72062854,
0.0108,1.2661575,0.0108,72.72062854,
0.01082,1.2661575,0.01082,73.45148913,
0.01084,-0.9264242646,0.01084,72.72062854,
0.01086,2.362448383,0.01086,72.72062854,
0.01088,0.1698666179,0.01088,72.35519825,
0.0109,-0.9264242646,0.0109,73.45148913,
0.01092,-1.657284853,0.01092,73.45148913,
0.01094,-2.753575735,0.01094,74.18234972,
0.01096,-4.215296912,0.01096,71.98976795,
0.01098,-0.5609939704,0.01098,73.81691942,
0.011,-0.9264242646,0.011,72.35519825,
0.01102,-1.657284853,0.01102,73.45148913,
0.01104,0.5352969121,0.01104,71.98976795,
0.01106,-0.1955636762,0.01106,72.72062854,
0.01108,-0.1955636762,0.01108,72.35519825,
0.0111,-0.9264242646,0.0111,72.72062854,
0.01112,-0.9264242646,0.01112,72.72062854,
0.01114,-0.1955636762,0.01114,73.08605883,
0.01116,-0.9264242646,0.01116,72.72062854,
0.01118,-1.291854559,0.01118,73.08605883,
0.0112,-0.9264242646,0.0112,72.72062854,
0.01122,-0.5609939704,0.01122,72.72062854,
0.01124,-0.5609939704,0.01124,72.72062854,
0.01126,0.1698666179,0.01126,73.08605883,
0.01128,1.2661575,0.01128,72.72062854,
0.0113,0.1698666179,0.0113,73.08605883,
0.01132,2.727878677,0.01132,72.35519825,
0.01134,1.997018089,0.01134,72.72062854,
0.01136,1.2661575,0.01136,73.08605883,
0.01138,1.631587795,0.01138,72.35519825,
0.0114,0.5352969121,0.0114,72.72062854,
0.01142,1.631587795,0.01142,72.72062854,
0.01144,0.5352969121,0.01144,72.72062854,
0.01146,0.5352969121,0.01146,73.08605883,
0.01148,0.9007272063,0.01148,72.72062854,
0.0115,0.1698666179,0.0115,73.08605883,
0.01152,1.2661575,0.01152,73.08605883,
0.01154,1.997018089,0.01154,72.35519825,
0.01156,1.631587795,0.01156,72.72062854,
0.01158,0.9007272063,0.01158,73.08605883,
0.0116,2.362448383,0.0116,73.08605883,
0.01162,1.2661575,0.01162,73.08605883,
0.01164,0.9007272063,0.01164,73.08605883,
0.01166,0.1698666179,0.01166,73.08605883,
0.01168,1.2661575,0.01168,73.08605883,
0.0117,0.1698666179,0.0117,73.08605883,
0.01172,0.5352969121,0.01172,73.08605883,
0.01174,0.1698666179,0.01174,73.08605883,
0.01176,0.1698666179,0.01176,72.72062854,
0.01178,0.5352969121,0.01178,72.72062854,
0.0118,1.2661575,0.0118,73.45148913,
0.01182,0.5352969121,0.01182,72.35519825,
0.01184,0.1698666179,0.01184,73.45148913,
0.01186,0.5352969121,0.01186,72.72062854,
0.01188,-2.022715147,0.01188,72.72062854,
0.0119,0.1698666179,0.0119,72.35519825,
0.01192,-2.388145441,0.01192,73.45148913,
0.01194,-0.9264242646,0.01194,71.98976795,
0.01196,-0.9264242646,0.01196,73.08605883,
0.01198,-3.849866618,0.01198,71.62433766,
0.012,-0.9264242646,0.012,71.98976795,
0.01202,-0.1955636762,0.01202,72.72062854,
0.01204,-0.9264242646,0.01204,72.35519825,
0.01206,-0.1955636762,0.01206,72.35519825,
0.01208,0.9007272063,0.01208,73.45148913,
0.0121,-1.291854559,0.0121,72.72062854,
0.01212,-0.1955636762,0.01212,72.35519825,
0.01214,-1.291854559,0.01214,73.08605883,
0.01216,-1.291854559,0.01216,72.35519825,
0.01218,-0.9264242646,0.01218,72.72062854,
0.0122,-0.5609939704,0.0122,73.45148913,
0.01222,-0.9264242646,0.01222,72.72062854,
0.01224,-0.9264242646,0.01224,72.72062854,
0.01226,0.5352969121,0.01226,72.72062854,
0.01228,0.9007272063,0.01228,72.35519825,
0.0123,0.1698666179,0.0123,72.72062854,
0.01232,1.631587795,0.01232,73.45148913,
0.01234,-0.1955636762,0.01234,72.72062854,
0.01236,0.9007272063,0.01236,72.35519825,
0.01238,0.5352969121,0.01238,73.08605883,
0.0124,0.5352969121,0.0124,72.72062854,
0.01242,0.1698666179,0.01242,72.35519825,
0.01244,0.5352969121,0.01244,73.45148913,
0.01246,-0.5609939704,0.01246,72.35519825,
0.01248,0.9007272063,0.01248,72.35519825,
0.0125,1.631587795,0.0125,73.45148913,
0.01252,0.1698666179,0.01252,72.72062854,
0.01254,1.2661575,0.01254,72.72062854,
0.01256,2.362448383,0.01256,72.72062854,
0.01258,1.997018089,0.01258,72.72062854,
0.0126,1.2661575,0.0126,72.72062854,
0.01262,1.631587795,0.01262,72.72062854,
0.01264,0.9007272063,0.01264,72.72062854,
0.01266,0.1698666179,0.01266,72.35519825,
0.01268,-0.5609939704,0.01268,73.08605883,
0.0127,-1.291854559,0.0127,72.35519825,
0.01272,-1.291854559,0.01272,72.35519825,
0.01274,-0.9264242646,0.01274,73.08605883,
0.01276,-0.5609939704,0.01276,72.35519825,
0.01278,1.2661575,0.01278,71.98976795,
0.0128,0.1698666179,0.0128,73.45148913,
0.01282,-0.1955636762,0.01282,71.98976795,
0.01284,1.631587795,0.01284,71.98976795,
0.01286,-0.9264242646,0.01286,72.35519825,
0.01288,1.2661575,0.01288,72.35519825,
0.0129,-2.753575735,0.0129,71.98976795,
0.01292,-1.657284853,0.01292,73.45148913,
0.01294,-4.215296912,0.01294,71.98976795,
0.01296,-3.11900603,0.01296,73.08605883,
0.01298,-2.022715147,0.01298,73.45148913,
0.013,0.5352969121,0.013,72.72062854,
0.01302,0.1698666179,0.01302,72.35519825,
0.01304,1.2661575,0.01304,73.08605883,
0.01306,-1.291854559,0.01306,72.72062854,
0.01308,-0.9264242646,0.01308,72.72062854,
0.0131,-1.291854559,0.0131,73.08605883,
0.01312,-2.022715147,0.01312,73.08605883,
0.01314,-0.9264242646,0.01314,72.72062854,
0.01316,-0.9264242646,0.01316,73.08605883,
0.01318,-0.5609939704,0.01318,72.35519825,
0.0132,-0.1955636762,0.0132,72.72062854,
0.01322,1.2661575,0.01322,73.08605883,
0.01324,0.5352969121,0.01324,72.35519825,
0.01326,1.2661575,0.01326,72.35519825,
0.01328,1.631587795,0.01328,73.08605883,
0.0133,0.1698666179,0.0133,72.72062854,
0.01332,0.5352969121,0.01332,72.35519825,
0.01334,1.2661575,0.01334,73.45148913,
0.01336,0.5352969121,0.01336,72.72062854,
0.01338,-0.5609939704,0.01338,72.72062854,
0.0134,0.5352969121,0.0134,73.45148913,
0.01342,-0.9264242646,0.01342,72.72062854,
0.01344,0.5352969121,0.01344,73.08605883,
0.01346,1.2661575,0.01346,73.08605883,
0.01348,0.9007272063,0.01348,72.72062854,
0.0135,1.2661575,0.0135,72.72062854,
0.01352,2.362448383,0.01352,73.08605883,
0.01354,1.2661575,0.01354,72.35519825,
0.01356,2.362448383,0.01356,72.35519825,
0.01358,1.997018089,0.01358,72.72062854,
0.0136,0.9007272063,0.0136,72.72062854,
0.01362,0.5352969121,0.01362,72.35519825,
0.01364,0.5352969121,0.01364,72.72062854,
0.01366,-1.657284853,0.01366,72.72062854,
0.01368,-0.9264242646,0.01368,72.72062854,
0.0137,-0.5609939704,0.0137,73.45148913,
0.01372,0.9007272063,0.01372,72.72062854,
0.01374,1.631587795,0.01374,72.35519825,
0.01376,0.1698666179,0.01376,72.72062854,
0.01378,-0.5609939704,0.01378,72.35519825,
0.0138,-0.5609939704,0.0138,72.72062854,
0.01382,-0.9264242646,0.01382,73.81691942,
0.01384,-3.849866618,0.01384,71.62433766,
0.01386,-2.388145441,0.01386,71.62433766,
0.01388,-3.484436324,0.01388,73.81691942,
0.0139,-3.11900603,0.0139,73.45148913,
0.01392,-1.657284853,0.01392,71.62433766,
0.01394,-1.291854559,0.01394,73.45148913,
0.01396,-1.291854559,0.01396,73.08605883,
0.01398,-0.5609939704,0.01398,72.72062854,
0.014,1.2661575,0.014,73.08605883,
0.01402,-0.1955636762,0.01402,73.45148913,
0.01404,0.5352969121,0.01404,73.08605883,
0.01406,-0.9264242646,0.01406,73.08605883,
0.01408,-1.657284853,0.01408,72.72062854,
0.0141,-0.9264242646,0.0141,72.72062854,
0.01412,0.1698666179,0.01412,73.08605883,
0.01414,-1.291854559,0.01414,73.08605883,
0.01416,-0.5609939704,0.01416,72.72062854,
0.01418,-0.5609939704,0.01418,72.72062854,
0.0142,-0.1955636762,0.0142,73.08605883,
0.01422,0.5352969121,0.01422,72.35519825,
0.01424,0.1698666179,0.01424,72.72062854,
0.01426,1.2661575,0.01426,72.72062854,
0.01428,1.2661575,0.01428,72.35519825,
0.0143,-0.1955636762,0.0143,73.45148913,
0.01432,0.9007272063,0.01432,72.72062854,
0.01434,0.5352969121,0.01434,72.35519825,
0.01436,0.1698666179,0.01436,72.72062854,
0.01438,0.1698666179,0.01438,73.08605883,
0.0144,0.9007272063,0.0144,72.72062854,
0.01442,-0.1955636762,0.01442,72.72062854,
0.01444,0.9007272063,0.01444,73.08605883,
0.01446,3.093308971,0.01446,72.72062854,
0.01448,2.362448383,0.01448,73.08605883,
0.0145,1.631587795,0.0145,72.35519825,
0.01452,2.362448383,0.01452,73.08605883,
0.01454,2.362448383,0.01454,73.08605883,
0.01456,-0.1955636762,0.01456,73.08605883,
0.01458,2.362448383,0.01458,72.72062854,
0.0146,0.5352969121,0.0146,73.45148913,
0.01462,-1.291854559,0.01462,73.08605883,
0.01464,0.1698666179,0.01464,72.72062854,
0.01466,-0.9264242646,0.01466,73.08605883,
0.01468,0.5352969121,0.01468,73.08605883,
0.0147,0.9007272063,0.0147,72.35519825,
0.01472,1.2661575,0.01472,73.45148913,
0.01474,0.9007272063,0.01474,71.98976795,
0.01476,1.997018089,0.01476,72.72062854,
0.01478,0.9007272063,0.01478,73.81691942,
0.0148,0.5352969121,0.0148,73.08605883,
0.01482,-1.291854559,0.01482,71.98976795,
0.01484,-2.022715147,0.01484,73.81691942,
0.01486,-2.022715147,0.01486,72.72062854,
0.01488,-3.484436324,0.01488,73.08605883,
0.0149,-2.753575735,0.0149,73.45148913,
0.01492,-1.657284853,0.01492,72.35519825,
0.01494,-1.291854559,0.01494,73.08605883,
0.01496,-0.1955636762,0.01496,73.08605883,
0.01498,-0.1955636762,0.01498,73.08605883,
0.015,0.1698666179,0.015,73.08605883,
0.01502,0.5352969121,0.01502,72.72062854,
0.01504,-0.5609939704,0.01504,72.72062854,
0.01506,0.1698666179,0.01506,72.72062854,
0.01508,-0.5609939704,0.01508,73.08605883,
0.0151,-0.1955636762,0.0151,72.72062854,
0.01512,0.5352969121,0.01512,72.72062854,
0.01514,-0.1955636762,0.01514,73.08605883,
0.01516,0.1698666179,0.01516,72.35519825,
0.01518,0.9007272063,0.01518,73.08605883,
0.0152,1.2661575,0.0152,73.08605883,
0.01522,1.2661575,0.01522,72.72062854,
0.01524,1.631587795,0.01524,73.08605883,
0.01526,1.2661575,0.01526,73.08605883,
0.01528,0.1698666179,0.01528,73.08605883,
0.0153,1.2661575,0.0153,72.72062854,
0.01532,-0.1955636762,0.01532,72.72062854,
0.01534,-0.1955636762,0.01534,72.72062854,
0.01536,1.2661575,0.01536,72.35519825,
0.01538,-0.1955636762,0.01538,72.35519825,
0.0154,0.1698666179,0.0154,72.72062854,
0.01542,0.9007272063,0.01542,72.72062854,
0.01544,1.997018089,0.01544,72.72062854,
0.01546,2.727878677,0.01546,73.08605883,
0.01548,2.727878677,0.01548,72.72062854,
0.0155,2.362448383,0.0155,72.72062854,
0.01552,1.631587795,0.01552,72.72062854,
0.01554,0.5352969121,0.01554,72.72062854,
0.01556,1.2661575,0.01556,73.08605883,
0.01558,0.1698666179,0.01558,72.72062854,
0.0156,0.5352969121,0.0156,72.72062854,
0.01562,-0.1955636762,0.01562,73.45148913,
0.01564,-1.291854559,0.01564,73.08605883,
0.01566,0.1698666179,0.01566,72.72062854,
0.01568,0.9007272063,0.01568,72.35519825,
0.0157,1.2661575,0.0157,72.72062854,
0.01572,0.5352969121,0.01572,71.62433766,
0.01574,0.9007272063,0.01574,72.72062854,
0.01576,-0.1955636762,0.01576,72.35519825,
0.01578,0.5352969121,0.01578,72.35519825,
0.0158,-1.291854559,0.0158,73.08605883,
0.01582,-0.9264242646,0.01582,72.35519825,
0.01584,1.2661575,0.01584,72.72062854,
0.01586,-1.291854559,0.01586,73.08605883,
0.01588,-2.022715147,0.01588,72.72062854,
0.0159,-0.9264242646,0.0159,71.62433766,
0.01592,-2.022715147,0.01592,73.08605883,
0.01594,0.9007272063,0.01594,72.72062854,
0.01596,0.9007272063,0.01596,72.72062854,
0.01598,-0.9264242646,0.01598,73.08605883,
0.016,0.1698666179,0.016,72.72062854,
0.01602,-1.657284853,0.01602,71.98976795,
0.01604,-0.9264242646,0.01604,73.08605883,
0.01606,-1.291854559,0.01606,72.35519825,
0.01608,-1.291854559,0.01608,71.98976795,
0.0161,-0.1955636762,0.0161,72.72062854,
0.01612,-0.1955636762,0.01612,73.08605883,
0.01614,0.5352969121,0.01614,71.98976795,
0.01616,0.9007272063,0.01616,72.72062854,
0.01618,1.2661575,0.01618,72.72062854,
0.0162,1.997018089,0.0162,71.98976795,
0.01622,0.5352969121,0.01622,73.08605883,
0.01624,-0.5609939704,0.01624,73.08605883,
0.01626,1.2661575,0.01626,71.98976795,
0.01628,0.9007272063,0.01628,72.35519825,
0.0163,1.2661575,0.0163,72.72062854,
0.01632,0.1698666179,0.01632,72.35519825,
0.01634,0.9007272063,0.01634,72.72062854,
0.01636,-0.1955636762,0.01636,73.08605883,
0.01638,1.2661575,0.01638,72.35519825,
0.0164,1.631587795,0.0164,73.08605883,
0.01642,2.362448383,0.01642,72.72062854,
0.01644,1.631587795,0.01644,72.72062854,
0.01646,1.2661575,0.01646,72.72062854,
0.01648,2.362448383,0.01648,72.72062854,
0.0165,0.9007272063,0.0165,71.98976795,
0.01652,0.5352969121,0.01652,73.08605883,
0.01654,0.1698666179,0.01654,72.72062854,
0.01656,-0.1955636762,0.01656,72.35519825,
0.01658,0.1698666179,0.01658,73.08605883,
0.0166,0.1698666179,0.0166,72.35519825,
0.01662,-0.9264242646,0.01662,72.35519825,
0.01664,0.5352969121,0.01664,72.72062854,
0.01666,0.9007272063,0.01666,72.35519825,
0.01668,1.2661575,0.01668,72.35519825,
0.0167,1.631587795,0.0167,73.45148913,
0.01672,-0.1955636762,0.01672,72.72062854,
0.01674,-0.1955636762,0.01674,71.62433766,
0.01676,-2.753575735,0.01676,72.72062854,
0.01678,0.5352969121,0.01678,71.98976795,
0.0168,-1.657284853,0.0168,71.62433766,
0.01682,-3.849866618,0.01682,72.72062854,
0.01684,0.1698666179,0.01684,72.35519825,
0.01686,-2.022715147,0.01686,72.35519825,
0.01688,-0.5609939704,0.01688,72.35519825,
0.0169,-0.5609939704,0.0169,72.72062854,
0.01692,1.2661575,0.01692,72.35519825,
0.01694,0.9007272063,0.01694,72.35519825,
0.01696,-0.9264242646,0.01696,73.08605883,
0.01698,-0.5609939704,0.01698,71.98976795,
0.017,-0.9264242646,0.017,72.72062854,
0.01702,-1.291854559,0.01702,73.08605883,
0.01704,-1.291854559,0.01704,71.98976795,
0.01706,-0.9264242646,0.01706,73.08605883,
0.01708,-0.9264242646,0.01708,72.72062854,
0.0171,-0.5609939704,0.0171,71.98976795,
0.01712,0.1698666179,0.01712,72.72062854,
0.01714,0.9007272063,0.01714,73.08605883,
0.01716,0.1698666179,0.01716,71.98976795,
0.01718,1.997018089,0.01718,72.35519825,
0.0172,0.9007272063,0.0172,72.72062854,
0.01722,-0.1955636762,0.01722,73.08605883,
0.01724,1.2661575,0.01724,72.72062854,
0.01726,1.631587795,0.01726,72.72062854,
0.01728,-0.1955636762,0.01728,71.98976795,
0.0173,0.9007272063,0.0173,72.35519825,
0.01732,0.5352969121,0.01732,73.08605883,
0.01734,0.1698666179,0.01734,72.35519825,
0.01736,0.9007272063,0.01736,72.72062854,
0.01738,1.631587795,0.01738,72.72062854,
0.0174,1.631587795,0.0174,71.98976795,
0.01742,2.362448383,0.01742,72.35519825,
0.01744,1.2661575,0.01744,72.72062854,
0.01746,1.631587795,0.01746,71.98976795,
0.01748,1.2661575,0.01748,72.35519825,
0.0175,1.2661575,0.0175,72.35519825,
0.01752,-0.1955636762,0.01752,72.72062854,
0.01754,0.9007272063,0.01754,73.08605883,
0.01756,-0.5609939704,0.01756,73.08605883,
0.01758,-1.291854559,0.01758,72.35519825,
0.0176,-0.1955636762,0.0176,73.08605883,
0.01762,0.1698666179,0.01762,72.35519825,
0.01764,0.9007272063,0.01764,72.35519825,
0.01766,1.2661575,0.01766,73.08605883,
0.01768,1.631587795,0.01768,72.35519825,
0.0177,1.2661575,0.0177,72.72062854,
0.01772,-0.1955636762,0.01772,73.45148913,
0.01774,-4.580727206,0.01774,71.98976795,
0.01776,0.1698666179,0.01776,73.45148913,
0.01778,-1.291854559,0.01778,73.08605883,
0.0178,-4.580727206,0.0178,71.98976795,
0.01782,-2.022715147,0.01782,72.35519825,
0.01784,-2.022715147,0.01784,71.98976795,
0.01786,-0.1955636762,0.01786,72.35519825,
0.01788,-0.1955636762,0.01788,72.72062854,
0.0179,0.5352969121,0.0179,73.08605883,
0.01792,0.5352969121,0.01792,72.72062854,
0.01794,0.1698666179,0.01794,72.35519825,
0.01796,-0.1955636762,0.01796,73.45148913,
0.01798,-1.657284853,0.01798,72.72062854,
0.018,-1.291854559,0.018,72.72062854,
0.01802,-0.1955636762,0.01802,73.08605883,
0.01804,-1.657284853,0.01804,72.72062854,
0.01806,-0.5609939704,0.01806,72.35519825,
0.01808,-0.1955636762,0.01808,73.45148913,
0.0181,0.1698666179,0.0181,72.72062854,
0.01812,0.1698666179,0.01812,71.98976795,
0.01814,1.631587795,0.01814,73.08605883,
0.01816,1.2661575,0.01816,72.35519825,
0.01818,0.9007272063,0.01818,72.72062854,
0.0182,-0.5609939704,0.0182,73.08605883,
0.01822,-0.1955636762,0.01822,72.72062854,
0.01824,0.9007272063,0.01824,72.72062854,
0.01826,-0.9264242646,0.01826,73.08605883,
0.01828,-0.1955636762,0.01828,72.72062854,
0.0183,-0.9264242646,0.0183,72.72062854,
0.01832,1.2661575,0.01832,73.08605883,
0.01834,0.9007272063,0.01834,72.35519825,
0.01836,1.2661575,0.01836,72.35519825,
0.01838,0.9007272063,0.01838,73.08605883,
0.0184,1.997018089,0.0184,72.35519825,
0.01842,3.458739265,0.01842,72.35519825,
0.01844,1.997018089,0.01844,73.45148913,
0.01846,1.2661575,0.01846,72.72062854,
0.01848,1.2661575,0.01848,72.72062854,
0.0185,0.5352969121,0.0185,72.72062854,
0.01852,0.9007272063,0.01852,73.08605883,
0.01854,0.5352969121,0.01854,72.35519825,
0.01856,0.1698666179,0.01856,73.08605883,
0.01858,0.9007272063,0.01858,72.72062854,
0.0186,-0.1955636762,0.0186,72.35519825,
0.01862,1.997018089,0.01862,73.45148913,
0.01864,0.1698666179,0.01864,73.08605883,
0.01866,2.362448383,0.01866,71.98976795,
0.01868,0.9007272063,0.01868,72.72062854,
0.0187,-2.388145441,0.0187,72.35519825,
0.01872,-0.9264242646,0.01872,72.35519825,
0.01874,-1.657284853,0.01874,74.18234972,
0.01876,-3.484436324,0.01876,73.45148913,
0.01878,-0.9264242646,0.01878,72.72062854,
0.0188,-2.022715147,0.0188,71.62433766,
0.01882,-3.484436324,0.01882,71.25890736,
0.01884,-0.9264242646,0.01884,71.62433766,
0.01886,-0.5609939704,0.01886,73.81691942,
0.01888,-0.5609939704,0.01888,72.35519825,
0.0189,-0.9264242646,0.0189,72.72062854,
0.01892,1.631587795,0.01892,72.35519825,
0.01894,-0.9264242646,0.01894,72.72062854,
0.01896,0.9007272063,0.01896,72.72062854,
0.01898,-1.657284853,0.01898,73.08605883,
0.019,-0.5609939704,0.019,72.72062854,
0.01902,0.5352969121,0.01902,72.35519825,
0.01904,-0.1955636762,0.01904,73.08605883,
0.01906,0.5352969121,0.01906,72.72062854,
0.01908,1.2661575,0.01908,72.35519825,
0.0191,0.9007272063,0.0191,73.08605883,
0.01912,0.9007272063,0.01912,72.72062854,
0.01914,0.9007272063,0.01914,72.35519825,
0.01916,1.631587795,0.01916,73.45148913,
0.01918,0.9007272063,0.01918,72.72062854,
0.0192,0.9007272063,0.0192,72.35519825,
0.01922,0.1698666179,0.01922,73.08605883,
0.01924,-0.1955636762,0.01924,72.72062854,
0.01926,0.1698666179,0.01926,72.35519825,
0.01928,1.2661575,0.01928,73.08605883,
0.0193,0.9007272063,0.0193,73.08605883,
0.01932,-0.1955636762,0.01932,72.72062854,
0.01934,1.631587795,0.01934,73.08605883,
0.01936,2.362448383,0.01936,72.35519825,
0.01938,2.727878677,0.01938,72.35519825,
0.0194,3.093308971,0.0194,73.45148913,
0.01942,3.093308971,0.01942,72.72062854,
0.01944,0.5352969121,0.01944,73.08605883,
0.01946,0.1698666179,0.01946,72.72062854,
0.01948,0.9007272063,0.01948,73.08605883,
0.0195,-0.1955636762,0.0195,73.08605883,
0.01952,-0.9264242646,0.01952,73.08605883,
0.01954,-0.9264242646,0.01954,72.72062854,
0.01956,0.1698666179,0.01956,73.08605883,
0.01958,-0.1955636762,0.01958,72.72062854,
0.0196,1.631587795,0.0196,72.35519825,
0.01962,0.9007272063,0.01962,72.72062854,
0.01964,1.2661575,0.01964,73.08605883,
0.01966,-1.657284853,0.01966,72.35519825,
0.01968,0.9007272063,0.01968,73.81691942,
0.0197,-1.291854559,0.0197,73.45148913,
0.01972,-3.484436324,0.01972,73.45148913,
0.01974,-0.9264242646,0.01974,72.72062854,
0.01976,-3.849866618,0.01976,74.18234972,
0.01978,0.9007272063,0.01978,73.08605883,
0.0198,0.9007272063,0.0198,73.08605883,
0.01982,-0.9264242646,0.01982,71.98976795,
0.01984,0.9007272063,0.01984,73.08605883,
0.01986,0.1698666179,0.01986,73.45148913,
0.01988,0.1698666179,0.01988,73.08605883,
0.0199,1.2661575,0.0199,72.72062854,
0.01992,0.5352969121,0.01992,73.08605883,
0.01994,-0.9264242646,0.01994,72.72062854,
0.01996,-0.9264242646,0.01996,72.72062854,
0.01998,-1.291854559,0.01998,73.08605883,
0.02,-1.291854559,0.02,72.35519825,
0.02002,-0.1955636762,0.02002,72.72062854,
0.02004,0.5352969121,0.02004,73.08605883,
0.02006,0.9007272063,0.02006,72.72062854,
0.02008,1.631587795,0.02008,72.35519825,
0.0201,0.5352969121,0.0201,73.45148913,
0.02012,1.631587795,0.02012,72.72062854,
0.02014,0.1698666179,0.02014,72.35519825,
0.02016,1.997018089,0.02016,72.72062854,
0.02018,-0.1955636762,0.02018,73.08605883,
0.0202,1.631587795,0.0202,72.35519825,
0.02022,0.9007272063,0.02022,72.72062854,
0.02024,0.5352969121,0.02024,73.45148913,
0.02026,0.9007272063,0.02026,72.35519825,
0.02028,0.1698666179,0.02028,72.72062854,
0.0203,0.9007272063,0.0203,73.08605883,
0.02032,1.997018089,0.02032,72.35519825,
0.02034,1.997018089,0.02034,73.45148913,
0.02036,1.631587795,0.02036,72.72062854,
0.02038,2.362448383,0.02038,72.35519825,
0.0204,3.093308971,0.0204,73.08605883,
0.02042,1.2661575,0.02042,72.72062854,
0.02044,0.9007272063,0.02044,72.35519825,
0.02046,0.1698666179,0.02046,73.45148913,
0.02048,-0.1955636762,0.02048,73.08605883,
0.0205,0.1698666179,0.0205,72.72062854,
0.02052,0.9007272063,0.02052,72.72062854,
0.02054,0.1698666179,0.02054,73.08605883,
0.02056,0.1698666179,0.02056,72.72062854,
0.02058,0.9007272063,0.02058,73.08605883,
0.0206,-0.5609939704,0.0206,73.08605883,
0.02062,-0.9264242646,0.02062,73.45148913,
0.02064,1.997018089,0.02064,73.81691942,
0.02066,-0.5609939704,0.02066,73.45148913,
0.02068,-0.9264242646,0.02068,74.18234972,
0.0207,-1.291854559,0.0207,72.72062854,
0.02072,-2.388145441,0.02072,73.45148913,
0.02074,-2.388145441,0.02074,72.72062854,
0.02076,-2.022715147,0.02076,72.72062854,
0.02078,-2.388145441,0.02078,73.08605883,
0.0208,-0.9264242646,0.0208,72.35519825,
0.02082,-0.5609939704,0.02082,73.08605883,
0.02084,0.1698666179,0.02084,72.35519825,
0.02086,-0.5609939704,0.02086,72.72062854,
0.02088,-1.291854559,0.02088,72.35519825,
0.0209,0.1698666179,0.0209,72.35519825,
0.02092,-0.1955636762,0.02092,73.08605883,
0.02094,-1.291854559,0.02094,72.72062854,
0.02096,-0.5609939704,0.02096,72.35519825,
0.02098,-0.5609939704,0.02098,72.72062854,
0.021,-0.1955636762,0.021,72.72062854,
0.02102,0.1698666179,0.02102,72.72062854,
0.02104,1.997018089,0.02104,72.72062854,
0.02106,0.9007272063,0.02106,72.72062854,
0.02108,0.5352969121,0.02108,72.35519825,
0.0211,1.631587795,0.0211,73.81691942,
0.02112,0.1698666179,0.02112,72.72062854,
0.02114,0.5352969121,0.02114,72.72062854,
0.02116,1.2661575,0.02116,73.08605883,
0.02118,0.9007272063,0.02118,72.72062854,
0.0212,-0.1955636762,0.0212,72.72062854,
0.02122,0.1698666179,0.02122,73.08605883,
0.02124,-0.1955636762,0.02124,72.35519825,
0.02126,-0.1955636762,0.02126,72.72062854,
0.02128,0.9007272063,0.02128,73.08605883,
0.0213,0.9007272063,0.0213,72.72062854,
0.02132,1.631587795,0.02132,72.72062854,
0.02134,1.997018089,0.02134,73.81691942,
0.02136,1.997018089,0.02136,72.35519825,
0.02138,1.2661575,0.02138,72.35519825,
0.0214,1.2661575,0.0214,73.08605883,
0.02142,-0.1955636762,0.02142,73.08605883,
0.02144,-0.1955636762,0.02144,72.35519825,
0.02146,-1.291854559,0.02146,72.72062854,
0.02148,0.1698666179,0.02148,73.08605883,
0.0215,-0.9264242646,0.0215,72.35519825,
0.02152,0.1698666179,0.02152,73.08605883,
0.02154,0.5352969121,0.02154,72.72062854,
0.02156,0.5352969121,0.02156,72.72062854,
0.02158,0.1698666179,0.02158,73.45148913,
0.0216,-0.5609939704,0.0216,73.45148913,
0.02162,1.631587795,0.02162,73.08605883,
0.02164,-0.5609939704,0.02164,72.35519825,
0.02166,-1.291854559,0.02166,72.72062854,
0.02168,-3.11900603,0.02168,71.62433766,
0.0217,-1.657284853,0.0217,71.98976795,
0.02172,-2.753575735,0.02172,72.72062854,
0.02174,-2.753575735,0.02174,73.08605883,
0.02176,-1.291854559,0.02176,73.08605883,
0.02178,-0.5609939704,0.02178,71.62433766,
0.0218,-0.1955636762,0.0218,71.98976795,
0.02182,0.5352969121,0.02182,72.72062854,
0.02184,0.5352969121,0.02184,72.72062854,
0.02186,0.1698666179,0.02186,72.72062854,
0.02188,-0.9264242646,0.02188,72.72062854,
0.0219,-2.388145441,0.0219,72.35519825,
0.02192,-0.5609939704,0.02192,72.72062854,
0.02194,-1.291854559,0.02194,72.72062854,
0.02196,-0.1955636762,0.02196,73.08605883,
0.02198,-0.5609939704,0.02198,72.72062854,
0.022,0.5352969121,0.022,73.08605883,
0.02202,0.5352969121,0.02202,72.35519825,
0.02204,1.2661575,0.02204,72.35519825,
0.02206,1.631587795,0.02206,73.08605883,
0.02208,0.5352969121,0.02208,72.72062854,
0.0221,1.2661575,0.0221,72.35519825,
0.02212,1.2661575,0.02212,73.08605883,
0.02214,-0.5609939704,0.02214,72.35519825,
0.02216,-0.1955636762,0.02216,72.72062854,
0.02218,0.5352969121,0.02218,73.45148913,
0.0222,-0.5609939704,0.0222,72.72062854,
0.02222,-0.1955636762,0.02222,72.72062854,
0.02224,0.1698666179,0.02224,73.08605883,
0.02226,0.5352969121,0.02226,72.72062854,
0.02228,0.9007272063,0.02228,72.72062854,
0.0223,1.631587795,0.0223,73.08605883,
0.02232,1.631587795,0.02232,72.72062854,
0.02234,2.727878677,0.02234,73.45148913,
0.02236,1.2661575,0.02236,72.72062854,
0.02238,1.631587795,0.02238,72.72062854,
0.0224,-0.5609939704,0.0224,73.08605883,
0.02242,0.5352969121,0.02242,72.72062854,
0.02244,0.9007272063,0.02244,72.72062854,
0.02246,0.1698666179,0.02246,73.08605883,
0.02248,-0.9264242646,0.02248,72.72062854,
0.0225,0.1698666179,0.0225,72.35519825,
0.02252,0.9007272063,0.02252,73.45148913,
0.02254,0.9007272063,0.02254,72.72062854,
0.02256,1.631587795,0.02256,72.72062854,
0.02258,0.5352969121,0.02258,72.72062854,
0.0226,0.1698666179,0.0226,73.08605883,
0.02262,2.362448383,0.02262,72.35519825,
0.02264,-2.388145441,0.02264,72.72062854,
0.02266,-2.753575735,0.02266,73.08605883,
0.02268,-1.291854559,0.02268,72.35519825,
0.0227,-2.388145441,0.0227,72.72062854,
0.02272,-2.022715147,0.02272,73.45148913,
0.02274,-0.5609939704,0.02274,71.98976795,
0.02276,-0.1955636762,0.02276,73.08605883,
0.02278,-0.1955636762,0.02278,72.72062854,
0.0228,-0.1955636762,0.0228,72.35519825,
0.02282,1.631587795,0.02282,72.35519825,
0.02284,-0.5609939704,0.02284,72.72062854,
0.02286,-0.1955636762,0.02286,72.35519825,
0.02288,-0.1955636762,0.02288,72.72062854,
0.0229,-2.388145441,0.0229,73.08605883,
0.02292,-0.9264242646,0.02292,72.35519825,
0.02294,0.1698666179,0.02294,73.08605883,
0.02296,-0.5609939704,0.02296,73.08605883,
0.02298,0.9007272063,0.02298,72.72062854,
0.023,1.631587795,0.023,72.72062854,
0.02302,0.1698666179,0.02302,73.08605883,
0.02304,1.631587795,0.02304,72.35519825,
0.02306,1.2661575,0.02306,73.45148913,
0.02308,0.1698666179,0.02308,72.72062854,
0.0231,0.9007272063,0.0231,73.08605883,
0.02312,1.2661575,0.02312,72.35519825,
0.02314,-0.1955636762,0.02314,72.35519825,
0.02316,0.5352969121,0.02316,72.35519825,
0.02318,0.1698666179,0.02318,73.08605883,
0.0232,-0.1955636762,0.0232,73.08605883,
0.02322,1.997018089,0.02322,72.35519825,
0.02324,1.631587795,0.02324,73.08605883,
0.02326,1.2661575,0.02326,73.08605883,
0.02328,2.362448383,0.02328,72.72062854,
0.0233,1.631587795,0.0233,72.72062854,
0.02332,1.631587795,0.02332,72.72062854,
0.02334,2.362448383,0.02334,72.72062854,
0.02336,1.2661575,0.02336,73.08605883,
0.02338,0.9007272063,0.02338,73.08605883,
0.0234,0.1698666179,0.0234,72.35519825,
0.02342,0.5352969121,0.02342,72.72062854,
0.02344,-0.5609939704,0.02344,73.08605883,
0.02346,1.2661575,0.02346,72.35519825,
0.02348,0.9007272063,0.02348,73.08605883,
0.0235,0.9007272063,0.0235,73.08605883,
0.02352,2.727878677,0.02352,72.35519825,
0.02354,1.2661575,0.02354,72.72062854,
0.02356,-0.9264242646,0.02356,73.08605883,
0.02358,1.997018089,0.02358,71.98976795,
0.0236,0.1698666179,0.0236,72.35519825,
0.02362,-3.484436324,0.02362,72.35519825,
0.02364,-4.215296912,0.02364,73.08605883,
0.02366,-3.11900603,0.02366,73.45148913,
0.02368,-1.657284853,0.02368,71.98976795,
0.0237,-0.1955636762,0.0237,71.98976795,
0.02372,0.5352969121,0.02372,73.45148913,
0.02374,-0.1955636762,0.02374,72.72062854,
0.02376,0.5352969121,0.02376,72.35519825,
0.02378,0.5352969121,0.02378,73.08605883,
0.0238,-0.1955636762,0.0238,72.72062854,
0.02382,-0.1955636762,0.02382,73.08605883,
0.02384,-1.291854559,0.02384,73.08605883,
0.02386,-1.291854559,0.02386,72.35519825,
0.02388,-0.1955636762,0.02388,71.98976795,
0.0239,-0.1955636762,0.0239,73.08605883,
0.02392,0.1698666179,0.02392,72.72062854,
0.02394,0.1698666179,0.02394,71.98976795,
0.02396,0.1698666179,0.02396,72.72062854,
0.02398,0.5352969121,0.02398,72.72062854,
0.024,3.093308971,0.024,72.35519825,
0.02402,0.9007272063,0.02402,72.72062854,
0.02404,0.9007272063,0.02404,72.35519825,
0.02406,1.2661575,0.02406,72.72062854,
0.02408,0.1698666179,0.02408,73.08605883,
0.0241,0.5352969121,0.0241,73.08605883,
0.02412,1.631587795,0.02412,72.72062854,
0.02414,0.5352969121,0.02414,73.08605883,
0.02416,-0.5609939704,0.02416,72.35519825,
0.02418,1.2661575,0.02418,72.35519825,
0.0242,-0.1955636762,0.0242,72.35519825,
0.02422,0.5352969121,0.02422,72.72062854,
0.02424,0.9007272063,0.02424,72.72062854,
0.02426,1.631587795,0.02426,72.35519825,
0.02428,2.362448383,0.02428,73.08605883,
0.0243,1.631587795,0.0243,72.35519825,
0.02432,0.9007272063,0.02432,72.35519825,
0.02434,1.997018089,0.02434,72.35519825,
0.02436,1.631587795,0.02436,72.72062854,
0.02438,0.5352969121,0.02438,72.35519825,
0.0244,-0.5609939704,0.0244,72.72062854,
0.02442,-0.1955636762,0.02442,72.72062854,
0.02444,-0.1955636762,0.02444,72.35519825,
0.02446,1.2661575,0.02446,72.72062854,
0.02448,1.631587795,0.02448,72.72062854,
0.0245,1.631587795,0.0245,72.35519825,
0.02452,1.997018089,0.02452,72.35519825,
0.02454,-0.1955636762,0.02454,71.98976795,
0.02456,0.5352969121,0.02456,70.89347707,
0.02458,2.727878677,0.02458,73.08605883,
0.0246,-2.388145441,0.0246,72.35519825,
0.02462,-1.657284853,0.02462,71.98976795,
0.02464,1.2661575,0.02464,71.62433766,
0.02466,-2.022715147,0.02466,72.72062854,
0.02468,-1.291854559,0.02468,72.72062854,
0.0247,-1.291854559,0.0247,72.72062854,
0.02472,1.631587795,0.02472,72.35519825,
0.02474,0.9007272063,0.02474,71.98976795,
0.02476,0.9007272063,0.02476,72.35519825,
0.02478,0.5352969121,0.02478,72.72062854,
0.0248,0.1698666179,0.0248,71.98976795,
0.02482,-0.5609939704,0.02482,72.72062854,
0.02484,-0.1955636762,0.02484,72.35519825,
0.02486,0.1698666179,0.02486,71.98976795,
0.02488,0.5352969121,0.02488,72.72062854,
0.0249,0.5352969121,0.0249,72.35519825,
0.02492,-0.9264242646,0.02492,72.35519825,
0.02494,0.5352969121,0.02494,72.35519825,
0.02496,2.362448383,0.02496,72.35519825,
0.02498,1.2661575,0.02498,72.35519825,
0.025,1.631587795,0.025,72.35519825,
0.02502,2.362448383,0.02502,72.72062854,
0.02504,0.9007272063,0.02504,72.35519825,
0.02506,1.631587795,0.02506,72.72062854,
0.02508,0.9007272063,0.02508,72.72062854,
0.0251,1.2661575,0.0251,71.98976795,
0.02512,1.2661575,0.02512,73.08605883,
0.02514,1.2661575,0.02514,72.72062854,
0.02516,0.5352969121,0.02516,72.35519825,
0.02518,1.631587795,0.02518,72.72062854,
0.0252,1.997018089,0.0252,72.35519825,
0.02522,1.631587795,0.02522,71.98976795,
0.02524,2.362448383,0.02524,72.72062854,
0.02526,2.362448383,0.02526,72.72062854,
0.02528,2.727878677,0.02528,72.35519825,
0.0253,1.631587795,0.0253,72.35519825,
0.02532,1.2661575,0.02532,72.72062854,
0.02534,0.9007272063,0.02534,71.98976795,
0.02536,0.5352969121,0.02536,72.72062854,
0.02538,-0.5609939704,0.02538,73.08605883,
0.0254,-0.5609939704,0.0254,71.62433766,
0.02542,0.9007272063,0.02542,72.35519825,
0.02544,1.631587795,0.02544,72.35519825,
0.02546,1.2661575,0.02546,71.62433766,
0.02548,1.2661575,0.02548,72.72062854,
0.0255,1.997018089,0.0255,72.35519825,
0.02552,-1.291854559,0.02552,72.35519825,
0.02554,2.362448383,0.02554,71.98976795,
0.02556,-0.1955636762,0.02556,71.98976795,
0.02558,0.1698666179,0.02558,72.72062854,
0.0256,1.631587795,0.0256,73.08605883,
0.02562,-3.11900603,0.02562,73.81691942,
0.02564,-2.753575735,0.02564,73.08605883,
0.02566,0.1698666179,0.02566,72.35519825,
0.02568,-0.9264242646,0.02568,71.98976795,
0.0257,-1.291854559,0.0257,72.72062854,
0.02572,1.997018089,0.02572,72.35519825,
0.02574,-0.1955636762,0.02574,72.72062854,
0.02576,0.1698666179,0.02576,73.45148913,
0.02578,-1.657284853,0.02578,73.08605883,
0.0258,-1.291854559,0.0258,73.45148913,
0.02582,-0.5609939704,0.02582,73.08605883,
0.02584,-0.9264242646,0.02584,72.72062854,
0.02586,-0.1955636762,0.02586,72.35519825,
0.02588,-0.1955636762,0.02588,73.08605883,
0.0259,1.2661575,0.0259,73.08605883,
0.02592,-0.1955636762,0.02592,73.08605883,
0.02594,1.997018089,0.02594,73.08605883,
0.02596,3.093308971,0.02596,72.35519825,
0.02598,2.362448383,0.02598,72.72062854,
0.026,0.9007272063,0.026,73.08605883,
0.02602,0.9007272063,0.02602,72.72062854,
0.02604,0.9007272063,0.02604,72.35519825,
0.02606,0.9007272063,0.02606,73.08605883,
0.02608,0.5352969121,0.02608,72.35519825,
0.0261,0.1698666179,0.0261,72.35519825,
0.02612,-0.1955636762,0.02612,72.72062854,
0.02614,1.2661575,0.02614,72.35519825,
0.02616,1.2661575,0.02616,73.08605883,
0.02618,1.997018089,0.02618,72.72062854,
0.0262,3.093308971,0.0262,72.72062854,
0.02622,1.997018089,0.02622,72.72062854,
0.02624,1.2661575,0.02624,72.35519825,
0.02626,0.5352969121,0.02626,71.98976795,
0.02628,1.631587795,0.02628,72.72062854,
0.0263,0.1698666179,0.0263,72.35519825,
0.02632,0.1698666179,0.02632,71.98976795,
0.02634,0.1698666179,0.02634,73.45148913,
0.02636,0.1698666179,0.02636,73.08605883,
0.02638,-0.9264242646,0.02638,72.35519825,
0.0264,-1.291854559,0.0264,73.08605883,
0.02642,0.5352969121,0.02642,71.98976795,
0.02644,1.2661575,0.02644,71.62433766,
0.02646,0.9007272063,0.02646,73.45148913,
0.02648,0.5352969121,0.02648,72.72062854,
0.0265,-0.9264242646,0.0265,73.08605883,
0.02652,0.1698666179,0.02652,72.35519825,
0.02654,-3.11900603,0.02654,72.72062854,
0.02656,0.1698666179,0.02656,71.98976795,
0.02658,-2.753575735,0.02658,73.81691942,
0.0266,-0.9264242646,0.0266,72.35519825,
0.02662,-0.9264242646,0.02662,71.98976795,
0.02664,0.9007272063,0.02664,72.35519825,
0.02666,-0.5609939704,0.02666,72.72062854,
0.02668,-0.5609939704,0.02668,71.98976795,
0.0267,-0.5609939704,0.0267,73.45148913,
0.02672,-1.657284853,0.02672,71.98976795,
0.02674,-1.291854559,0.02674,72.72062854,
0.02676,-0.5609939704,0.02676,72.72062854,
0.02678,-1.291854559,0.02678,72.72062854,
0.0268,-1.291854559,0.0268,72.35519825,
0.02682,-0.9264242646,0.02682,73.08605883,
0.02684,0.1698666179,0.02684,72.35519825,
0.02686,0.5352969121,0.02686,72.35519825,
0.02688,0.5352969121,0.02688,73.08605883,
0.0269,0.9007272063,0.0269,72.72062854,
0.02692,1.631587795,0.02692,72.35519825,
0.02694,0.9007272063,0.02694,73.45148913,
0.02696,0.5352969121,0.02696,73.08605883,
0.02698,0.5352969121,0.02698,71.98976795,
0.027,0.9007272063,0.027,73.08605883,
0.02702,2.362448383,0.02702,72.35519825,
0.02704,1.2661575,0.02704,72.35519825,
0.02706,0.5352969121,0.02706,73.08605883,
0.02708,0.5352969121,0.02708,72.35519825,
0.0271,0.1698666179,0.0271,72.35519825,
0.02712,0.5352969121,0.02712,73.08605883,
0.02714,0.5352969121,0.02714,72.35519825,
0.02716,1.631587795,0.02716,72.72062854,
0.02718,2.362448383,0.02718,73.45148913,
0.0272,1.2661575,0.0272,73.08605883,
0.02722,2.727878677,0.02722,72.35519825,
0.02724,1.631587795,0.02724,72.72062854,
0.02726,0.9007272063,0.02726,73.08605883,
0.02728,0.9007272063,0.02728,72.72062854,
0.0273,1.2661575,0.0273,73.08605883,
0.02732,0.1698666179,0.02732,72.35519825,
0.02734,-0.5609939704,0.02734,71.98976795,
0.02736,0.5352969121,0.02736,73.08605883,
0.02738,0.5352969121,0.02738,73.08605883,
0.0274,0.5352969121,0.0274,72.72062854,
0.02742,1.2661575,0.02742,73.08605883,
0.02744,0.1698666179,0.02744,73.08605883,
0.02746,-0.5609939704,0.02746,73.08605883,
0.02748,1.2661575,0.02748,71.98976795,
0.0275,-1.291854559,0.0275,73.45148913,
0.02752,0.1698666179,0.02752,71.98976795,
0.02754,1.2661575,0.02754,72.72062854,
0.02756,-2.022715147,0.02756,73.45148913,
0.02758,-3.484436324,0.02758,72.72062854,
0.0276,-1.291854559,0.0276,73.45148913,
0.02762,0.1698666179,0.02762,71.98976795,
0.02764,-0.5609939704,0.02764,72.35519825,
0.02766,-0.5609939704,0.02766,73.08605883,
0.02768,0.1698666179,0.02768,72.72062854,
0.0277,0.5352969121,0.0277,72.35519825,
0.02772,0.1698666179,0.02772,73.08605883,
0.02774,-0.9264242646,0.02774,72.72062854,
0.02776,-0.9264242646,0.02776,72.35519825,
0.02778,-0.9264242646,0.02778,73.08605883,
0.0278,-1.657284853,0.0278,72.35519825,
0.02782,-0.1955636762,0.02782,72.35519825,
0.02784,-0.5609939704,0.02784,73.08605883,
0.02786,-0.5609939704,0.02786,72.72062854,
0.02788,0.9007272063,0.02788,72.35519825,
0.0279,1.997018089,0.0279,72.72062854,
0.02792,1.2661575,0.02792,72.35519825,
0.02794,0.9007272063,0.02794,72.35519825,
0.02796,0.9007272063,0.02796,73.45148913,
0.02798,0.5352969121,0.02798,72.72062854,
0.028,0.9007272063,0.028,72.72062854,
0.02802,0.5352969121,0.02802,73.45148913,
0.02804,0.9007272063,0.02804,72.72062854,
0.02806,1.2661575,0.02806,72.35519825,
0.02808,-0.5609939704,0.02808,73.08605883,
0.0281,0.1698666179,0.0281,72.35519825,
0.02812,0.5352969121,0.02812,72.72062854,
0.02814,-0.1955636762,0.02814,73.08605883,
0.02816,0.1698666179,0.02816,72.72062854,
0.02818,1.997018089,0.02818,72.72062854,
0.0282,1.997018089,0.0282,72.72062854,
0.02822,1.2661575,0.02822,72.72062854,
0.02824,1.631587795,0.02824,72.35519825,
0.02826,1.2661575,0.02826,73.08605883,
0.02828,-0.1955636762,0.02828,72.72062854,
0.0283,0.5352969121,0.0283,72.72062854,
0.02832,0.1698666179,0.02832,73.45148913,
0.02834,-0.9264242646,0.02834,72.35519825,
0.02836,0.1698666179,0.02836,72.35519825,
0.02838,0.9007272063,0.02838,72.35519825,
0.0284,-0.5609939704,0.0284,73.08605883,
0.02842,2.727878677,0.02842,72.72062854,
0.02844,1.631587795,0.02844,72.35519825,
0.02846,-0.1955636762,0.02846,73.08605883,
0.02848,-0.5609939704,0.02848,72.35519825,
0.0285,-1.291854559,0.0285,72.72062854,
0.02852,-2.753575735,0.02852,71.98976795,
0.02854,-2.753575735,0.02854,73.81691942,
0.02856,-2.388145441,0.02856,73.45148913,
0.02858,-1.657284853,0.02858,71.98976795,
0.0286,-1.291854559,0.0286,72.35519825,
0.02862,-0.1955636762,0.02862,71.98976795,
0.02864,0.5352969121,0.02864,73.08605883,
0.02866,-0.1955636762,0.02866,73.08605883,
0.02868,0.5352969121,0.02868,72.35519825,
0.0287,-0.9264242646,0.0287,72.72062854,
0.02872,0.1698666179,0.02872,72.72062854,
0.02874,-0.9264242646,0.02874,73.08605883,
0.02876,-1.291854559,0.02876,72.35519825,
0.02878,-0.1955636762,0.02878,72.35519825,
0.0288,-0.9264242646,0.0288,73.08605883,
0.02882,-0.5609939704,0.02882,72.72062854,
0.02884,0.5352969121,0.02884,72.72062854,
0.02886,0.1698666179,0.02886,72.35519825,
0.02888,1.631587795,0.02888,72.72062854,
0.0289,1.2661575,0.0289,72.72062854,
0.02892,2.362448383,0.02892,72.72062854,
0.02894,0.5352969121,0.02894,72.72062854,
0.02896,0.5352969121,0.02896,72.72062854,
0.02898,-0.5609939704,0.02898,73.45148913,
0.029,0.9007272063,0.029,72.35519825,
0.02902,0.9007272063,0.02902,72.35519825,
0.02904,1.997018089,0.02904,72.72062854,
0.02906,0.5352969121,0.02906,72.72062854,
0.02908,0.5352969121,0.02908,72.72062854,
0.0291,1.2661575,0.0291,73.45148913,
0.02912,1.631587795,0.02912,72.72062854,
0.02914,3.458739265,0.02914,72.35519825,
0.02916,1.2661575,0.02916,72.72062854,
0.02918,1.2661575,0.02918,72.72062854,
0.0292,1.2661575,0.0292,72.35519825,
0.02922,1.2661575,0.02922,73.08605883,
0.02924,0.9007272063,0.02924,72.72062854,
0.02926,0.5352969121,0.02926,72.72062854,
0.02928,0.1698666179,0.02928,72.35519825,
0.0293,-0.5609939704,0.0293,72.72062854,
0.02932,0.1698666179,0.02932,73.08605883,
0.02934,-0.1955636762,0.02934,73.08605883,
0.02936,1.997018089,0.02936,72.72062854,
0.02938,1.631587795,0.02938,72.72062854,
0.0294,0.1698666179,0.0294,73.08605883,
0.02942,-0.9264242646,0.02942,72.35519825,
0.02944,-0.9264242646,0.02944,72.35519825,
0.02946,-3.11900603,0.02946,71.62433766,
0.02948,-2.022715147,0.02948,70.89347707,
0.0295,-3.484436324,0.0295,71.62433766,
0.02952,0.1698666179,0.02952,73.81691942,
0.02954,-3.849866618,0.02954,72.72062854,
0.02956,-1.291854559,0.02956,72.35519825,
0.02958,-2.022715147,0.02958,73.08605883,
0.0296,-0.5609939704,0.0296,72.72062854,
0.02962,0.9007272063,0.02962,72.35519825,
0.02964,1.2661575,0.02964,72.72062854,
0.02966,0.5352969121,0.02966,72.72062854,
0.02968,-0.5609939704,0.02968,72.72062854,
0.0297,-0.9264242646,0.0297,72.72062854,
0.02972,-2.388145441,0.02972,72.72062854,
0.02974,-0.5609939704,0.02974,72.72062854,
0.02976,-0.1955636762,0.02976,73.08605883,
0.02978,-1.657284853,0.02978,72.35519825,
0.0298,0.9007272063,0.0298,72.72062854,
0.02982,0.9007272063,0.02982,73.45148913,
0.02984,1.2661575,0.02984,72.72062854,
0.02986,1.2661575,0.02986,72.72062854,
0.02988,1.631587795,0.02988,72.72062854,
0.0299,1.631587795,0.0299,71.98976795,
0.02992,1.631587795,0.02992,72.72062854,
0.02994,1.2661575,0.02994,72.35519825,
0.02996,0.9007272063,0.02996,72.72062854,
0.02998,0.5352969121,0.02998,72.35519825,
0.03,0.5352969121,0.03,71.98976795,
0.03002,0.9007272063,0.03002,72.35519825,
0.03004,0.9007272063,0.03004,72.72062854,
0.03006,3.093308971,0.03006,71.98976795,
0.03008,2.727878677,0.03008,72.72062854,
0.0301,2.362448383,0.0301,72.72062854,
0.03012,1.631587795,0.03012,71.98976795,
0.03014,1.997018089,0.03014,72.72062854,
0.03016,1.997018089,0.03016,73.08605883,
0.03018,1.997018089,0.03018,72.35519825,
0.0302,1.631587795,0.0302,72.35519825,
0.03022,1.2661575,0.03022,72.72062854,
0.03024,-0.1955636762,0.03024,71.98976795,
0.03026,-1.291854559,0.03026,72.35519825,
0.03028,-0.1955636762,0.03028,72.72062854,
0.0303,-0.1955636762,0.0303,72.35519825,
0.03032,1.631587795,0.03032,72.35519825,
0.03034,1.2661575,0.03034,72.72062854,
0.03036,1.631587795,0.03036,72.35519825,
0.03038,1.2661575,0.03038,73.08605883,
0.0304,0.9007272063,0.0304,71.98976795,
0.03042,0.1698666179,0.03042,72.35519825,
0.03044,-0.5609939704,0.03044,71.25890736,
0.03046,0.5352969121,0.03046,72.35519825,
0.03048,-2.388145441,0.03048,71.25890736,
0.0305,-2.388145441,0.0305,73.08605883,
0.03052,-2.753575735,0.03052,72.35519825,
0.03054,-1.657284853,0.03054,72.35519825,
0.03056,-0.5609939704,0.03056,72.72062854,
0.03058,-0.1955636762,0.03058,72.35519825,
0.0306,1.2661575,0.0306,71.98976795,
0.03062,0.5352969121,0.03062,71.98976795,
0.03064,0.5352969121,0.03064,72.35519825,
0.03066,-0.5609939704,0.03066,71.98976795,
0.03068,0.1698666179,0.03068,72.35519825,
0.0307,-0.9264242646,0.0307,72.72062854,
0.03072,-1.657284853,0.03072,72.72062854,
0.03074,-0.9264242646,0.03074,72.72062854,
0.03076,-0.1955636762,0.03076,73.08605883,
0.03078,1.631587795,0.03078,72.72062854,
0.0308,-0.1955636762,0.0308,73.08605883,
0.03082,0.9007272063,0.03082,72.72062854,
0.03084,1.631587795,0.03084,72.72062854,
0.03086,1.997018089,0.03086,72.72062854,
0.03088,1.631587795,0.03088,72.35519825,
0.0309,1.631587795,0.0309,72.35519825,
0.03092,0.1698666179,0.03092,72.72062854,
0.03094,0.5352969121,0.03094,72.72062854,
0.03096,1.631587795,0.03096,72.72062854,
0.03098,0.1698666179,0.03098,72.72062854,
0.031,0.5352969121,0.031,72.35519825,
0.03102,0.9007272063,0.03102,72.72062854,
0.03104,1.997018089,0.03104,72.72062854,
0.03106,1.997018089,0.03106,73.08605883,
0.03108,0.9007272063,0.03108,73.08605883,
0.0311,0.9007272063,0.0311,72.35519825,
0.03112,2.362448383,0.03112,72.72062854,
0.03114,0.9007272063,0.03114,72.35519825,
0.03116,0.9007272063,0.03116,72.35519825,
0.03118,-0.1955636762,0.03118,72.72062854,
0.0312,1.631587795,0.0312,72.35519825,
0.03122,0.1698666179,0.03122,72.72062854,
0.03124,-0.1955636762,0.03124,72.72062854,
0.03126,-0.1955636762,0.03126,72.72062854,
0.03128,0.1698666179,0.03128,72.72062854,
0.0313,1.2661575,0.0313,73.45148913,
0.03132,1.997018089,0.03132,72.72062854,
0.03134,0.5352969121,0.03134,72.72062854,
0.03136,0.5352969121,0.03136,73.08605883,
0.03138,-0.5609939704,0.03138,72.35519825,
0.0314,-0.9264242646,0.0314,72.35519825,
0.03142,-0.1955636762,0.03142,72.72062854,
0.03144,-2.022715147,0.03144,71.25890736,
0.03146,-0.5609939704,0.03146,72.72062854,
0.03148,-1.657284853,0.03148,72.72062854,
0.0315,-0.5609939704,0.0315,73.45148913,
0.03152,0.9007272063,0.03152,72.72062854,
0.03154,-0.5609939704,0.03154,73.08605883,
0.03156,0.1698666179,0.03156,72.35519825,
0.03158,1.2661575,0.03158,72.72062854,
0.0316,0.9007272063,0.0316,72.35519825,
0.03162,-0.1955636762,0.03162,72.72062854,
0.03164,0.1698666179,0.03164,72.35519825,
0.03166,-0.9264242646,0.03166,72.72062854,
0.03168,-1.657284853,0.03168,72.35519825,
0.0317,-0.5609939704,0.0317,72.72062854,
0.03172,0.1698666179,0.03172,73.08605883,
0.03174,-0.1955636762,0.03174,72.35519825,
0.03176,0.5352969121,0.03176,72.35519825,
0.03178,-0.1955636762,0.03178,73.08605883,
0.0318,2.727878677,0.0318,72.72062854,
0.03182,1.631587795,0.03182,72.35519825,
0.03184,0.5352969121,0.03184,73.08605883,
0.03186,0.9007272063,0.03186,72.35519825,
0.03188,0.1698666179,0.03188,72.35519825,
0.0319,0.9007272063,0.0319,72.72062854,
0.03192,0.5352969121,0.03192,73.08605883,
0.03194,-0.1955636762,0.03194,72.35519825,
0.03196,-0.1955636762,0.03196,72.72062854,
0.03198,-1.657284853,0.03198,72.35519825,
0.032,-1.291854559,0.032,72.72062854,
0.03202,1.631587795,0.03202,72.72062854,
0.03204,1.631587795,0.03204,72.72062854,
0.03206,1.997018089,0.03206,72.35519825,
0.03208,0.9007272063,0.03208,73.08605883,
0.0321,0.9007272063,0.0321,72.72062854,
0.03212,1.631587795,0.03212,72.72062854,
0.03214,1.2661575,0.03214,73.08605883,
0.03216,-0.1955636762,0.03216,72.35519825,
0.03218,0.9007272063,0.03218,72.35519825,
0.0322,-0.5609939704,0.0322,72.72062854,
0.03222,-1.657284853,0.03222,72.72062854,
0.03224,-0.5609939704,0.03224,72.35519825,
0.03226,0.1698666179,0.03226,72.72062854,
0.03228,1.2661575,0.03228,72.35519825,
0.0323,1.2661575,0.0323,72.35519825,
0.03232,-0.5609939704,0.03232,72.72062854,
0.03234,0.1698666179,0.03234,72.72062854,
0.03236,-1.657284853,0.03236,73.08605883,
0.03238,1.2661575,0.03238,72.72062854,
0.0324,-3.11900603,0.0324,72.35519825,
0.03242,-3.849866618,0.03242,72.35519825,
0.03244,-2.388145441,0.03244,73.45148913,
0.03246,-2.388145441,0.03246,73.08605883,
0.03248,-2.753575735,0.03248,73.08605883,
0.0325,0.9007272063,0.0325,73.45148913,
0.03252,0.5352969121,0.03252,73.45148913,
0.03254,0.1698666179,0.03254,72.35519825,
0.03256,0.9007272063,0.03256,73.45148913,
0.03258,-0.5609939704,0.03258,72.35519825,
0.0326,-1.291854559,0.0326,72.35519825,
0.03262,-0.5609939704,0.03262,73.08605883,
0.03264,-0.9264242646,0.03264,72.72062854,
0.03266,-0.5609939704,0.03266,71.98976795,
0.03268,-0.9264242646,0.03268,72.72062854,
0.0327,-0.9264242646,0.0327,72.72062854,
0.03272,-0.5609939704,0.03272,72.35519825,
0.03274,0.5352969121,0.03274,73.08605883,
0.03276,0.1698666179,0.03276,72.35519825,
0.03278,1.631587795,0.03278,73.08605883,
0.0328,2.362448383,0.0328,72.35519825,
0.03282,0.9007272063,0.03282,72.72062854,
0.03284,0.1698666179,0.03284,72.72062854,
0.03286,0.5352969121,0.03286,72.72062854,
0.03288,0.1698666179,0.03288,73.08605883,
0.0329,1.2661575,0.0329,72.72062854,
0.03292,0.5352969121,0.03292,73.45148913,
0.03294,-0.5609939704,0.03294,73.08605883,
0.03296,0.9007272063,0.03296,72.35519825,
0.03298,0.5352969121,0.03298,72.72062854,
0.033,0.5352969121,0.033,72.72062854,
0.03302,2.362448383,0.03302,71.98976795,
0.03304,1.2661575,0.03304,73.08605883,
0.03306,1.997018089,0.03306,72.35519825,
0.03308,0.9007272063,0.03308,72.35519825,
0.0331,1.631587795,0.0331,73.45148913,
0.03312,0.9007272063,0.03312,72.72062854,
0.03314,0.5352969121,0.03314,72.72062854,
0.03316,-0.1955636762,0.03316,73.45148913,
0.03318,-0.5609939704,0.03318,72.72062854,
0.0332,-0.5609939704,0.0332,72.72062854,
0.03322,0.1698666179,0.03322,73.08605883,
0.03324,0.1698666179,0.03324,72.72062854,
0.03326,0.9007272063,0.03326,71.98976795,
0.03328,1.2661575,0.03328,73.45148913,
0.0333,0.9007272063,0.0333,73.45148913,
0.03332,0.5352969121,0.03332,71.98976795,
0.03334,-1.291854559,0.03334,72.35519825,
0.03336,-2.388145441,0.03336,72.35519825,
0.03338,-0.1955636762,0.03338,72.35519825,
0.0334,-3.849866618,0.0334,72.35519825,
0.03342,-3.11900603,0.03342,72.35519825,
0.03344,-2.022715147,0.03344,72.72062854,
0.03346,-3.11900603,0.03346,72.35519825,
0.03348,-0.5609939704,0.03348,73.45148913,
0.0335,-0.1955636762,0.0335,71.25890736,
0.03352,-0.1955636762,0.03352,73.45148913,
0.03354,-0.9264242646,0.03354,73.08605883,
0.03356,-0.5609939704,0.03356,72.35519825,
0.03358,0.9007272063,0.03358,72.72062854,
0.0336,-2.022715147,0.0336,73.08605883,
0.03362,-0.9264242646,0.03362,72.72062854,
0.03364,-0.5609939704,0.03364,73.08605883,
0.03366,-1.291854559,0.03366,72.35519825,
0.03368,-0.5609939704,0.03368,72.35519825,
0.0337,-0.1955636762,0.0337,72.72062854,
0.03372,-0.5609939704,0.03372,73.08605883,
0.03374,1.631587795,0.03374,72.72062854,
0.03376,1.2661575,0.03376,73.08605883,
0.03378,0.5352969121,0.03378,72.72062854,
0.0338,1.2661575,0.0338,72.35519825,
0.03382,0.9007272063,0.03382,73.08605883,
0.03384,0.1698666179,0.03384,72.72062854,
0.03386,0.5352969121,0.03386,72.35519825,
0.03388,0.9007272063,0.03388,72.72062854,
0.0339,0.9007272063,0.0339,72.35519825,
0.03392,1.2661575,0.03392,72.35519825,
0.03394,1.2661575,0.03394,72.72062854,
0.03396,0.5352969121,0.03396,72.35519825,
0.03398,1.2661575,0.03398,72.72062854,
0.034,1.997018089,0.034,73.08605883,
0.03402,1.997018089,0.03402,72.35519825,
0.03404,1.997018089,0.03404,72.72062854,
0.03406,2.362448383,0.03406,73.08605883,
0.03408,2.362448383,0.03408,72.72062854,
0.0341,-0.1955636762,0.0341,72.72062854,
0.03412,0.5352969121,0.03412,73.08605883,
0.03414,-0.9264242646,0.03414,72.35519825,
0.03416,-0.1955636762,0.03416,71.98976795,
0.03418,-1.291854559,0.03418,73.08605883,
0.0342,0.1698666179,0.0342,72.72062854,
0.03422,0.5352969121,0.03422,72.35519825,
0.03424,1.2661575,0.03424,73.08605883,
0.03426,0.5352969121,0.03426,73.08605883,
0.03428,0.1698666179,0.03428,72.35519825,
0.0343,1.997018089,0.0343,73.45148913,
0.03432,-2.753575735,0.03432,71.62433766,
0.03434,1.2661575,0.03434,73.45148913,
0.03436,3.093308971,0.03436,73.45148913,
0.03438,-0.9264242646,0.03438,71.98976795,
0.0344,-3.11900603,0.0344,71.25890736,
0.03442,-1.657284853,0.03442,73.08605883,
0.03444,-2.388145441,0.03444,73.08605883,
0.03446,-1.657284853,0.03446,73.45148913,
0.03448,0.9007272063,0.03448,72.35519825,
0.0345,-0.5609939704,0.0345,72.72062854,
0.03452,1.2661575,0.03452,72.35519825,
0.03454,0.9007272063,0.03454,72.72062854,
0.03456,-1.291854559,0.03456,72.72062854,
0.03458,-0.1955636762,0.03458,72.35519825,
0.0346,-1.657284853,0.0346,73.08605883,
0.03462,-0.9264242646,0.03462,73.08605883,
0.03464,-1.291854559,0.03464,72.35519825,
0.03466,-0.1955636762,0.03466,72.72062854,
0.03468,-0.5609939704,0.03468,72.72062854,
0.0347,1.2661575,0.0347,72.72062854,
0.03472,0.5352969121,0.03472,73.08605883,
0.03474,1.997018089,0.03474,72.72062854,
0.03476,1.631587795,0.03476,72.35519825,
0.03478,1.2661575,0.03478,72.72062854,
0.0348,-0.1955636762,0.0348,72.72062854,
0.03482,1.631587795,0.03482,72.72062854,
0.03484,-0.1955636762,0.03484,72.72062854,
0.03486,1.2661575,0.03486,72.35519825,
0.03488,0.5352969121,0.03488,72.72062854,
0.0349,-0.5609939704,0.0349,73.08605883,
0.03492,0.9007272063,0.03492,72.72062854,
0.03494,1.997018089,0.03494,72.35519825,
0.03496,1.997018089,0.03496,73.08605883,
0.03498,1.2661575,0.03498,72.35519825,
0.035,1.2661575,0.035,72.72062854,
0.03502,1.631587795,0.03502,72.72062854,
0.03504,1.997018089,0.03504,72.72062854,
0.03506,1.631587795,0.03506,72.35519825,
0.03508,0.9007272063,0.03508,73.45148913,
0.0351,0.1698666179,0.0351,72.35519825,
0.03512,-0.1955636762,0.03512,72.72062854,
0.03514,0.5352969121,0.03514,72.72062854,
0.03516,-1.657284853,0.03516,72.35519825,
0.03518,-0.9264242646,0.03518,72.35519825,
0.0352,0.9007272063,0.0352,73.08605883,
0.03522,0.5352969121,0.03522,72.72062854,
0.03524,1.2661575,0.03524,72.72062854,
0.03526,1.631587795,0.03526,73.45148913,
0.03528,-1.291854559,0.03528,72.72062854,
0.0353,0.1698666179,0.0353,72.72062854,
0.03532,-0.1955636762,0.03532,73.45148913,
0.03534,-1.291854559,0.03534,73.81691942,
0.03536,-0.1955636762,0.03536,71.62433766,
0.03538,-3.849866618,0.03538,73.81691942,
0.0354,-0.1955636762,0.0354,71.62433766,
0.03542,-2.388145441,0.03542,72.72062854,
0.03544,-0.5609939704,0.03544,73.45148913,
0.03546,-0.1955636762,0.03546,72.35519825,
0.03548,1.2661575,0.03548,73.08605883,
0.0355,-0.1955636762,0.0355,72.72062854,
0.03552,-2.022715147,0.03552,72.35519825,
0.03554,-0.9264242646,0.03554,72.35519825,
0.03556,0.5352969121,0.03556,73.08605883,
0.03558,-1.291854559,0.03558,72.72062854,
0.0356,-0.1955636762,0.0356,72.35519825,
0.03562,-0.9264242646,0.03562,71.98976795,
0.03564,0.1698666179,0.03564,72.35519825,
0.03566,1.2661575,0.03566,71.98976795,
0.03568,0.5352969121,0.03568,72.35519825,
0.0357,1.631587795,0.0357,72.72062854,
0.03572,0.9007272063,0.03572,71.98976795,
0.03574,1.2661575,0.03574,71.98976795,
0.03576,1.631587795,0.03576,72.35519825,
0.03578,0.9007272063,0.03578,72.35519825,
0.0358,0.9007272063,0.0358,72.35519825,
0.03582,0.9007272063,0.03582,72.35519825,
0.03584,0.5352969121,0.03584,71.62433766,
0.03586,0.9007272063,0.03586,72.35519825,
0.03588,0.5352969121,0.03588,72.35519825,
0.0359,0.9007272063,0.0359,72.35519825,
0.03592,0.9007272063,0.03592,72.35519825,
0.03594,1.997018089,0.03594,72.35519825,
0.03596,2.362448383,0.03596,72.72062854,
0.03598,1.997018089,0.03598,72.35519825,
0.036,1.997018089,0.036,72.72062854,
0.03602,1.631587795,0.03602,72.72062854,
0.03604,0.1698666179,0.03604,72.35519825,
0.03606,0.5352969121,0.03606,73.08605883,
0.03608,0.5352969121,0.03608,73.08605883,
0.0361,-0.1955636762,0.0361,72.35519825,
0.03612,-0.1955636762,0.03612,72.35519825,
0.03614,-0.1955636762,0.03614,72.72062854,
0.03616,-0.1955636762,0.03616,73.08605883,
0.03618,0.5352969121,0.03618,73.81691942,
0.0362,0.1698666179,0.0362,72.35519825,
0.03622,1.2661575,0.03622,71.62433766,
0.03624,0.5352969121,0.03624,73.08605883,
0.03626,0.9007272063,0.03626,73.08605883,
0.03628,0.1698666179,0.03628,71.98976795,
0.0363,-0.1955636762,0.0363,72.72062854,
0.03632,-0.5609939704,0.03632,71.98976795,
0.03634,-2.753575735,0.03634,71.98976795,
0.03636,-0.5609939704,0.03636,71.98976795,
0.03638,-3.11900603,0.03638,72.72062854,
0.0364,-2.022715147,0.0364,72.35519825,
0.03642,0.1698666179,0.03642,73.45148913,
0.03644,0.1698666179,0.03644,73.45148913,
0.03646,0.5352969121,0.03646,73.45148913,
0.03648,0.9007272063,0.03648,73.45148913,
0.0365,-0.5609939704,0.0365,72.72062854,
0.03652,-0.5609939704,0.03652,71.98976795,
0.03654,0.1698666179,0.03654,72.72062854,
0.03656,-2.388145441,0.03656,72.72062854,
0.03658,-0.5609939704,0.03658,73.08605883,
0.0366,-1.657284853,0.0366,72.72062854,
0.03662,-0.1955636762,0.03662,72.35519825,
0.03664,1.2661575,0.03664,72.35519825,
0.03666,0.9007272063,0.03666,72.72062854,
0.03668,0.9007272063,0.03668,72.35519825,
0.0367,0.5352969121,0.0367,73.08605883,
0.03672,0.1698666179,0.03672,72.72062854,
0.03674,3.458739265,0.03674,72.35519825,
0.03676,1.2661575,0.03676,73.45148913,
0.03678,0.5352969121,0.03678,72.35519825,
0.0368,0.5352969121,0.0368,72.72062854,
0.03682,0.1698666179,0.03682,72.72062854,
0.03684,0.5352969121,0.03684,72.72062854,
0.03686,0.9007272063,0.03686,72.35519825,
0.03688,1.631587795,0.03688,72.72062854,
0.0369,0.5352969121,0.0369,73.08605883,
0.03692,0.9007272063,0.03692,72.72062854,
0.03694,2.362448383,0.03694,72.72062854,
0.03696,2.727878677,0.03696,72.72062854,
0.03698,2.362448383,0.03698,72.35519825,
0.037,1.631587795,0.037,72.72062854,
0.03702,0.5352969121,0.03702,72.35519825,
0.03704,1.2661575,0.03704,72.35519825,
0.03706,-0.5609939704,0.03706,73.08605883,
0.03708,-0.1955636762,0.03708,72.72062854,
0.0371,-0.1955636762,0.0371,72.72062854,
0.03712,-1.291854559,0.03712,72.72062854,
0.03714,-0.1955636762,0.03714,72.72062854,
0.03716,0.1698666179,0.03716,72.72062854,
0.03718,1.631587795,0.03718,72.72062854,
0.0372,0.1698666179,0.0372,73.08605883,
0.03722,1.2661575,0.03722,72.72062854,
0.03724,-0.5609939704,0.03724,73.81691942,
0.03726,-1.291854559,0.03726,73.45148913,
0.03728,-2.022715147,0.03728,72.72062854,
0.0373,-2.022715147,0.0373,73.45148913,
0.03732,-3.849866618,0.03732,73.45148913,
0.03734,-2.388145441,0.03734,73.81691942,
0.03736,-0.9264242646,0.03736,73.45148913,
0.03738,-0.5609939704,0.03738,73.08605883,
0.0374,-0.1955636762,0.0374,72.35519825,
0.03742,0.5352969121,0.03742,72.35519825,
0.03744,-0.9264242646,0.03744,72.72062854,
0.03746,0.1698666179,0.03746,72.72062854,
0.03748,0.5352969121,0.03748,72.72062854,
0.0375,-0.9264242646,0.0375,73.08605883,
0.03752,0.1698666179,0.03752,72.35519825,
0.03754,-1.291854559,0.03754,73.08605883,
0.03756,-0.9264242646,0.03756,72.35519825,
0.03758,-0.1955636762,0.03758,72.35519825,
0.0376,0.1698666179,0.0376,72.72062854,
0.03762,0.1698666179,0.03762,72.72062854,
0.03764,0.9007272063,0.03764,71.98976795,
0.03766,1.2661575,0.03766,72.72062854,
0.03768,0.5352969121,0.03768,72.35519825,
0.0377,1.631587795,0.0377,72.35519825,
0.03772,0.1698666179,0.03772,73.08605883,
0.03774,0.9007272063,0.03774,72.35519825,
0.03776,1.997018089,0.03776,72.72062854,
0.03778,0.5352969121,0.03778,72.72062854,
0.0378,0.5352969121,0.0378,72.72062854,
0.03782,0.9007272063,0.03782,72.72062854,
0.03784,0.1698666179,0.03784,73.08605883,
0.03786,0.1698666179,0.03786,72.72062854,
0.03788,1.2661575,0.03788,72.35519825,
0.0379,1.631587795,0.0379,72.72062854,
0.03792,0.9007272063,0.03792,72.72062854,
0.03794,2.727878677,0.03794,72.72062854,
0.03796,1.2661575,0.03796,73.08605883,
0.03798,0.9007272063,0.03798,72.72062854,
0.038,1.631587795,0.038,72.72062854,
0.03802,0.5352969121,0.03802,73.08605883,
0.03804,0.5352969121,0.03804,72.35519825,
0.03806,0.9007272063,0.03806,72.35519825,
0.03808,-0.1955636762,0.03808,73.08605883,
0.0381,-1.291854559,0.0381,72.72062854,
0.03812,0.1698666179,0.03812,72.35519825,
0.03814,1.2661575,0.03814,73.08605883,
0.03816,0.5352969121,0.03816,72.72062854,
0.03818,1.631587795,0.03818,72.72062854,
0.0382,0.1698666179,0.0382,71.98976795,
0.03822,0.9007272063,0.03822,72.35519825,
0.03824,-0.5609939704,0.03824,71.62433766,
0.03826,1.997018089,0.03826,74.18234972,
0.03828,-2.753575735,0.03828,71.98976795,
0.0383,0.1698666179,0.0383,71.98976795,
0.03832,-2.388145441,0.03832,73.45148913,
0.03834,-3.484436324,0.03834,72.72062854,
0.03836,1.997018089,0.03836,72.35519825,
0.03838,-0.1955636762,0.03838,72.72062854,
0.0384,-0.1955636762,0.0384,72.72062854,
0.03842,0.5352969121,0.03842,71.98976795,
0.03844,-1.657284853,0.03844,72.72062854,
0.03846,-0.5609939704,0.03846,72.72062854,
0.03848,-0.5609939704,0.03848,72.72062854,
0.0385,-0.5609939704,0.0385,72.35519825,
0.03852,-1.291854559,0.03852,71.98976795,
0.03854,0.1698666179,0.03854,72.35519825,
0.03856,-1.291854559,0.03856,72.72062854,
0.03858,-0.5609939704,0.03858,71.98976795,
0.0386,0.9007272063,0.0386,73.08605883,
0.03862,1.2661575,0.03862,72.35519825,
0.03864,0.5352969121,0.03864,71.98976795,
0.03866,1.631587795,0.03866,72.72062854,
0.03868,1.631587795,0.03868,72.72062854,
0.0387,0.5352969121,0.0387,72.35519825,
0.03872,1.2661575,0.03872,72.35519825,
0.03874,1.631587795,0.03874,72.35519825,
0.03876,-0.1955636762,0.03876,71.98976795,
0.03878,1.2661575,0.03878,72.72062854,
0.0388,0.5352969121,0.0388,72.72062854,
0.03882,0.5352969121,0.03882,71.98976795,
0.03884,0.9007272063,0.03884,72.35519825,
0.03886,0.9007272063,0.03886,71.98976795,
0.03888,1.631587795,0.03888,71.98976795,
0.0389,2.362448383,0.0389,72.35519825,
0.03892,1.997018089,0.03892,72.35519825,
0.03894,2.727878677,0.03894,71.98976795,
0.03896,2.362448383,0.03896,72.72062854,
0.03898,1.997018089,0.03898,72.35519825,
0.039,-0.1955636762,0.039,71.98976795,
0.03902,1.2661575,0.03902,72.72062854,
0.03904,0.5352969121,0.03904,72.35519825,
0.03906,-0.1955636762,0.03906,72.35519825,
0.03908,0.1698666179,0.03908,72.72062854,
0.0391,0.1698666179,0.0391,72.35519825,
0.03912,1.2661575,0.03912,71.98976795,
0.03914,1.631587795,0.03914,72.72062854,
0.03916,1.2661575,0.03916,72.72062854,
0.03918,-0.9264242646,0.03918,71.62433766,
0.0392,-0.9264242646,0.0392,73.08605883,
0.03922,-0.9264242646,0.03922,73.81691942,
0.03924,-0.1955636762,0.03924,73.08605883,
0.03926,-3.849866618,0.03926,73.45148913,
0.03928,-2.022715147,0.03928,73.81691942,
0.0393,-0.5609939704,0.0393,71.98976795,
0.03932,-0.9264242646,0.03932,73.08605883,
0.03934,0.5352969121,0.03934,72.72062854,
0.03936,-0.5609939704,0.03936,71.62433766,
0.03938,-0.5609939704,0.03938,72.72062854,
0.0394,0.1698666179,0.0394,72.72062854,
0.03942,-0.5609939704,0.03942,71.62433766,
0.03944,0.1698666179,0.03944,72.72062854,
0.03946,0.1698666179,0.03946,72.72062854,
0.03948,-0.9264242646,0.03948,71.62433766,
0.0395,-0.5609939704,0.0395,73.08605883,
0.03952,-0.5609939704,0.03952,72.35519825,
0.03954,-1.291854559,0.03954,71.98976795,
0.03956,0.1698666179,0.03956,72.35519825,
0.03958,0.1698666179,0.03958,71.98976795,
0.0396,1.2661575,0.0396,72.35519825,
0.03962,1.997018089,0.03962,72.72062854,
0.03964,1.631587795,0.03964,72.72062854,
0.03966,1.631587795,0.03966,72.72062854,
0.03968,1.2661575,0.03968,71.98976795,
0.0397,0.9007272063,0.0397,72.72062854,
0.03972,1.2661575,0.03972,71.98976795,
0.03974,0.9007272063,0.03974,71.98976795,
0.03976,0.5352969121,0.03976,72.72062854,
0.03978,1.2661575,0.03978,71.98976795,
0.0398,0.9007272063,0.0398,72.35519825,
0.03982,0.9007272063,0.03982,72.72062854,
0.03984,0.9007272063,0.03984,72.35519825,
0.03986,1.631587795,0.03986,72.72062854,
0.03988,1.2661575,0.03988,72.72062854,
0.0399,2.362448383,0.0399,71.98976795,
0.03992,2.362448383,0.03992,72.35519825,
0.03994,0.5352969121,0.03994,72.72062854,
0.03996,1.2661575,0.03996,71.98976795,
0.03998,1.997018089,0.03998,72.72062854,
0.04,0.1698666179,0.04,72.35519825,
0.04002,0.5352969121,0.04002,71.98976795,
0.04004,0.5352969121,0.04004,72.72062854,
0.04006,-1.291854559,0.04006,73.45148913,
0.04008,0.5352969121,0.04008,71.98976795,
0.0401,1.997018089,0.0401,72.35519825,
0.04012,2.362448383,0.04012,73.08605883,
0.04014,0.1698666179,0.04014,71.98976795,
0.04016,1.2661575,0.04016,72.35519825,
0.04018,-0.1955636762,0.04018,72.72062854,
0.0402,1.997018089,0.0402,72.35519825,
0.04022,-2.022715147,0.04022,72.35519825,
0.04024,0.9007272063,0.04024,73.08605883,
0.04026,-2.753575735,0.04026,73.08605883,
0.04028,-1.657284853,0.04028,72.35519825,
0.0403,0.1698666179,0.0403,71.98976795,
0.04032,0.5352969121,0.04032,72.35519825,
0.04034,0.5352969121,0.04034,72.35519825,
0.04036,0.9007272063,0.04036,72.72062854,
0.04038,0.5352969121,0.04038,71.98976795,
0.0404,-0.9264242646,0.0404,72.35519825,
0.04042,-0.5609939704,0.04042,72.35519825,
0.04044,-0.1955636762,0.04044,73.08605883,
0.04046,-0.9264242646,0.04046,71.98976795,
0.04048,-0.5609939704,0.04048,72.35519825,
0.0405,-1.291854559,0.0405,72.72062854,
0.04052,-0.5609939704,0.04052,71.98976795,
0.04054,-2.022715147,0.04054,72.35519825,
0.04056,0.1698666179,0.04056,73.45148913,
0.04058,0.1698666179,0.04058,72.72062854,
0.0406,0.9007272063,0.0406,72.72062854,
0.04062,1.631587795,0.04062,72.72062854,
0.04064,0.5352969121,0.04064,72.35519825,
0.04066,0.5352969121,0.04066,72.35519825,
0.04068,0.1698666179,0.04068,73.08605883,
0.0407,0.1698666179,0.0407,72.72062854,
0.04072,-0.1955636762,0.04072,72.35519825,
0.04074,0.5352969121,0.04074,72.72062854,
0.04076,-0.1955636762,0.04076,73.08605883,
0.04078,0.5352969121,0.04078,72.72062854,
0.0408,1.631587795,0.0408,73.08605883,
0.04082,1.631587795,0.04082,72.72062854,
0.04084,2.362448383,0.04084,72.72062854,
0.04086,0.9007272063,0.04086,73.08605883,
0.04088,1.2661575,0.04088,72.35519825,
0.0409,1.2661575,0.0409,71.98976795,
0.04092,0.5352969121,0.04092,73.08605883,
0.04094,0.5352969121,0.04094,72.35519825,
0.04096,-0.1955636762,0.04096,72.35519825,
0.04098,0.1698666179,0.04098,72.72062854,
0.041,-0.5609939704,0.041,72.35519825,
0.04102,-0.5609939704,0.04102,72.72062854,
0.04104,-0.5609939704,0.04104,72.72062854,
0.04106,1.997018089,0.04106,72.72062854,
0.04108,0.9007272063,0.04108,72.72062854,
0.0411,1.2661575,0.0411,73.08605883,
0.04112,0.9007272063,0.04112,73.45148913,
0.04114,-0.5609939704,0.04114,72.72062854,
0.04116,-2.753575735,0.04116,72.35519825,
0.04118,-0.5609939704,0.04118,71.25890736,
0.0412,-1.291854559,0.0412,73.81691942,
0.04122,-2.022715147,0.04122,72.72062854,
0.04124,-0.5609939704,0.04124,72.35519825,
0.04126,-2.753575735,0.04126,73.45148913,
0.04128,-2.022715147,0.04128,72.72062854,
0.0413,0.9007272063,0.0413,72.35519825,
0.04132,0.5352969121,0.04132,71.98976795,
0.04134,0.1698666179,0.04134,72.72062854,
0.04136,-0.1955636762,0.04136,72.72062854,
0.04138,-0.5609939704,0.04138,72.35519825,
0.0414,-1.657284853,0.0414,73.08605883,
0.04142,-1.291854559,0.04142,72.72062854,
0.04144,-1.291854559,0.04144,72.35519825,
0.04146,-0.9264242646,0.04146,73.08605883,
0.04148,-1.291854559,0.04148,72.72062854,
0.0415,-0.1955636762,0.0415,72.35519825,
0.04152,-0.5609939704,0.04152,73.45148913,
0.04154,0.9007272063,0.04154,71.98976795,
0.04156,-0.1955636762,0.04156,72.72062854,
0.04158,1.997018089,0.04158,72.72062854,
0.0416,0.5352969121,0.0416,71.98976795,
0.04162,0.9007272063,0.04162,72.35519825,
0.04164,1.2661575,0.04164,72.72062854,
0.04166,0.1698666179,0.04166,72.35519825,
0.04168,0.5352969121,0.04168,71.98976795,
0.0417,0.5352969121,0.0417,72.72062854,
0.04172,0.5352969121,0.04172,72.35519825,
0.04174,0.5352969121,0.04174,72.35519825,
0.04176,-0.1955636762,0.04176,72.72062854,
0.04178,1.2661575,0.04178,72.35519825,
0.0418,0.5352969121,0.0418,72.35519825,
0.04182,1.631587795,0.04182,73.08605883,
0.04184,1.631587795,0.04184,72.72062854,
0.04186,1.631587795,0.04186,72.35519825,
0.04188,1.631587795,0.04188,72.72062854,
0.0419,0.9007272063,0.0419,72.35519825,
0.04192,0.5352969121,0.04192,71.98976795,
0.04194,0.1698666179,0.04194,72.72062854,
0.04196,-0.9264242646,0.04196,71.98976795,
0.04198,-1.291854559,0.04198,72.35519825,
0.042,-1.291854559,0.042,72.72062854,
0.04202,-0.1955636762,0.04202,72.35519825,
0.04204,0.1698666179,0.04204,72.72062854,
0.04206,1.631587795,0.04206,72.72062854,
0.04208,1.997018089,0.04208,72.72062854,
0.0421,0.1698666179,0.0421,71.62433766,
0.04212,-1.291854559,0.04212,72.72062854,
0.04214,-1.657284853,0.04214,71.98976795,
0.04216,-2.753575735,0.04216,72.35519825,
0.04218,1.631587795,0.04218,73.08605883,
0.0422,-3.11900603,0.0422,72.72062854,
0.04222,-0.5609939704,0.04222,71.25890736,
0.04224,-1.291854559,0.04224,73.81691942,
0.04226,-2.753575735,0.04226,73.81691942,
0.04228,-0.5609939704,0.04228,73.08605883,
0.0423,-0.5609939704,0.0423,72.72062854,
0.04232,1.2661575,0.04232,72.35519825,
0.04234,0.1698666179,0.04234,73.45148913,
0.04236,-1.657284853,0.04236,72.72062854,
0.04238,-0.1955636762,0.04238,72.72062854,
0.0424,-2.022715147,0.0424,72.72062854,
0.04242,-2.022715147,0.04242,73.08605883,
0.04244,-0.9264242646,0.04244,72.35519825,
0.04246,-0.1955636762,0.04246,72.72062854,
0.04248,-0.1955636762,0.04248,72.72062854,
0.0425,1.2661575,0.0425,72.35519825,
0.04252,0.1698666179,0.04252,72.72062854,
0.04254,0.5352969121,0.04254,72.72062854,
0.04256,0.9007272063,0.04256,72.72062854,
0.04258,0.5352969121,0.04258,73.08605883,
0.0426,0.1698666179,0.0426,73.08605883,
0.04262,1.631587795,0.04262,72.35519825,
0.04264,1.2661575,0.04264,72.72062854,
0.04266,-0.5609939704,0.04266,72.72062854,
0.04268,0.9007272063,0.04268,72.35519825,
0.0427,0.9007272063,0.0427,72.72062854,
0.04272,0.9007272063,0.04272,72.72062854,
0.04274,1.2661575,0.04274,71.98976795,
0.04276,0.5352969121,0.04276,72.72062854,
0.04278,0.5352969121,0.04278,72.35519825,
0.0428,2.727878677,0.0428,71.98976795,
0.04282,2.362448383,0.04282,73.08605883,
0.04284,1.2661575,0.04284,72.35519825,
0.04286,1.997018089,0.04286,72.72062854,
0.04288,0.1698666179,0.04288,73.08605883,
0.0429,0.5352969121,0.0429,72.72062854,
0.04292,0.9007272063,0.04292,72.72062854,
0.04294,0.1698666179,0.04294,73.08605883,
0.04296,-0.9264242646,0.04296,72.72062854,
0.04298,-1.291854559,0.04298,72.72062854,
0.043,0.5352969121,0.043,72.35519825,
0.04302,-0.1955636762,0.04302,72.35519825,
0.04304,1.2661575,0.04304,72.72062854,
0.04306,1.2661575,0.04306,73.08605883,
0.04308,-0.1955636762,0.04308,71.98976795,
0.0431,-1.657284853,0.0431,72.72062854,
0.04312,2.362448383,0.04312,73.81691942,
0.04314,-2.753575735,0.04314,73.08605883,
0.04316,0.5352969121,0.04316,71.98976795,
0.04318,-0.1955636762,0.04318,73.08605883,
0.0432,-3.11900603,0.0432,72.72062854,
0.04322,-2.022715147,0.04322,72.35519825,
0.04324,-0.5609939704,0.04324,73.45148913,
0.04326,-0.5609939704,0.04326,72.35519825,
0.04328,-0.1955636762,0.04328,72.72062854,
0.0433,-0.5609939704,0.0433,73.45148913,
0.04332,-0.1955636762,0.04332,72.35519825,
0.04334,0.5352969121,0.04334,72.35519825,
0.04336,-0.5609939704,0.04336,73.08605883,
0.04338,-0.9264242646,0.04338,73.08605883,
0.0434,-1.291854559,0.0434,72.35519825,
0.04342,-0.9264242646,0.04342,72.72062854,
0.04344,-0.9264242646,0.04344,72.72062854,
0.04346,-0.1955636762,0.04346,71.98976795,
0.04348,0.1698666179,0.04348,73.08605883,
0.0435,-0.1955636762,0.0435,72.72062854,
0.04352,1.2661575,0.04352,72.72062854,
0.04354,1.2661575,0.04354,73.08605883,
0.04356,0.5352969121,0.04356,72.35519825,
0.04358,0.9007272063,0.04358,72.35519825,
0.0436,0.9007272063,0.0436,73.08605883,
0.04362,0.1698666179,0.04362,73.08605883,
0.04364,-0.1955636762,0.04364,72.72062854,
0.04366,1.2661575,0.04366,72.72062854,
0.04368,0.1698666179,0.04368,72.72062854,
0.0437,1.997018089,0.0437,72.35519825,
0.04372,-0.1955636762,0.04372,73.08605883,
0.04374,0.9007272063,0.04374,72.72062854,
0.04376,1.631587795,0.04376,72.35519825,
0.04378,1.997018089,0.04378,73.08605883,
0.0438,1.997018089,0.0438,73.08605883,
0.04382,3.458739265,0.04382,72.72062854,
0.04384,1.631587795,0.04384,73.08605883,
0.04386,0.5352969121,0.04386,72.72062854,
0.04388,1.2661575,0.04388,72.72062854,
0.0439,0.5352969121,0.0439,72.72062854,
0.04392,-0.5609939704,0.04392,72.72062854,
0.04394,-0.1955636762,0.04394,72.35519825,
0.04396,-0.1955636762,0.04396,72.72062854,
0.04398,-0.1955636762,0.04398,73.08605883,
0.044,1.997018089,0.044,72.72062854,
0.04402,1.2661575,0.04402,72.72062854,
0.04404,0.1698666179,0.04404,73.08605883,
0.04406,3.458739265,0.04406,72.72062854,
0.04408,-1.291854559,0.04408,72.72062854,
0.0441,-1.657284853,0.0441,72.72062854,
0.04412,-0.5609939704,0.04412,72.72062854,
0.04414,-0.5609939704,0.04414,74.18234972,
0.04416,-1.657284853,0.04416,71.98976795,
0.04418,-0.9264242646,0.04418,71.98976795,
0.0442,0.5352969121,0.0442,72.35519825,
0.04422,-2.388145441,0.04422,71.62433766,
0.04424,-0.9264242646,0.04424,72.35519825,
0.04426,0.5352969121,0.04426,72.35519825,
0.04428,-0.1955636762,0.04428,72.72062854,
0.0443,0.9007272063,0.0443,72.72062854,
0.04432,-0.1955636762,0.04432,72.35519825,
0.04434,-0.1955636762,0.04434,72.35519825,
0.04436,-1.657284853,0.04436,72.72062854,
0.04438,-0.9264242646,0.04438,72.35519825,
0.0444,-1.291854559,0.0444,72.72062854,
0.04442,0.1698666179,0.04442,72.35519825,
0.04444,-0.1955636762,0.04444,72.35519825,
0.04446,0.5352969121,0.04446,72.72062854,
0.04448,1.631587795,0.04448,73.08605883,
0.0445,1.631587795,0.0445,71.98976795,
0.04452,1.2661575,0.04452,72.35519825,
0.04454,1.2661575,0.04454,72.35519825,
0.04456,1.2661575,0.04456,71.98976795,
0.04458,1.997018089,0.04458,71.98976795,
0.0446,1.2661575,0.0446,72.35519825,
0.04462,0.1698666179,0.04462,71.62433766,
0.04464,1.2661575,0.04464,72.72062854,
0.04466,0.1698666179,0.04466,72.35519825,
0.04468,-0.5609939704,0.04468,71.98976795,
0.0447,0.9007272063,0.0447,72.35519825,
0.04472,0.9007272063,0.04472,72.35519825,
0.04474,1.631587795,0.04474,71.98976795,
0.04476,2.727878677,0.04476,72.72062854,
0.04478,1.631587795,0.04478,72.35519825,
0.0448,0.1698666179,0.0448,71.98976795,
0.04482,2.362448383,0.04482,72.72062854,
0.04484,0.1698666179,0.04484,72.35519825,
0.04486,0.5352969121,0.04486,71.62433766,
0.04488,0.5352969121,0.04488,72.35519825,
0.0449,-0.5609939704,0.0449,72.35519825,
0.04492,-0.9264242646,0.04492,71.98976795,
0.04494,0.5352969121,0.04494,72.72062854,
0.04496,0.1698666179,0.04496,72.72062854,
0.04498,0.5352969121,0.04498,72.35519825,
0.045,2.362448383,0.045,72.35519825,
0.04502,0.9007272063,0.04502,72.72062854,
0.04504,-0.5609939704,0.04504,71.98976795,
0.04506,-2.022715147,0.04506,71.98976795,
0.04508,0.1698666179,0.04508,72.35519825,
0.0451,-2.388145441,0.0451,72.35519825,
0.04512,1.997018089,0.04512,73.45148913,
0.04514,-2.753575735,0.04514,71.62433766,
0.04516,-2.388145441,0.04516,71.62433766,
0.04518,0.1698666179,0.04518,72.35519825,
0.0452,-0.9264242646,0.0452,71.98976795,
0.04522,-0.1955636762,0.04522,71.98976795,
0.04524,-0.5609939704,0.04524,71.98976795,
0.04526,0.5352969121,0.04526,72.72062854,
0.04528,-1.291854559,0.04528,71.98976795,
0.0453,0.5352969121,0.0453,72.35519825,
0.04532,-0.9264242646,0.04532,72.35519825,
0.04534,-1.291854559,0.04534,71.62433766,
0.04536,-1.657284853,0.04536,72.35519825,
0.04538,-0.9264242646,0.04538,73.08605883,
0.0454,-1.291854559,0.0454,72.35519825,
0.04542,0.5352969121,0.04542,72.35519825,
0.04544,1.2661575,0.04544,72.35519825,
0.04546,-0.1955636762,0.04546,71.98976795,
0.04548,2.362448383,0.04548,72.35519825,
0.0455,1.2661575,0.0455,73.08605883,
0.04552,0.1698666179,0.04552,71.98976795,
0.04554,1.631587795,0.04554,72.72062854,
0.04556,1.2661575,0.04556,72.35519825,
0.04558,-0.1955636762,0.04558,72.35519825,
0.0456,0.9007272063,0.0456,72.72062854,
0.04562,0.1698666179,0.04562,73.08605883,
0.04564,0.5352969121,0.04564,71.98976795,
0.04566,0.5352969121,0.04566,72.35519825,
0.04568,0.5352969121,0.04568,72.35519825,
0.0457,1.2661575,0.0457,71.98976795,
0.04572,1.997018089,0.04572,72.72062854,
0.04574,1.997018089,0.04574,71.98976795,
0.04576,1.631587795,0.04576,72.35519825,
0.04578,1.997018089,0.04578,71.98976795,
0.0458,0.9007272063,0.0458,72.72062854,
0.04582,0.5352969121,0.04582,71.98976795,
0.04584,1.997018089,0.04584,72.35519825,
0.04586,-0.5609939704,0.04586,72.72062854,
0.04588,-1.291854559,0.04588,71.98976795,
0.0459,-0.9264242646,0.0459,72.72062854,
0.04592,0.1698666179,0.04592,72.35519825,
0.04594,0.9007272063,0.04594,72.35519825,
0.04596,2.362448383,0.04596,72.72062854,
0.04598,1.631587795,0.04598,72.35519825,
0.046,1.631587795,0.046,71.25890736,
0.04602,0.1698666179,0.04602,73.08605883,
0.04604,-0.1955636762,0.04604,72.35519825,
0.04606,-1.657284853,0.04606,73.08605883,
0.04608,-2.022715147,0.04608,72.72062854,
0.0461,-2.753575735,0.0461,73.81691942,
0.04612,-3.11900603,0.04612,72.72062854,
0.04614,-3.484436324,0.04614,73.81691942,
0.04616,-1.657284853,0.04616,72.72062854,
0.04618,-0.1955636762,0.04618,72.35519825,
0.0462,-0.9264242646,0.0462,73.08605883,
0.04622,1.2661575,0.04622,72.72062854,
0.04624,0.1698666179,0.04624,72.72062854,
0.04626,0.9007272063,0.04626,72.72062854,
0.04628,-0.5609939704,0.04628,73.08605883,
0.0463,-1.657284853,0.0463,72.72062854,
0.04632,-1.657284853,0.04632,73.08605883,
0.04634,-0.1955636762,0.04634,72.35519825,
0.04636,-0.9264242646,0.04636,73.08605883,
0.04638,0.5352969121,0.04638,72.72062854,
0.0464,-0.1955636762,0.0464,72.72062854,
0.04642,0.1698666179,0.04642,71.98976795,
0.04644,0.5352969121,0.04644,72.35519825,
0.04646,1.2661575,0.04646,73.08605883,
0.04648,1.2661575,0.04648,72.72062854,
0.0465,1.631587795,0.0465,72.35519825,
0.04652,0.5352969121,0.04652,73.08605883,
0.04654,1.2661575,0.04654,72.35519825,
0.04656,-0.1955636762,0.04656,72.35519825,
0.04658,0.9007272063,0.04658,72.72062854,
0.0466,-0.5609939704,0.0466,72.35519825,
0.04662,0.5352969121,0.04662,71.62433766,
0.04664,0.1698666179,0.04664,72.72062854,
0.04666,-0.5609939704,0.04666,71.98976795,
0.04668,1.631587795,0.04668,72.72062854,
0.0467,0.9007272063,0.0467,72.72062854,
0.04672,2.362448383,0.04672,72.35519825,
0.04674,1.997018089,0.04674,72.72062854,
0.04676,1.2661575,0.04676,72.72062854,
0.04678,0.1698666179,0.04678,72.72062854,
0.0468,0.5352969121,0.0468,72.35519825,
0.04682,0.5352969121,0.04682,72.72062854,
0.04684,-0.5609939704,0.04684,72.35519825,
0.04686,-1.291854559,0.04686,71.98976795,
0.04688,-1.291854559,0.04688,73.08605883,
0.0469,-0.5609939704,0.0469,72.72062854,
0.04692,0.5352969121,0.04692,71.98976795,
0.04694,2.362448383,0.04694,72.72062854,
0.04696,0.9007272063,0.04696,72.72062854,
0.04698,2.362448383,0.04698,72.72062854,
0.047,0.1698666179,0.047,72.72062854,
0.04702,-0.5609939704,0.04702,73.45148913,
0.04704,-0.9264242646,0.04704,70.89347707,
0.04706,-0.9264242646,0.04706,72.35519825,
0.04708,-1.657284853,0.04708,72.72062854,
0.0471,-1.291854559,0.0471,72.72062854,
0.04712,-3.11900603,0.04712,72.72062854,
0.04714,-2.388145441,0.04714,71.62433766,
0.04716,-2.022715147,0.04716,73.08605883,
0.04718,0.9007272063,0.04718,73.45148913,
0.0472,-1.291854559,0.0472,72.72062854,
0.04722,1.2661575,0.04722,72.72062854,
0.04724,0.5352969121,0.04724,72.72062854,
0.04726,-1.657284853,0.04726,72.72062854,
0.04728,-1.657284853,0.04728,72.72062854,
0.0473,-0.9264242646,0.0473,73.08605883,
0.04732,-0.9264242646,0.04732,72.72062854,
0.04734,-1.657284853,0.04734,72.35519825,
0.04736,-0.5609939704,0.04736,72.72062854,
0.04738,-0.1955636762,0.04738,72.72062854,
0.0474,-0.5609939704,0.0474,72.35519825,
0.04742,1.631587795,0.04742,72.72062854,
0.04744,1.2661575,0.04744,72.35519825,
0.04746,1.997018089,0.04746,71.98976795,
0.04748,1.2661575,0.04748,73.08605883,
0.0475,0.5352969121,0.0475,71.98976795,
0.04752,0.1698666179,0.04752,72.35519825,
0.04754,0.9007272063,0.04754,73.08605883,
0.04756,0.1698666179,0.04756,72.72062854,
0.04758,-0.1955636762,0.04758,72.35519825,
0.0476,1.2661575,0.0476,72.72062854,
0.04762,0.5352969121,0.04762,71.98976795,
0.04764,0.1698666179,0.04764,72.35519825,
0.04766,2.362448383,0.04766,72.72062854,
0.04768,1.631587795,0.04768,72.35519825,
0.0477,1.631587795,0.0477,71.98976795,
0.04772,1.631587795,0.04772,72.72062854,
0.04774,1.997018089,0.04774,73.08605883,
0.04776,0.9007272063,0.04776,72.35519825,
0.04778,0.9007272063,0.04778,73.08605883,
0.0478,-0.1955636762,0.0478,72.35519825,
0.04782,-0.5609939704,0.04782,72.72062854,
0.04784,-0.9264242646,0.04784,73.08605883,
0.04786,-2.022715147,0.04786,72.35519825,
0.04788,0.5352969121,0.04788,72.35519825,
0.0479,1.2661575,0.0479,72.72062854,
0.04792,0.5352969121,0.04792,71.98976795,
0.04794,1.631587795,0.04794,72.72062854,
0.04796,0.5352969121,0.04796,72.72062854,
0.04798,-0.9264242646,0.04798,71.98976795,
0.048,-1.657284853,0.048,71.98976795,
0.04802,-2.388145441,0.04802,73.45148913,
0.04804,-2.388145441,0.04804,73.45148913,
0.04806,-2.753575735,0.04806,72.35519825,
0.04808,-0.5609939704,0.04808,71.62433766,
0.0481,-1.657284853,0.0481,71.98976795,
0.04812,-0.9264242646,0.04812,71.62433766,
0.04814,1.2661575,0.04814,72.72062854,
0.04816,0.1698666179,0.04816,72.35519825,
0.04818,0.5352969121,0.04818,72.72062854,
0.0482,0.5352969121,0.0482,72.72062854,
0.04822,0.1698666179,0.04822,72.72062854,
0.04824,-0.9264242646,0.04824,72.35519825,
0.04826,-1.291854559,0.04826,73.08605883,
0.04828,-0.9264242646,0.04828,72.35519825,
0.0483,-0.1955636762,0.0483,71.98976795,
0.04832,-0.9264242646,0.04832,73.08605883,
0.04834,-0.1955636762,0.04834,72.72062854,
0.04836,0.9007272063,0.04836,72.35519825,
0.04838,1.631587795,0.04838,73.08605883,
0.0484,0.9007272063,0.0484,72.35519825,
0.04842,2.362448383,0.04842,72.35519825,
0.04844,1.631587795,0.04844,73.08605883,
0.04846,0.5352969121,0.04846,72.72062854,
0.04848,0.9007272063,0.04848,71.98976795,
0.0485,0.9007272063,0.0485,73.08605883,
0.04852,1.2661575,0.04852,72.72062854,
0.04854,0.5352969121,0.04854,72.35519825,
0.04856,0.5352969121,0.04856,72.72062854,
0.04858,0.5352969121,0.04858,72.35519825,
0.0486,1.2661575,0.0486,72.72062854,
0.04862,2.362448383,0.04862,73.45148913,
0.04864,0.5352969121,0.04864,72.35519825,
0.04866,1.997018089,0.04866,72.35519825,
0.04868,2.362448383,0.04868,73.08605883,
0.0487,1.2661575,0.0487,72.72062854,
0.04872,1.631587795,0.04872,72.35519825,
0.04874,1.2661575,0.04874,73.08605883,
0.04876,0.9007272063,0.04876,72.72062854,
0.04878,0.5352969121,0.04878,72.35519825,
0.0488,0.1698666179,0.0488,73.08605883,
0.04882,-0.9264242646,0.04882,72.72062854,
0.04884,-1.291854559,0.04884,72.35519825,
0.04886,0.1698666179,0.04886,73.08605883,
0.04888,0.1698666179,0.04888,73.08605883,
0.0489,1.2661575,0.0489,72.35519825,
0.04892,1.631587795,0.04892,73.08605883,
0.04894,-0.5609939704,0.04894,72.72062854,
0.04896,1.997018089,0.04896,71.62433766,
0.04898,0.1698666179,0.04898,72.35519825,
0.049,-2.022715147,0.049,72.35519825,
0.04902,-1.291854559,0.04902,72.72062854,
0.04904,-2.753575735,0.04904,73.81691942,
0.04906,-2.388145441,0.04906,72.35519825,
0.04908,1.997018089,0.04908,73.08605883,
0.0491,-2.022715147,0.0491,72.35519825,
0.04912,-0.9264242646,0.04912,73.08605883,
0.04914,-0.5609939704,0.04914,72.72062854,
0.04916,-0.1955636762,0.04916,73.08605883,
0.04918,-1.291854559,0.04918,72.72062854,
0.0492,-0.1955636762,0.0492,72.35519825,
0.04922,0.5352969121,0.04922,72.72062854,
0.04924,-2.022715147,0.04924,72.72062854,
0.04926,-0.5609939704,0.04926,71.98976795,
0.04928,-1.291854559,0.04928,72.72062854,
0.0493,-2.022715147,0.0493,72.72062854,
0.04932,-0.5609939704,0.04932,72.72062854,
0.04934,0.1698666179,0.04934,72.72062854,
0.04936,-0.5609939704,0.04936,72.35519825,
0.04938,2.727878677,0.04938,72.72062854,
0.0494,1.2661575,0.0494,73.08605883,
0.04942,1.631587795,0.04942,72.72062854,
0.04944,0.5352969121,0.04944,72.72062854,
0.04946,0.9007272063,0.04946,73.08605883,
0.04948,-0.5609939704,0.04948,72.35519825,
0.0495,0.5352969121,0.0495,72.72062854,
0.04952,0.9007272063,0.04952,72.72062854,
0.04954,-0.5609939704,0.04954,72.35519825,
0.04956,-0.1955636762,0.04956,72.72062854,
0.04958,0.1698666179,0.04958,73.08605883,
0.0496,0.5352969121,0.0496,72.35519825,
0.04962,1.631587795,0.04962,72.35519825,
0.04964,1.997018089,0.04964,73.08605883,
0.04966,1.631587795,0.04966,73.08605883,
0.04968,1.631587795,0.04968,72.72062854,
0.0497,2.727878677,0.0497,73.08605883,
0.04972,0.5352969121,0.04972,72.72062854,
0.04974,1.631587795,0.04974,72.35519825,
0.04976,0.1698666179,0.04976,72.72062854,
0.04978,-0.9264242646,0.04978,72.72062854,
0.0498,-2.388145441,0.0498,72.35519825,
0.04982,-0.1955636762,0.04982,73.08605883,
0.04984,-2.388145441,0.04984,72.72062854,
0.04986,0.9007272063,0.04986,73.08605883,
0.04988,1.631587795,0.04988,73.08605883,
0.0499,0.5352969121,0.0499,72.72062854,
0.04992,-0.1955636762,0.04992,73.08605883,
0.04994,2.362448383,0.04994,71.62433766,
0.04996,-0.1955636762,0.04996,71.25890736,
0.04998,0.5352969121,0.04998,73.08605883,
0.05,-4.215296912,0.05,72.35519825,
0.05002,1.2661575,0.05002,72.72062854,
0.05004,-3.11900603,0.05004,72.35519825,
0.05006,-2.388145441,0.05006,72.72062854,
0.05008,-2.388145441,0.05008,72.72062854,
0.0501,-1.657284853,0.0501,72.72062854,
0.05012,-0.1955636762,0.05012,72.35519825,
0.05014,0.9007272063,0.05014,71.98976795,
0.05016,-0.1955636762,0.05016,73.08605883,
0.05018,-0.1955636762,0.05018,72.35519825,
0.0502,-0.1955636762,0.0502,72.35519825,
0.05022,-1.291854559,0.05022,72.35519825,
0.05024,-0.5609939704,0.05024,71.98976795,
0.05026,-0.9264242646,0.05026,72.35519825,
0.05028,-0.9264242646,0.05028,72.35519825,
0.0503,0.1698666179,0.0503,71.98976795,
0.05032,0.1698666179,0.05032,72.72062854,
0.05034,0.9007272063,0.05034,72.35519825,
0.05036,0.5352969121,0.05036,72.35519825,
0.05038,1.631587795,0.05038,72.35519825,
0.0504,0.9007272063,0.0504,72.35519825,
0.05042,0.1698666179,0.05042,72.35519825,
0.05044,0.5352969121,0.05044,72.35519825,
0.05046,0.1698666179,0.05046,72.35519825,
0.05048,-0.1955636762,0.05048,72.35519825,
0.0505,1.2661575,0.0505,72.72062854,
0.05052,0.5352969121,0.05052,72.35519825,
0.05054,0.5352969121,0.05054,71.62433766,
0.05056,0.5352969121,0.05056,72.72062854,
0.05058,0.9007272063,0.05058,72.72062854,
0.0506,1.997018089,0.0506,71.62433766,
0.05062,1.2661575,0.05062,72.35519825,
0.05064,1.997018089,0.05064,72.35519825,
0.05066,1.997018089,0.05066,71.98976795,
0.05068,1.2661575,0.05068,72.35519825,
0.0507,0.9007272063,0.0507,72.72062854,
0.05072,0.9007272063,0.05072,72.35519825,
0.05074,0.1698666179,0.05074,72.72062854,
0.05076,-0.1955636762,0.05076,72.35519825,
0.05078,-0.5609939704,0.05078,71.98976795,
0.0508,0.1698666179,0.0508,72.72062854,
0.05082,0.9007272063,0.05082,72.35519825,
0.05084,0.5352969121,0.05084,71.98976795,
0.05086,1.631587795,0.05086,72.72062854,
0.05088,0.5352969121,0.05088,72.35519825,
0.0509,1.2661575,0.0509,71.98976795,
0.05092,0.5352969121,0.05092,71.62433766,
0.05094,-2.022715147,0.05094,73.81691942,
0.05096,-1.291854559,0.05096,70.89347707,
0.05098,0.9007272063,0.05098,71.98976795,
0.051,-0.9264242646,0.051,73.81691942,
0.05102,-3.11900603,0.05102,71.62433766,
0.05104,-0.9264242646,0.05104,73.08605883,
0.05106,0.9007272063,0.05106,72.72062854,
0.05108,-1.291854559,0.05108,72.35519825,
0.0511,-0.1955636762,0.0511,73.08605883,
0.05112,-1.291854559,0.05112,72.35519825,
0.05114,-0.5609939704,0.05114,72.35519825,
0.05116,-1.291854559,0.05116,72.72062854,
0.05118,-0.5609939704,0.05118,72.72062854,
0.0512,-0.5609939704,0.0512,73.08605883,
0.05122,-2.022715147,0.05122,72.35519825,
0.05124,0.1698666179,0.05124,72.72062854,
0.05126,-0.5609939704,0.05126,72.72062854,
0.05128,-0.1955636762,0.05128,72.35519825,
0.0513,0.1698666179,0.0513,71.98976795,
0.05132,0.9007272063,0.05132,72.72062854,
0.05134,0.5352969121,0.05134,72.72062854,
0.05136,0.9007272063,0.05136,72.35519825,
0.05138,0.5352969121,0.05138,72.35519825,
0.0514,0.1698666179,0.0514,72.35519825,
0.05142,1.2661575,0.05142,73.08605883,
0.05144,0.9007272063,0.05144,71.98976795,
0.05146,1.631587795,0.05146,72.35519825,
0.05148,0.9007272063,0.05148,73.08605883,
0.0515,0.1698666179,0.0515,72.72062854,
0.05152,0.1698666179,0.05152,72.35519825,
0.05154,1.631587795,0.05154,72.72062854,
0.05156,0.9007272063,0.05156,72.72062854,
0.05158,1.997018089,0.05158,71.98976795,
0.0516,1.2661575,0.0516,73.08605883,
0.05162,2.362448383,0.05162,72.35519825,
0.05164,1.2661575,0.05164,72.35519825,
0.05166,1.631587795,0.05166,73.08605883,
0.05168,-0.1955636762,0.05168,73.08605883,
0.0517,0.1698666179,0.0517,72.35519825,
0.05172,-0.5609939704,0.05172,72.72062854,
0.05174,-1.291854559,0.05174,72.72062854,
0.05176,-0.5609939704,0.05176,72.35519825,
0.05178,-0.9264242646,0.05178,73.45148913,
0.0518,1.2661575,0.0518,72.35519825,
0.05182,0.5352969121,0.05182,72.35519825,
0.05184,0.5352969121,0.05184,72.72062854,
0.05186,-0.1955636762,0.05186,72.35519825,
0.05188,-0.5609939704,0.05188,72.35519825,
0.0519,-0.9264242646,0.0519,73.08605883,
0.05192,-0.1955636762,0.05192,73.08605883,
0.05194,-3.11900603,0.05194,72.72062854,
0.05196,0.5352969121,0.05196,72.72062854,
0.05198,-3.11900603,0.05198,72.72062854,
0.052,-1.657284853,0.052,73.08605883,
0.05202,-2.753575735,0.05202,73.08605883,
0.05204,-2.753575735,0.05204,72.72062854,
0.05206,-1.657284853,0.05206,71.98976795,
0.05208,0.5352969121,0.05208,73.08605883,
0.0521,-0.9264242646,0.0521,72.35519825,
0.05212,-0.1955636762,0.05212,71.98976795,
0.05214,-0.5609939704,0.05214,73.08605883,
0.05216,-1.657284853,0.05216,72.72062854,
0.05218,-1.291854559,0.05218,72.35519825,
0.0522,-0.5609939704,0.0522,72.72062854,
0.05222,-0.5609939704,0.05222,72.35519825,
0.05224,-1.291854559,0.05224,72.72062854,
0.05226,0.9007272063,0.05226,73.08605883,
0.05228,0.1698666179,0.05228,72.35519825,
0.0523,0.9007272063,0.0523,71.98976795,
0.05232,1.2661575,0.05232,72.72062854,
0.05234,-0.1955636762,0.05234,72.72062854,
0.05236,0.9007272063,0.05236,72.35519825,
0.05238,1.2661575,0.05238,72.72062854,
0.0524,0.5352969121,0.0524,72.72062854,
0.05242,0.9007272063,0.05242,72.35519825,
0.05244,0.1698666179,0.05244,72.72062854,
0.05246,-0.5609939704,0.05246,72.35519825,
0.05248,-0.5609939704,0.05248,71.98976795,
0.0525,-0.9264242646,0.0525,72.72062854,
0.05252,-0.5609939704,0.05252,72.35519825,
0.05254,0.9007272063,0.05254,72.35519825,
0.05256,1.631587795,0.05256,72.72062854,
0.05258,1.631587795,0.05258,72.35519825,
0.0526,1.997018089,0.0526,72.35519825,
0.05262,0.9007272063,0.05262,73.08605883,
0.05264,1.2661575,0.05264,71.98976795,
0.05266,1.2661575,0.05266,72.35519825,
0.05268,0.1698666179,0.05268,72.72062854,
0.0527,-0.9264242646,0.0527,72.72062854,
0.05272,-0.9264242646,0.05272,72.35519825,
0.05274,-0.9264242646,0.05274,72.35519825,
0.05276,-0.5609939704,0.05276,71.98976795,
0.05278,-0.1955636762,0.05278,71.98976795,
0.0528,0.1698666179,0.0528,73.45148913,
0.05282,1.2661575,0.05282,71.98976795,
0.05284,-0.5609939704,0.05284,71.62433766,
0.05286,0.1698666179,0.05286,72.72062854,
0.05288,-2.753575735,0.05288,72.72062854,
0.0529,0.1698666179,0.0529,72.72062854,
0.05292,-2.753575735,0.05292,73.45148913,
0.05294,-4.215296912,0.05294,72.35519825,
0.05296,-2.022715147,0.05296,73.08605883,
0.05298,-3.484436324,0.05298,73.45148913,
0.053,-2.388145441,0.053,72.35519825,
0.05302,-0.5609939704,0.05302,71.98976795,
0.05304,-0.5609939704,0.05304,72.72062854,
0.05306,0.5352969121,0.05306,72.72062854,
0.05308,-1.291854559,0.05308,72.35519825,
0.0531,-0.1955636762,0.0531,73.08605883,
0.05312,-1.291854559,0.05312,72.72062854,
0.05314,-2.022715147,0.05314,71.98976795,
0.05316,-1.657284853,0.05316,72.72062854,
0.05318,-1.657284853,0.05318,71.98976795,
0.0532,-2.022715147,0.0532,72.35519825,
0.05322,-0.5609939704,0.05322,72.72062854,
0.05324,-0.9264242646,0.05324,72.35519825,
0.05326,1.2661575,0.05326,71.98976795,
0.05328,0.9007272063,0.05328,73.08605883,
0.0533,0.9007272063,0.0533,72.35519825,
0.05332,0.5352969121,0.05332,71.98976795,
0.05334,0.5352969121,0.05334,73.08605883,
0.05336,0.9007272063,0.05336,72.35519825,
0.05338,0.1698666179,0.05338,72.35519825,
0.0534,0.5352969121,0.0534,73.08605883,
0.05342,-0.5609939704,0.05342,72.35519825,
0.05344,-0.9264242646,0.05344,72.35519825,
0.05346,0.5352969121,0.05346,73.08605883,
0.05348,-1.291854559,0.05348,72.72062854,
0.0535,1.631587795,0.0535,72.35519825,
0.05352,1.631587795,0.05352,72.72062854,
0.05354,0.9007272063,0.05354,72.35519825,
0.05356,0.5352969121,0.05356,72.72062854,
0.05358,2.727878677,0.05358,72.72062854,
0.0536,0.1698666179,0.0536,71.98976795,
0.05362,0.1698666179,0.05362,72.35519825,
0.05364,0.9007272063,0.05364,73.08605883,
0.05366,0.1698666179,0.05366,72.35519825,
0.05368,-0.1955636762,0.05368,72.35519825,
0.0537,0.1698666179,0.0537,73.08605883,
0.05372,-1.657284853,0.05372,72.72062854,
0.05374,0.9007272063,0.05374,72.35519825,
0.05376,-0.1955636762,0.05376,73.45148913,
0.05378,0.9007272063,0.05378,73.08605883,
0.0538,-0.9264242646,0.0538,73.08605883,
0.05382,-0.1955636762,0.05382,71.98976795,
0.05384,-2.022715147,0.05384,73.81691942,
0.05386,-0.5609939704,0.05386,73.08605883,
0.05388,-0.1955636762,0.05388,73.45148913,
0.0539,-2.388145441,0.0539,73.08605883,
0.05392,-2.022715147,0.05392,72.35519825,
0.05394,-2.388145441,0.05394,71.98976795,
0.05396,-3.484436324,0.05396,71.98976795,
0.05398,-1.291854559,0.05398,72.35519825,
0.054,-2.022715147,0.054,72.72062854,
0.05402,1.2661575,0.05402,73.08605883,
0.05404,-0.5609939704,0.05404,72.72062854,
0.05406,0.1698666179,0.05406,72.72062854,
0.05408,-1.291854559,0.05408,72.72062854,
0.0541,-1.657284853,0.0541,72.35519825,
0.05412,-1.291854559,0.05412,73.08605883,
0.05414,-1.291854559,0.05414,73.08605883,
0.05416,-0.9264242646,0.05416,71.98976795,
0.05418,-0.5609939704,0.05418,73.08605883,
0.0542,-1.291854559,0.0542,72.72062854,
0.05422,-0.1955636762,0.05422,71.98976795,
0.05424,-0.1955636762,0.05424,73.08605883,
0.05426,1.997018089,0.05426,72.72062854,
0.05428,1.631587795,0.05428,71.98976795,
0.0543,1.2661575,0.0543,73.08605883,
0.05432,0.9007272063,0.05432,73.08605883,
0.05434,1.2661575,0.05434,72.35519825,
0.05436,0.1698666179,0.05436,73.08605883,
0.05438,-0.1955636762,0.05438,72.35519825,
0.0544,-0.1955636762,0.0544,72.72062854,
0.05442,0.1698666179,0.05442,72.72062854,
0.05444,-0.1955636762,0.05444,72.35519825,
0.05446,0.1698666179,0.05446,72.35519825,
0.05448,0.1698666179,0.05448,73.08605883,
0.0545,1.2661575,0.0545,72.72062854,
0.05452,0.9007272063,0.05452,72.35519825,
0.05454,1.2661575,0.05454,73.08605883,
0.05456,0.1698666179,0.05456,72.35519825,
0.05458,0.5352969121,0.05458,72.35519825,
0.0546,0.5352969121,0.0546,72.72062854,
0.05462,0.9007272063,0.05462,72.72062854,
0.05464,0.1698666179,0.05464,72.35519825,
0.05466,-0.1955636762,0.05466,72.72062854,
0.05468,-2.022715147,0.05468,72.35519825,
0.0547,-0.9264242646,0.0547,72.35519825,
0.05472,0.5352969121,0.05472,72.35519825,
0.05474,1.2661575,0.05474,72.35519825,
0.05476,0.5352969121,0.05476,71.98976795,
0.05478,1.997018089,0.05478,73.08605883,
0.0548,-0.1955636762,0.0548,71.62433766,
0.05482,-0.9264242646,0.05482,73.08605883,
0.05484,-0.9264242646,0.05484,72.35519825,
0.05486,-3.849866618,0.05486,73.08605883,
0.05488,-1.657284853,0.05488,73.08605883,
0.0549,-0.1955636762,0.0549,73.45148913,
0.05492,-3.484436324,0.05492,72.72062854,
0.05494,-3.484436324,0.05494,72.72062854,
0.05496,0.1698666179,0.05496,73.08605883,
0.05498,-2.388145441,0.05498,73.08605883,
0.055,-0.5609939704,0.055,72.72062854,
0.05502,0.5352969121,0.05502,72.72062854,
0.05504,-1.291854559,0.05504,72.35519825,
0.05506,-0.9264242646,0.05506,72.35519825,
0.05508,-2.022715147,0.05508,73.45148913,
0.0551,-1.291854559,0.0551,73.08605883,
0.05512,0.1698666179,0.05512,72.72062854,
0.05514,-0.5609939704,0.05514,72.72062854,
0.05516,-1.291854559,0.05516,72.35519825,
0.05518,-0.9264242646,0.05518,72.72062854,
0.0552,-0.1955636762,0.0552,72.72062854,
0.05522,-0.5609939704,0.05522,72.72062854,
0.05524,0.9007272063,0.05524,72.35519825,
0.05526,1.631587795,0.05526,72.72062854,
0.05528,0.9007272063,0.05528,72.35519825,
0.0553,0.1698666179,0.0553,72.35519825,
0.05532,0.1698666179,0.05532,73.08605883,
0.05534,-0.5609939704,0.05534,72.35519825,
0.05536,0.5352969121,0.05536,72.35519825,
0.05538,0.5352969121,0.05538,72.72062854,
0.0554,0.1698666179,0.0554,72.72062854,
0.05542,0.5352969121,0.05542,72.72062854,
0.05544,-0.1955636762,0.05544,72.72062854,
0.05546,0.1698666179,0.05546,72.35519825,
0.05548,1.2661575,0.05548,71.98976795,
0.0555,1.997018089,0.0555,72.72062854,
0.05552,0.9007272063,0.05552,72.72062854,
0.05554,1.631587795,0.05554,72.35519825,
0.05556,-0.1955636762,0.05556,72.72062854,
0.05558,0.5352969121,0.05558,72.72062854,
0.0556,0.1698666179,0.0556,72.72062854,
0.05562,0.1698666179,0.05562,71.98976795,
0.05564,0.5352969121,0.05564,72.35519825,
0.05566,0.1698666179,0.05566,72.72062854,
0.05568,-1.291854559,0.05568,71.98976795,
0.0557,0.5352969121,0.0557,72.72062854,
0.05572,0.1698666179,0.05572,72.72062854,
0.05574,0.1698666179,0.05574,71.62433766,
0.05576,0.9007272063,0.05576,72.35519825,
0.05578,-0.1955636762,0.05578,72.72062854,
0.0558,1.2661575,0.0558,70.52804678,
0.05582,-1.657284853,0.05582,72.35519825,
0.05584,-3.11900603,0.05584,71.98976795,
0.05586,-2.753575735,0.05586,72.72062854,
0.05588,-4.215296912,0.05588,72.72062854,
0.0559,-2.022715147,0.0559,71.98976795,
0.05592,-1.657284853,0.05592,72.72062854,
0.05594,-1.291854559,0.05594,72.72062854,
0.05596,-1.291854559,0.05596,72.35519825,
0.05598,-0.5609939704,0.05598,71.98976795,
0.056,0.5352969121,0.056,72.72062854,
0.05602,-0.9264242646,0.05602,72.35519825,
0.05604,-1.657284853,0.05604,71.98976795,
0.05606,-0.5609939704,0.05606,72.35519825,
0.05608,-0.9264242646,0.05608,72.35519825,
0.0561,-2.753575735,0.0561,72.35519825,
0.05612,-0.1955636762,0.05612,71.98976795,
0.05614,-0.5609939704,0.05614,72.35519825,
0.05616,-0.9264242646,0.05616,71.98976795,
0.05618,0.9007272063,0.05618,72.35519825,
0.0562,0.9007272063,0.0562,72.35519825,
0.05622,1.997018089,0.05622,72.35519825,
0.05624,1.631587795,0.05624,72.72062854,
0.05626,0.9007272063,0.05626,72.35519825,
0.05628,0.5352969121,0.05628,72.35519825,
0.0563,0.9007272063,0.0563,72.35519825,
0.05632,1.2661575,0.05632,71.98976795,
0.05634,-0.9264242646,0.05634,72.35519825,
0.05636,-0.1955636762,0.05636,71.98976795,
0.05638,0.9007272063,0.05638,72.72062854,
0.0564,0.1698666179,0.0564,71.98976795,
0.05642,0.9007272063,0.05642,72.35519825,
0.05644,0.9007272063,0.05644,73.08605883,
0.05646,1.2661575,0.05646,72.72062854,
0.05648,1.631587795,0.05648,72.35519825,
0.0565,1.2661575,0.0565,72.35519825,
0.05652,0.5352969121,0.05652,73.08605883,
0.05654,1.2661575,0.05654,72.35519825,
0.05656,0.5352969121,0.05656,73.08605883,
0.05658,0.1698666179,0.05658,72.35519825,
0.0566,0.5352969121,0.0566,72.72062854,
0.05662,-0.9264242646,0.05662,72.72062854,
0.05664,-0.5609939704,0.05664,73.45148913,
0.05666,-0.5609939704,0.05666,72.35519825,
0.05668,0.1698666179,0.05668,72.72062854,
0.0567,0.1698666179,0.0567,73.08605883,
0.05672,-0.1955636762,0.05672,72.35519825,
0.05674,0.5352969121,0.05674,72.72062854,
0.05676,0.9007272063,0.05676,72.72062854,
0.05678,-1.657284853,0.05678,72.35519825,
0.0568,-1.657284853,0.0568,72.72062854,
0.05682,-2.022715147,0.05682,72.72062854,
0.05684,-2.388145441,0.05684,73.45148913,
0.05686,-3.11900603,0.05686,72.35519825,
0.05688,-3.11900603,0.05688,73.08605883,
0.0569,-0.1955636762,0.0569,73.08605883,
0.05692,0.5352969121,0.05692,72.35519825,
0.05694,-0.5609939704,0.05694,72.72062854,
0.05696,-2.022715147,0.05696,73.08605883,
0.05698,0.5352969121,0.05698,72.72062854,
0.057,-0.1955636762,0.057,73.45148913,
0.05702,-1.657284853,0.05702,72.72062854,
0.05704,-0.5609939704,0.05704,72.72062854,
0.05706,-1.291854559,0.05706,73.08605883,
0.05708,-1.657284853,0.05708,72.72062854,
0.0571,-0.9264242646,0.0571,72.35519825,
0.05712,-0.9264242646,0.05712,73.08605883,
0.05714,-0.9264242646,0.05714,72.35519825,
0.05716,-0.5609939704,0.05716,72.35519825,
0.05718,0.5352969121,0.05718,73.08605883,
0.0572,0.1698666179,0.0572,72.35519825,
0.05722,0.9007272063,0.05722,72.35519825,
0.05724,1.997018089,0.05724,73.08605883,
0.05726,-0.1955636762,0.05726,72.72062854,
0.05728,0.5352969121,0.05728,72.35519825,
0.0573,0.9007272063,0.0573,73.08605883,
0.05732,-0.9264242646,0.05732,72.72062854,
0.05734,0.5352969121,0.05734,72.72062854,
0.05736,0.9007272063,0.05736,73.08605883,
0.05738,-0.5609939704,0.05738,72.35519825,
0.0574,1.631587795,0.0574,72.35519825,
0.05742,1.997018089,0.05742,72.72062854,
0.05744,0.1698666179,0.05744,72.35519825,
0.05746,2.362448383,0.05746,72.72062854,
0.05748,0.9007272063,0.05748,72.35519825,
0.0575,1.2661575,0.0575,72.72062854,
0.05752,1.2661575,0.05752,72.35519825,
0.05754,0.1698666179,0.05754,73.08605883,
0.05756,-0.9264242646,0.05756,72.72062854,
0.05758,0.1698666179,0.05758,72.72062854,
0.0576,-0.9264242646,0.0576,72.72062854,
0.05762,-0.9264242646,0.05762,72.35519825,
0.05764,-0.1955636762,0.05764,71.98976795,
0.05766,-0.5609939704,0.05766,72.72062854,
0.05768,-0.5609939704,0.05768,72.35519825,
0.0577,0.5352969121,0.0577,72.35519825,
0.05772,0.1698666179,0.05772,72.72062854,
0.05774,-2.022715147,0.05774,73.45148913,
0.05776,0.1698666179,0.05776,71.62433766,
0.05778,-3.484436324,0.05778,73.45148913,
0.0578,0.5352969121,0.0578,71.62433766,
0.05782,-2.022715147,0.05782,71.25890736,
0.05784,-1.291854559,0.05784,73.45148913,
0.05786,-4.215296912,0.05786,72.35519825,
0.05788,0.1698666179,0.05788,71.98976795,
0.0579,-1.657284853,0.0579,72.72062854,
0.05792,-0.9264242646,0.05792,71.62433766,
0.05794,-0.9264242646,0.05794,72.35519825,
0.05796,1.997018089,0.05796,73.08605883,
0.05798,-1.291854559,0.05798,71.98976795,
0.058,-0.5609939704,0.058,71.98976795,
