"A0_accX_x","A0_accX_y","A1_rmsX_x","A1_rmsX_y"
0,-0.9863036726,0,70.89347707,
2e-05,-1.717164261,2e-05,70.89347707,
4e-05,-1.351733967,4e-05,70.89347707,
6e-05,-0.9863036726,6e-05,71.25890736,
8e-05,-0.6208733784,8e-05,70.89347707,
0.0001,-0.9863036726,0.0001,70.89347707,
0.00012,-0.6208733784,0.00012,71.62433766,
0.00014,0.1099872099,0.00014,71.25890736,
0.00016,0.8408477983,0.00016,70.89347707,
0.00018,1.206278092,0.00018,71.25890736,
0.0002,0.4754175041,0.0002,70.89347707,
0.00022,1.206278092,0.00022,70.52804678,
0.00024,1.206278092,0.00024,70.89347707,
0.00026,0.1099872099,0.00026,71.25890736,
0.00028,0.4754175041,0.00028,70.52804678,
0.0003,0.8408477983,0.0003,71.25890736,
0.00032,0.4754175041,0.00032,70.89347707,
0.00034,1.206278092,0.00034,70.89347707,
0.00036,1.206278092,0.00036,70.89347707,
0.00038,0.8408477983,0.00038,71.25890736,
0.0004,0.8408477983,0.0004,70.89347707,
0.00042,1.571708387,0.00042,70.89347707,
0.00044,1.571708387,0.00044,70.89347707,
0.00046,1.571708387,0.00046,70.52804678,
0.00048,2.302568975,0.00048,71.25890736,
0.0005,1.937138681,0.0005,70.16261648,
0.00052,1.571708387,0.00052,70.52804678,
0.00054,0.1099872099,0.00054,70.52804678,
0.00056,-1.351733967,0.00056,70.89347707,
0.00058,-0.6208733784,0.00058,70.89347707,
0.0006,-0.2554430842,0.0006,70.52804678,
0.00062,0.4754175041,0.00062,70.89347707,
0.00064,-0.2554430842,0.00064,71.25890736,
0.00066,1.206278092,0.00066,70.89347707,
0.00068,1.206278092,0.00068,70.89347707,
0.0007,-0.2554430842,0.0007,70.89347707,
0.00072,-0.6208733784,0.00072,69.43175589,
0.00074,-0.9863036726,0.00074,71.25890736,
0.00076,-1.717164261,0.00076,70.16261648,
0.00078,-4.640606614,0.00078,71.62433766,
0.0008,-2.082594555,0.0008,71.25890736,
0.00082,-3.544315732,0.00082,70.89347707,
0.00084,-2.813455143,0.00084,69.0663256,
0.00086,0.1099872099,0.00086,70.52804678,
0.00088,0.4754175041,0.00088,70.89347707,
0.0009,-0.6208733784,0.0009,70.16261648,
0.00092,0.1099872099,0.00092,70.52804678,
0.00094,0.4754175041,0.00094,70.52804678,
0.00096,-0.9863036726,0.00096,70.52804678,
0.00098,0.8408477983,0.00098,70.89347707,
0.001,-0.2554430842,0.001,70.52804678,
0.00102,-1.351733967,0.00102,70.52804678,
0.00104,-0.9863036726,0.00104,70.89347707,
0.00106,-0.9863036726,0.00106,70.89347707,
0.00108,-0.2554430842,0.00108,70.52804678,
0.0011,0.4754175041,0.0011,70.89347707,
0.00112,0.1099872099,0.00112,70.52804678,
0.00114,0.8408477983,0.00114,70.16261648,
0.00116,1.206278092,0.00116,70.52804678,
0.00118,1.206278092,0.00118,70.89347707,
0.0012,0.8408477983,0.0012,70.16261648,
0.00122,2.302568975,0.00122,70.52804678,
0.00124,0.1099872099,0.00124,70.52804678,
0.00126,-0.2554430842,0.00126,70.52804678,
0.00128,0.8408477983,0.00128,70.89347707,
0.0013,0.4754175041,0.0013,71.25890736,
0.00132,0.8408477983,0.00132,71.25890736,
0.00134,1.571708387,0.00134,70.89347707,
0.00136,0.1099872099,0.00136,71.25890736,
0.00138,0.1099872099,0.00138,70.89347707,
0.0014,1.206278092,0.0014,70.89347707,
0.00142,1.206278092,0.00142,70.89347707,
0.00144,0.8408477983,0.00144,71.25890736,
0.00146,1.206278092,0.00146,70.89347707,
0.00148,1.937138681,0.00148,70.89347707,
0.0015,0.8408477983,0.0015,71.25890736,
0.00152,0.8408477983,0.00152,71.25890736,
0.00154,1.571708387,0.00154,70.89347707,
0.00156,-0.6208733784,0.00156,71.25890736,
0.00158,-0.2554430842,0.00158,71.25890736,
0.0016,-0.6208733784,0.0016,70.89347707,
0.00162,0.4754175041,0.00162,70.52804678,
0.00164,-0.2554430842,0.00164,70.52804678,
0.00166,-0.6208733784,0.00166,70.52804678,
0.00168,0.8408477983,0.00168,71.25890736,
0.0017,0.8408477983,0.0017,70.52804678,
0.00172,-0.9863036726,0.00172,71.25890736,
0.00174,-0.2554430842,0.00174,70.16261648,
0.00176,-0.9863036726,0.00176,70.52804678,
0.00178,0.1099872099,0.00178,71.98976795,
0.0018,-2.448024849,0.0018,71.25890736,
0.00182,-2.448024849,0.00182,71.25890736,
0.00184,-0.6208733784,0.00184,71.62433766,
0.00186,-0.6208733784,0.00186,70.89347707,
0.00188,0.4754175041,0.00188,70.89347707,
0.0019,-0.6208733784,0.0019,70.89347707,
0.00192,-0.9863036726,0.00192,70.16261648,
0.00194,-1.717164261,0.00194,70.52804678,
0.00196,-1.717164261,0.00196,71.25890736,
0.00198,-0.6208733784,0.00198,70.52804678,
0.002,-0.2554430842,0.002,70.16261648,
0.00202,-0.6208733784,0.00202,71.25890736,
0.00204,-1.717164261,0.00204,70.89347707,
0.00206,0.4754175041,0.00206,70.89347707,
0.00208,0.4754175041,0.00208,71.62433766,
0.0021,0.8408477983,0.0021,70.52804678,
0.00212,0.1099872099,0.00212,70.52804678,
0.00214,1.937138681,0.00214,71.25890736,
0.00216,-0.2554430842,0.00216,71.25890736,
0.00218,0.1099872099,0.00218,70.89347707,
0.0022,0.4754175041,0.0022,71.25890736,
0.00222,0.1099872099,0.00222,70.52804678,
0.00224,0.4754175041,0.00224,70.52804678,
0.00226,0.4754175041,0.00226,71.62433766,
0.00228,0.1099872099,0.00228,70.89347707,
0.0023,0.1099872099,0.0023,70.52804678,
0.00232,1.206278092,0.00232,71.25890736,
0.00234,0.8408477983,0.00234,70.52804678,
0.00236,0.4754175041,0.00236,70.52804678,
0.00238,2.302568975,0.00238,70.89347707,
0.0024,1.206278092,0.0024,71.25890736,
0.00242,1.571708387,0.00242,70.52804678,
0.00244,2.667999269,0.00244,71.25890736,
0.00246,1.571708387,0.00246,70.52804678,
0.00248,0.8408477983,0.00248,70.52804678,
0.0025,-0.2554430842,0.0025,71.25890736,
0.00252,-0.2554430842,0.00252,70.89347707,
0.00254,0.8408477983,0.00254,70.89347707,
0.00256,0.1099872099,0.00256,71.25890736,
0.00258,-0.9863036726,0.00258,70.89347707,
0.0026,-0.2554430842,0.0026,70.52804678,
0.00262,0.1099872099,0.00262,71.25890736,
0.00264,0.1099872099,0.00264,70.89347707,
0.00266,2.302568975,0.00266,70.52804678,
0.00268,-0.6208733784,0.00268,69.79718619,
0.0027,-1.717164261,0.0027,70.89347707,
0.00272,-1.351733967,0.00272,70.16261648,
0.00274,0.8408477983,0.00274,71.62433766,
0.00276,-2.813455143,0.00276,71.25890736,
0.00278,-1.351733967,0.00278,70.89347707,
0.0028,-2.448024849,0.0028,71.25890736,
0.00282,-0.9863036726,0.00282,71.25890736,
0.00284,-1.717164261,0.00284,70.16261648,
0.00286,0.1099872099,0.00286,71.62433766,
0.00288,-0.2554430842,0.00288,70.89347707,
0.0029,-0.6208733784,0.0029,71.25890736,
0.00292,0.8408477983,0.00292,70.89347707,
0.00294,-0.6208733784,0.00294,70.52804678,
0.00296,-0.6208733784,0.00296,70.52804678,
0.00298,-2.082594555,0.00298,71.25890736,
0.003,-0.9863036726,0.003,71.25890736,
0.00302,-0.9863036726,0.00302,70.52804678,
0.00304,-0.2554430842,0.00304,71.62433766,
0.00306,-0.6208733784,0.00306,70.89347707,
0.00308,0.4754175041,0.00308,70.52804678,
0.0031,1.571708387,0.0031,71.25890736,
0.00312,0.4754175041,0.00312,70.52804678,
0.00314,0.8408477983,0.00314,70.52804678,
0.00316,1.937138681,0.00316,71.25890736,
0.00318,0.4754175041,0.00318,70.52804678,
0.0032,-0.2554430842,0.0032,70.52804678,
0.00322,1.206278092,0.00322,71.25890736,
0.00324,-0.2554430842,0.00324,71.25890736,
0.00326,-0.6208733784,0.00326,70.89347707,
0.00328,1.937138681,0.00328,71.25890736,
0.0033,-0.6208733784,0.0033,71.25890736,
0.00332,0.1099872099,0.00332,70.52804678,
0.00334,1.937138681,0.00334,71.25890736,
0.00336,0.8408477983,0.00336,70.89347707,
0.00338,3.033429563,0.00338,70.16261648,
0.0034,1.571708387,0.0034,71.25890736,
0.00342,1.937138681,0.00342,70.89347707,
0.00344,1.571708387,0.00344,70.52804678,
0.00346,2.302568975,0.00346,70.89347707,
0.00348,-0.9863036726,0.00348,70.89347707,
0.0035,-0.2554430842,0.0035,70.16261648,
0.00352,-0.2554430842,0.00352,71.25890736,
0.00354,-0.6208733784,0.00354,71.25890736,
0.00356,0.1099872099,0.00356,70.16261648,
0.00358,1.571708387,0.00358,71.62433766,
0.0036,0.8408477983,0.0036,70.89347707,
0.00362,1.206278092,0.00362,70.52804678,
0.00364,2.667999269,0.00364,70.89347707,
0.00366,-1.351733967,0.00366,70.89347707,
0.00368,-1.717164261,0.00368,70.16261648,
0.0037,-1.717164261,0.0037,70.89347707,
0.00372,-2.082594555,0.00372,71.62433766,
0.00374,-3.909746026,0.00374,71.62433766,
0.00376,-0.9863036726,0.00376,70.89347707,
0.00378,-2.448024849,0.00378,70.89347707,
0.0038,-0.2554430842,0.0038,70.52804678,
0.00382,-0.9863036726,0.00382,71.25890736,
0.00384,-0.2554430842,0.00384,70.89347707,
0.00386,0.8408477983,0.00386,70.52804678,
0.00388,1.206278092,0.00388,71.25890736,
0.0039,-0.6208733784,0.0039,70.89347707,
0.00392,-0.2554430842,0.00392,70.16261648,
0.00394,-0.9863036726,0.00394,71.25890736,
0.00396,-0.9863036726,0.00396,70.89347707,
0.00398,-1.717164261,0.00398,70.52804678,
0.004,-0.2554430842,0.004,71.25890736,
0.00402,-0.6208733784,0.00402,70.52804678,
0.00404,-0.6208733784,0.00404,70.52804678,
0.00406,0.4754175041,0.00406,70.89347707,
0.00408,0.8408477983,0.00408,71.25890736,
0.0041,0.8408477983,0.0041,70.52804678,
0.00412,1.206278092,0.00412,70.89347707,
0.00414,-0.2554430842,0.00414,70.52804678,
0.00416,0.1099872099,0.00416,70.52804678,
0.00418,1.937138681,0.00418,70.89347707,
0.0042,-0.2554430842,0.0042,70.52804678,
0.00422,0.4754175041,0.00422,70.52804678,
0.00424,0.8408477983,0.00424,71.25890736,
0.00426,0.1099872099,0.00426,71.25890736,
0.00428,-0.2554430842,0.00428,70.52804678,
0.0043,0.4754175041,0.0043,71.25890736,
0.00432,0.8408477983,0.00432,71.25890736,
0.00434,0.8408477983,0.00434,70.89347707,
0.00436,1.206278092,0.00436,71.25890736,
0.00438,0.8408477983,0.00438,70.89347707,
0.0044,1.571708387,0.0044,70.89347707,
0.00442,0.8408477983,0.00442,71.62433766,
0.00444,0.1099872099,0.00444,71.25890736,
0.00446,0.4754175041,0.00446,70.89347707,
0.00448,0.1099872099,0.00448,71.25890736,
0.0045,-0.9863036726,0.0045,70.52804678,
0.00452,0.1099872099,0.00452,70.89347707,
0.00454,1.206278092,0.00454,70.89347707,
0.00456,-0.2554430842,0.00456,70.89347707,
0.00458,-0.2554430842,0.00458,70.52804678,
0.0046,0.1099872099,0.0046,70.52804678,
0.00462,0.1099872099,0.00462,71.25890736,
0.00464,1.571708387,0.00464,70.52804678,
0.00466,-1.717164261,0.00466,70.89347707,
0.00468,-2.448024849,0.00468,71.62433766,
0.0047,-1.351733967,0.0047,70.89347707,
0.00472,-2.082594555,0.00472,70.52804678,
0.00474,-1.717164261,0.00474,70.52804678,
0.00476,1.206278092,0.00476,70.52804678,
0.00478,-1.351733967,0.00478,71.25890736,
0.0048,0.1099872099,0.0048,70.52804678,
0.00482,0.8408477983,0.00482,71.25890736,
0.00484,-0.6208733784,0.00484,71.25890736,
0.00486,-0.9863036726,0.00486,70.89347707,
0.00488,0.8408477983,0.00488,70.89347707,
0.0049,-1.351733967,0.0049,71.25890736,
0.00492,-0.2554430842,0.00492,70.89347707,
0.00494,-1.351733967,0.00494,70.52804678,
0.00496,-0.9863036726,0.00496,71.25890736,
0.00498,-1.351733967,0.00498,70.89347707,
0.005,-0.2554430842,0.005,70.89347707,
0.00502,-0.2554430842,0.00502,70.89347707,
0.00504,0.4754175041,0.00504,70.89347707,
0.00506,1.571708387,0.00506,70.89347707,
0.00508,1.206278092,0.00508,71.25890736,
0.0051,1.571708387,0.0051,70.89347707,
0.00512,0.8408477983,0.00512,70.52804678,
0.00514,1.206278092,0.00514,71.25890736,
0.00516,1.206278092,0.00516,70.89347707,
0.00518,0.8408477983,0.00518,70.52804678,
0.0052,1.206278092,0.0052,70.89347707,
0.00522,-0.2554430842,0.00522,70.52804678,
0.00524,0.1099872099,0.00524,71.25890736,
0.00526,0.1099872099,0.00526,70.89347707,
0.00528,0.1099872099,0.00528,70.89347707,
0.0053,2.667999269,0.0053,70.89347707,
0.00532,2.302568975,0.00532,70.89347707,
0.00534,1.937138681,0.00534,70.89347707,
0.00536,1.937138681,0.00536,70.89347707,
0.00538,1.937138681,0.00538,71.25890736,
0.0054,0.4754175041,0.0054,70.52804678,
0.00542,0.8408477983,0.00542,70.52804678,
0.00544,0.4754175041,0.00544,71.25890736,
0.00546,-1.717164261,0.00546,70.89347707,
0.00548,0.4754175041,0.00548,70.89347707,
0.0055,0.1099872099,0.0055,71.25890736,
0.00552,0.1099872099,0.00552,70.89347707,
0.00554,1.571708387,0.00554,70.89347707,
0.00556,0.4754175041,0.00556,71.25890736,
0.00558,-0.2554430842,0.00558,70.89347707,
0.0056,-0.2554430842,0.0056,70.52804678,
0.00562,-1.351733967,0.00562,71.25890736,
0.00564,-1.351733967,0.00564,71.25890736,
0.00566,0.4754175041,0.00566,71.25890736,
0.00568,-1.717164261,0.00568,71.62433766,
0.0057,-3.178885438,0.0057,71.25890736,
0.00572,-0.9863036726,0.00572,70.52804678,
0.00574,-0.9863036726,0.00574,70.16261648,
0.00576,-2.448024849,0.00576,70.52804678,
0.00578,-0.6208733784,0.00578,70.52804678,
0.0058,0.1099872099,0.0058,71.25890736,
0.00582,0.1099872099,0.00582,70.89347707,
0.00584,0.8408477983,0.00584,70.89347707,
0.00586,-1.717164261,0.00586,71.25890736,
0.00588,-0.6208733784,0.00588,70.89347707,
0.0059,-0.6208733784,0.0059,70.52804678,
0.00592,-1.351733967,0.00592,71.25890736,
0.00594,-1.717164261,0.00594,70.89347707,
0.00596,-0.2554430842,0.00596,70.89347707,
0.00598,-1.351733967,0.00598,71.25890736,
0.006,0.1099872099,0.006,70.89347707,
0.00602,0.8408477983,0.00602,70.52804678,
0.00604,1.937138681,0.00604,70.89347707,
0.00606,0.1099872099,0.00606,70.52804678,
0.00608,0.8408477983,0.00608,70.52804678,
0.0061,0.8408477983,0.0061,71.25890736,
0.00612,0.4754175041,0.00612,70.89347707,
0.00614,1.206278092,0.00614,70.52804678,
0.00616,0.1099872099,0.00616,71.62433766,
0.00618,0.8408477983,0.00618,70.89347707,
0.0062,0.4754175041,0.0062,70.52804678,
0.00622,1.206278092,0.00622,70.52804678,
0.00624,0.4754175041,0.00624,70.89347707,
0.00626,0.8408477983,0.00626,70.89347707,
0.00628,1.937138681,0.00628,70.52804678,
0.0063,1.937138681,0.0063,70.89347707,
0.00632,2.302568975,0.00632,70.52804678,
0.00634,1.206278092,0.00634,70.16261648,
0.00636,1.937138681,0.00636,70.89347707,
0.00638,0.4754175041,0.00638,71.25890736,
0.0064,0.1099872099,0.0064,70.89347707,
0.00642,0.1099872099,0.00642,70.89347707,
0.00644,-0.6208733784,0.00644,70.89347707,
0.00646,-0.9863036726,0.00646,70.89347707,
0.00648,0.1099872099,0.00648,70.89347707,
0.0065,0.4754175041,0.0065,70.89347707,
0.00652,1.937138681,0.00652,71.25890736,
0.00654,2.302568975,0.00654,70.89347707,
0.00656,-0.2554430842,0.00656,70.16261648,
0.00658,0.8408477983,0.00658,71.25890736,
0.0066,-0.2554430842,0.0066,70.89347707,
0.00662,-0.6208733784,0.00662,70.16261648,
0.00664,-0.2554430842,0.00664,71.25890736,
0.00666,-2.448024849,0.00666,70.89347707,
0.00668,0.1099872099,0.00668,71.62433766,
0.0067,-2.813455143,0.0067,71.25890736,
0.00672,-2.813455143,0.00672,69.43175589,
0.00674,-0.2554430842,0.00674,71.25890736,
0.00676,0.4754175041,0.00676,71.25890736,
0.00678,-0.9863036726,0.00678,70.52804678,
0.0068,0.4754175041,0.0068,70.89347707,
0.00682,-1.717164261,0.00682,70.89347707,
0.00684,-0.6208733784,0.00684,70.52804678,
0.00686,-0.9863036726,0.00686,71.25890736,
0.00688,-1.717164261,0.00688,70.89347707,
0.0069,-1.351733967,0.0069,70.89347707,
0.00692,-0.9863036726,0.00692,70.89347707,
0.00694,-0.9863036726,0.00694,70.89347707,
0.00696,-0.2554430842,0.00696,70.52804678,
0.00698,1.937138681,0.00698,71.25890736,
0.007,0.1099872099,0.007,70.16261648,
0.00702,0.8408477983,0.00702,70.89347707,
0.00704,1.571708387,0.00704,71.25890736,
0.00706,0.1099872099,0.00706,70.89347707,
0.00708,1.571708387,0.00708,70.52804678,
0.0071,1.206278092,0.0071,71.25890736,
0.00712,0.8408477983,0.00712,70.52804678,
0.00714,0.4754175041,0.00714,70.52804678,
0.00716,1.937138681,0.00716,70.89347707,
0.00718,0.4754175041,0.00718,70.52804678,
0.0072,1.206278092,0.0072,71.25890736,
0.00722,0.1099872099,0.00722,70.89347707,
0.00724,1.206278092,0.00724,70.52804678,
0.00726,2.667999269,0.00726,70.89347707,
0.00728,1.571708387,0.00728,70.89347707,
0.0073,3.033429563,0.0073,70.89347707,
0.00732,0.8408477983,0.00732,70.89347707,
0.00734,-0.2554430842,0.00734,70.89347707,
0.00736,0.8408477983,0.00736,70.89347707,
0.00738,0.8408477983,0.00738,71.25890736,
0.0074,-0.2554430842,0.0074,71.25890736,
0.00742,-0.9863036726,0.00742,70.89347707,
0.00744,-0.9863036726,0.00744,71.25890736,
0.00746,-2.082594555,0.00746,70.52804678,
0.00748,1.206278092,0.00748,70.89347707,
0.0075,0.4754175041,0.0075,71.25890736,
0.00752,0.4754175041,0.00752,70.89347707,
0.00754,0.1099872099,0.00754,70.52804678,
0.00756,1.571708387,0.00756,70.52804678,
0.00758,0.1099872099,0.00758,71.25890736,
0.0076,-0.2554430842,0.0076,70.52804678,
0.00762,-0.2554430842,0.00762,71.62433766,
0.00764,-2.813455143,0.00764,70.89347707,
0.00766,-0.6208733784,0.00766,70.89347707,
0.00768,-2.813455143,0.00768,71.25890736,
0.0077,-1.717164261,0.0077,70.52804678,
0.00772,0.4754175041,0.00772,70.89347707,
0.00774,0.1099872099,0.00774,70.89347707,
0.00776,-0.2554430842,0.00776,71.62433766,
0.00778,0.4754175041,0.00778,70.52804678,
0.0078,0.1099872099,0.0078,71.62433766,
0.00782,-1.351733967,0.00782,70.89347707,
0.00784,-1.351733967,0.00784,70.52804678,
0.00786,-0.6208733784,0.00786,71.25890736,
0.00788,-2.082594555,0.00788,70.89347707,
0.0079,-1.351733967,0.0079,71.25890736,
0.00792,-0.6208733784,0.00792,71.62433766,
0.00794,-0.6208733784,0.00794,70.89347707,
0.00796,0.8408477983,0.00796,70.52804678,
0.00798,1.206278092,0.00798,71.25890736,
0.008,0.1099872099,0.008,70.89347707,
0.00802,1.937138681,0.00802,70.52804678,
0.00804,1.206278092,0.00804,71.62433766,
0.00806,0.8408477983,0.00806,71.25890736,
0.00808,1.571708387,0.00808,70.89347707,
0.0081,0.8408477983,0.0081,70.89347707,
0.00812,0.8408477983,0.00812,70.89347707,
0.00814,-0.2554430842,0.00814,70.89347707,
0.00816,1.571708387,0.00816,71.25890736,
0.00818,0.4754175041,0.00818,70.52804678,
0.0082,0.8408477983,0.0082,70.89347707,
0.00822,1.206278092,0.00822,70.89347707,
0.00824,1.937138681,0.00824,70.89347707,
0.00826,1.937138681,0.00826,70.52804678,
0.00828,2.302568975,0.00828,71.25890736,
0.0083,1.206278092,0.0083,70.89347707,
0.00832,1.937138681,0.00832,70.52804678,
0.00834,1.206278092,0.00834,71.25890736,
0.00836,-0.2554430842,0.00836,70.52804678,
0.00838,0.4754175041,0.00838,70.89347707,
0.0084,0.4754175041,0.0084,70.89347707,
0.00842,-0.9863036726,0.00842,71.25890736,
0.00844,0.4754175041,0.00844,70.52804678,
0.00846,-0.2554430842,0.00846,71.25890736,
0.00848,0.4754175041,0.00848,70.89347707,
0.0085,1.571708387,0.0085,70.89347707,
0.00852,1.571708387,0.00852,71.25890736,
0.00854,-2.082594555,0.00854,71.25890736,
0.00856,1.571708387,0.00856,70.52804678,
0.00858,-0.9863036726,0.00858,70.89347707,
0.0086,-3.178885438,0.0086,70.16261648,
0.00862,-1.351733967,0.00862,70.52804678,
0.00864,-2.448024849,0.00864,70.52804678,
0.00866,-2.448024849,0.00866,70.89347707,
0.00868,-0.6208733784,0.00868,70.52804678,
0.0087,-0.9863036726,0.0087,70.89347707,
0.00872,-0.9863036726,0.00872,71.25890736,
0.00874,0.1099872099,0.00874,70.52804678,
0.00876,0.1099872099,0.00876,70.89347707,
0.00878,-0.2554430842,0.00878,70.89347707,
0.0088,-0.2554430842,0.0088,70.89347707,
0.00882,-0.9863036726,0.00882,70.89347707,
0.00884,-0.2554430842,0.00884,70.52804678,
0.00886,-0.2554430842,0.00886,70.89347707,
0.00888,-0.6208733784,0.00888,70.89347707,
0.0089,-1.351733967,0.0089,70.89347707,
0.00892,0.8408477983,0.00892,70.89347707,
0.00894,0.8408477983,0.00894,71.25890736,
0.00896,0.4754175041,0.00896,70.89347707,
0.00898,0.8408477983,0.00898,70.52804678,
0.009,0.4754175041,0.009,71.25890736,
0.00902,0.4754175041,0.00902,70.52804678,
0.00904,1.937138681,0.00904,70.52804678,
0.00906,1.571708387,0.00906,70.16261648,
0.00908,1.206278092,0.00908,70.52804678,
0.0091,1.206278092,0.0091,70.52804678,
0.00912,0.4754175041,0.00912,70.16261648,
0.00914,0.1099872099,0.00914,70.52804678,
0.00916,0.4754175041,0.00916,70.89347707,
0.00918,0.4754175041,0.00918,70.16261648,
0.0092,1.937138681,0.0092,70.89347707,
0.00922,1.937138681,0.00922,70.89347707,
0.00924,1.937138681,0.00924,70.16261648,
0.00926,2.302568975,0.00926,70.89347707,
0.00928,2.302568975,0.00928,70.89347707,
0.0093,1.937138681,0.0093,70.52804678,
0.00932,0.8408477983,0.00932,70.52804678,
0.00934,0.4754175041,0.00934,71.25890736,
0.00936,0.1099872099,0.00936,70.16261648,
0.00938,0.8408477983,0.00938,70.89347707,
0.0094,0.4754175041,0.0094,70.89347707,
0.00942,-0.2554430842,0.00942,70.52804678,
0.00944,0.1099872099,0.00944,70.89347707,
0.00946,0.8408477983,0.00946,70.89347707,
0.00948,0.1099872099,0.00948,70.52804678,
0.0095,1.571708387,0.0095,70.52804678,
0.00952,0.1099872099,0.00952,70.52804678,
0.00954,-0.6208733784,0.00954,70.52804678,
0.00956,-1.351733967,0.00956,70.89347707,
0.00958,-2.448024849,0.00958,70.89347707,
0.0096,-1.351733967,0.0096,71.25890736,
0.00962,-1.717164261,0.00962,69.43175589,
0.00964,-1.717164261,0.00964,70.52804678,
0.00966,-2.448024849,0.00966,70.89347707,
0.00968,-0.2554430842,0.00968,71.62433766,
0.0097,0.8408477983,0.0097,70.52804678,
0.00972,0.1099872099,0.00972,70.16261648,
0.00974,0.1099872099,0.00974,70.52804678,
0.00976,0.8408477983,0.00976,70.89347707,
0.00978,-0.9863036726,0.00978,70.52804678,
0.0098,0.1099872099,0.0098,70.89347707,
0.00982,-0.6208733784,0.00982,70.89347707,
0.00984,-0.6208733784,0.00984,70.52804678,
0.00986,-0.9863036726,0.00986,70.89347707,
0.00988,-0.2554430842,0.00988,70.89347707,
0.0099,-0.2554430842,0.0099,70.16261648,
0.00992,0.8408477983,0.00992,70.89347707,
0.00994,-0.2554430842,0.00994,70.89347707,
0.00996,-0.2554430842,0.00996,70.16261648,
0.00998,1.206278092,0.00998,70.52804678,
0.01,0.8408477983,0.01,70.89347707,
0.01002,-0.2554430842,0.01002,70.16261648,
0.01004,1.206278092,0.01004,70.89347707,
0.01006,1.571708387,0.01006,70.89347707,
0.01008,0.4754175041,0.01008,69.79718619,
0.0101,0.8408477983,0.0101,70.52804678,
0.01012,0.8408477983,0.01012,70.52804678,
0.01014,0.1099872099,0.01014,70.16261648,
0.01016,1.206278092,0.01016,70.89347707,
0.01018,1.571708387,0.01018,70.89347707,
0.0102,0.4754175041,0.0102,70.16261648,
0.01022,2.302568975,0.01022,70.52804678,
0.01024,1.206278092,0.01024,70.52804678,
0.01026,1.937138681,0.01026,70.52804678,
0.01028,1.937138681,0.01028,70.52804678,
0.0103,1.206278092,0.0103,70.89347707,
0.01032,0.4754175041,0.01032,70.52804678,
0.01034,-0.6208733784,0.01034,70.89347707,
0.01036,-0.9863036726,0.01036,70.89347707,
0.01038,-0.9863036726,0.01038,70.52804678,
0.0104,0.8408477983,0.0104,70.52804678,
0.01042,1.206278092,0.01042,70.52804678,
0.01044,0.8408477983,0.01044,70.52804678,
0.01046,1.206278092,0.01046,70.89347707,
0.01048,1.206278092,0.01048,70.52804678,
0.0105,-0.2554430842,0.0105,70.52804678,
0.01052,0.4754175041,0.01052,69.43175589,
0.01054,0.8408477983,0.01054,70.16261648,
0.01056,-1.351733967,0.01056,70.52804678,
0.01058,-1.717164261,0.01058,70.52804678,
0.0106,-2.082594555,0.0106,70.16261648,
0.01062,-3.178885438,0.01062,70.52804678,
0.01064,-0.2554430842,0.01064,70.89347707,
0.01066,-0.2554430842,0.01066,70.89347707,
0.01068,-2.082594555,0.01068,70.52804678,
0.0107,0.1099872099,0.0107,70.89347707,
0.01072,0.8408477983,0.01072,70.52804678,
0.01074,-0.6208733784,0.01074,69.79718619,
0.01076,0.1099872099,0.01076,70.52804678,
0.01078,-0.2554430842,0.01078,70.52804678,
0.0108,-1.351733967,0.0108,70.16261648,
0.01082,-0.9863036726,0.01082,70.52804678,
0.01084,-2.448024849,0.01084,70.52804678,
0.01086,-0.9863036726,0.01086,70.52804678,
0.01088,0.8408477983,0.01088,70.89347707,
0.0109,1.571708387,0.0109,70.89347707,
0.01092,-0.2554430842,0.01092,70.16261648,
0.01094,1.206278092,0.01094,70.89347707,
0.01096,-0.2554430842,0.01096,70.89347707,
0.01098,1.571708387,0.01098,70.89347707,
0.011,1.937138681,0.011,70.89347707,
0.01102,0.8408477983,0.01102,70.89347707,
0.01104,0.8408477983,0.01104,71.25890736,
0.01106,-0.2554430842,0.01106,70.89347707,
0.01108,0.4754175041,0.01108,70.52804678,
0.0111,0.8408477983,0.0111,71.62433766,
0.01112,-0.2554430842,0.01112,70.89347707,
0.01114,0.8408477983,0.01114,70.89347707,
0.01116,1.206278092,0.01116,71.62433766,
0.01118,0.4754175041,0.01118,70.89347707,
0.0112,1.571708387,0.0112,70.52804678,
0.01122,1.206278092,0.01122,71.25890736,
0.01124,0.4754175041,0.01124,70.52804678,
0.01126,0.8408477983,0.01126,70.52804678,
0.01128,0.8408477983,0.01128,71.25890736,
0.0113,0.1099872099,0.0113,70.52804678,
0.01132,-0.2554430842,0.01132,70.52804678,
0.01134,-0.9863036726,0.01134,71.25890736,
0.01136,0.1099872099,0.01136,70.89347707,
0.01138,0.1099872099,0.01138,70.52804678,
0.0114,-0.6208733784,0.0114,70.89347707,
0.01142,0.1099872099,0.01142,70.89347707,
0.01144,-0.2554430842,0.01144,70.89347707,
0.01146,1.571708387,0.01146,71.62433766,
0.01148,-0.6208733784,0.01148,70.89347707,
0.0115,-0.6208733784,0.0115,70.89347707,
0.01152,1.571708387,0.01152,69.79718619,
0.01154,-0.2554430842,0.01154,70.16261648,
0.01156,-0.6208733784,0.01156,70.16261648,
0.01158,-0.2554430842,0.01158,70.89347707,
0.0116,-3.178885438,0.0116,69.79718619,
0.01162,-0.9863036726,0.01162,70.89347707,
0.01164,-0.2554430842,0.01164,70.89347707,
0.01166,0.1099872099,0.01166,71.62433766,
0.01168,0.1099872099,0.01168,71.25890736,
0.0117,-1.717164261,0.0117,70.89347707,
0.01172,-1.351733967,0.01172,70.89347707,
0.01174,-0.2554430842,0.01174,70.16261648,
0.01176,0.1099872099,0.01176,70.89347707,
0.01178,-1.351733967,0.01178,70.52804678,
0.0118,-0.9863036726,0.0118,70.89347707,
0.01182,-0.2554430842,0.01182,70.89347707,
0.01184,-0.9863036726,0.01184,70.89347707,
0.01186,0.1099872099,0.01186,71.25890736,
0.01188,0.1099872099,0.01188,71.25890736,
0.0119,0.1099872099,0.0119,71.25890736,
0.01192,1.206278092,0.01192,70.89347707,
0.01194,1.571708387,0.01194,70.52804678,
0.01196,2.302568975,0.01196,70.89347707,
0.01198,0.8408477983,0.01198,70.52804678,
0.012,0.1099872099,0.012,70.52804678,
0.01202,0.4754175041,0.01202,70.89347707,
0.01204,1.206278092,0.01204,70.52804678,
0.01206,0.4754175041,0.01206,70.16261648,
0.01208,0.1099872099,0.01208,70.89347707,
0.0121,0.1099872099,0.0121,70.52804678,
0.01212,0.8408477983,0.01212,70.16261648,
0.01214,1.571708387,0.01214,70.89347707,
0.01216,1.571708387,0.01216,71.25890736,
0.01218,1.206278092,0.01218,70.16261648,
0.0122,1.937138681,0.0122,70.52804678,
0.01222,1.206278092,0.01222,70.89347707,
0.01224,1.206278092,0.01224,70.52804678,
0.01226,1.206278092,0.01226,70.52804678,
0.01228,-0.2554430842,0.01228,70.52804678,
0.0123,0.4754175041,0.0123,70.52804678,
0.01232,-0.9863036726,0.01232,71.25890736,
0.01234,-0.2554430842,0.01234,70.52804678,
0.01236,-0.6208733784,0.01236,70.16261648,
0.01238,0.8408477983,0.01238,70.89347707,
0.0124,1.937138681,0.0124,70.89347707,
0.01242,1.937138681,0.01242,70.16261648,
0.01244,0.4754175041,0.01244,71.25890736,
0.01246,0.1099872099,0.01246,71.25890736,
0.01248,0.1099872099,0.01248,69.43175589,
0.0125,0.8408477983,0.0125,70.52804678,
0.01252,-0.2554430842,0.01252,70.16261648,
0.01254,-0.9863036726,0.01254,71.25890736,
0.01256,-2.448024849,0.01256,71.25890736,
0.01258,-2.082594555,0.01258,70.89347707,
0.0126,-0.9863036726,0.0126,69.79718619,
0.01262,0.4754175041,0.01262,71.25890736,
0.01264,0.1099872099,0.01264,70.89347707,
0.01266,-0.2554430842,0.01266,70.16261648,
0.01268,-0.6208733784,0.01268,71.25890736,
0.0127,-1.351733967,0.0127,70.89347707,
0.01272,-0.9863036726,0.01272,70.52804678,
0.01274,-1.351733967,0.01274,70.52804678,
0.01276,-0.9863036726,0.01276,70.89347707,
0.01278,-1.351733967,0.01278,70.16261648,
0.0128,-0.2554430842,0.0128,70.89347707,
0.01282,-0.6208733784,0.01282,70.89347707,
0.01284,-0.6208733784,0.01284,70.52804678,
0.01286,0.8408477983,0.01286,70.89347707,
0.01288,2.302568975,0.01288,70.89347707,
0.0129,0.8408477983,0.0129,70.52804678,
0.01292,1.937138681,0.01292,70.89347707,
0.01294,0.4754175041,0.01294,70.89347707,
0.01296,0.8408477983,0.01296,70.16261648,
0.01298,0.4754175041,0.01298,70.52804678,
0.013,0.4754175041,0.013,70.52804678,
0.01302,1.206278092,0.01302,70.16261648,
0.01304,1.206278092,0.01304,70.89347707,
0.01306,0.8408477983,0.01306,70.52804678,
0.01308,0.8408477983,0.01308,70.52804678,
0.0131,0.4754175041,0.0131,70.89347707,
0.01312,0.8408477983,0.01312,71.25890736,
0.01314,1.206278092,0.01314,70.16261648,
0.01316,2.667999269,0.01316,70.16261648,
0.01318,1.571708387,0.01318,70.52804678,
0.0132,0.1099872099,0.0132,70.16261648,
0.01322,0.8408477983,0.01322,70.89347707,
0.01324,1.206278092,0.01324,70.52804678,
0.01326,0.1099872099,0.01326,70.52804678,
0.01328,0.1099872099,0.01328,70.89347707,
0.0133,-0.2554430842,0.0133,70.52804678,
0.01332,-0.9863036726,0.01332,70.16261648,
0.01334,-0.2554430842,0.01334,70.89347707,
0.01336,0.4754175041,0.01336,70.89347707,
0.01338,0.4754175041,0.01338,70.16261648,
0.0134,0.8408477983,0.0134,70.52804678,
0.01342,0.8408477983,0.01342,70.89347707,
0.01344,-0.6208733784,0.01344,70.16261648,
0.01346,0.1099872099,0.01346,70.52804678,
0.01348,1.206278092,0.01348,71.25890736,
0.0135,-0.6208733784,0.0135,70.89347707,
0.01352,-2.448024849,0.01352,71.25890736,
0.01354,-1.717164261,0.01354,69.79718619,
0.01356,-2.082594555,0.01356,69.79718619,
0.01358,-1.717164261,0.01358,70.89347707,
0.0136,-0.9863036726,0.0136,70.89347707,
0.01362,-0.2554430842,0.01362,69.79718619,
0.01364,0.4754175041,0.01364,70.89347707,
0.01366,1.206278092,0.01366,70.89347707,
0.01368,0.1099872099,0.01368,70.52804678,
0.0137,0.1099872099,0.0137,70.52804678,
0.01372,-0.9863036726,0.01372,70.89347707,
0.01374,-0.9863036726,0.01374,70.16261648,
0.01376,-0.6208733784,0.01376,70.52804678,
0.01378,-0.9863036726,0.01378,70.52804678,
0.0138,-0.6208733784,0.0138,70.52804678,
0.01382,0.4754175041,0.01382,70.89347707,
0.01384,0.4754175041,0.01384,70.52804678,
0.01386,-0.6208733784,0.01386,70.52804678,
0.01388,1.206278092,0.01388,71.25890736,
0.0139,0.8408477983,0.0139,70.52804678,
0.01392,1.571708387,0.01392,70.89347707,
0.01394,1.206278092,0.01394,70.89347707,
0.01396,0.4754175041,0.01396,70.89347707,
0.01398,0.4754175041,0.01398,70.52804678,
0.014,0.8408477983,0.014,71.25890736,
0.01402,1.206278092,0.01402,70.89347707,
0.01404,-0.2554430842,0.01404,70.52804678,
0.01406,0.4754175041,0.01406,71.25890736,
0.01408,1.571708387,0.01408,70.89347707,
0.0141,0.8408477983,0.0141,70.52804678,
0.01412,1.571708387,0.01412,70.89347707,
0.01414,1.571708387,0.01414,70.89347707,
0.01416,1.206278092,0.01416,70.52804678,
0.01418,1.571708387,0.01418,70.89347707,
0.0142,1.206278092,0.0142,70.89347707,
0.01422,1.206278092,0.01422,70.16261648,
0.01424,0.1099872099,0.01424,71.25890736,
0.01426,-0.6208733784,0.01426,70.89347707,
0.01428,-0.2554430842,0.01428,70.52804678,
0.0143,0.4754175041,0.0143,71.25890736,
0.01432,-0.6208733784,0.01432,70.52804678,
0.01434,0.8408477983,0.01434,70.16261648,
0.01436,1.937138681,0.01436,71.25890736,
0.01438,1.206278092,0.01438,71.25890736,
0.0144,-0.9863036726,0.0144,70.16261648,
0.01442,-1.351733967,0.01442,70.89347707,
0.01444,-1.717164261,0.01444,70.52804678,
0.01446,-2.448024849,0.01446,70.52804678,
0.01448,0.4754175041,0.01448,71.25890736,
0.0145,-3.178885438,0.0145,71.62433766,
0.01452,-2.448024849,0.01452,70.52804678,
0.01454,-0.2554430842,0.01454,71.25890736,
0.01456,-2.813455143,0.01456,70.89347707,
0.01458,-0.2554430842,0.01458,70.89347707,
0.0146,0.1099872099,0.0146,71.25890736,
0.01462,-0.6208733784,0.01462,70.89347707,
0.01464,0.4754175041,0.01464,70.52804678,
0.01466,-0.9863036726,0.01466,71.25890736,
0.01468,-1.717164261,0.01468,70.52804678,
0.0147,-1.351733967,0.0147,70.52804678,
0.01472,-0.2554430842,0.01472,71.25890736,
0.01474,-0.6208733784,0.01474,70.52804678,
0.01476,-0.2554430842,0.01476,70.16261648,
0.01478,-0.6208733784,0.01478,71.25890736,
0.0148,0.1099872099,0.0148,70.89347707,
0.01482,0.8408477983,0.01482,70.52804678,
0.01484,1.571708387,0.01484,71.25890736,
0.01486,1.571708387,0.01486,70.89347707,
0.01488,1.571708387,0.01488,70.52804678,
0.0149,0.8408477983,0.0149,71.25890736,
0.01492,0.4754175041,0.01492,70.52804678,
0.01494,1.206278092,0.01494,70.16261648,
0.01496,0.1099872099,0.01496,70.89347707,
0.01498,0.1099872099,0.01498,70.52804678,
0.015,0.8408477983,0.015,70.52804678,
0.01502,-0.2554430842,0.01502,70.89347707,
0.01504,0.1099872099,0.01504,70.89347707,
0.01506,1.206278092,0.01506,70.52804678,
0.01508,2.302568975,0.01508,70.89347707,
0.0151,0.8408477983,0.0151,70.52804678,
0.01512,1.571708387,0.01512,70.52804678,
0.01514,0.8408477983,0.01514,71.25890736,
0.01516,2.302568975,0.01516,70.89347707,
0.01518,1.571708387,0.01518,70.52804678,
0.0152,1.206278092,0.0152,71.25890736,
0.01522,0.4754175041,0.01522,70.52804678,
0.01524,0.4754175041,0.01524,70.52804678,
0.01526,-0.6208733784,0.01526,71.25890736,
0.01528,-0.6208733784,0.01528,70.89347707,
0.0153,-0.6208733784,0.0153,70.52804678,
0.01532,-0.2554430842,0.01532,71.25890736,
0.01534,-0.2554430842,0.01534,70.89347707,
0.01536,-0.2554430842,0.01536,70.89347707,
0.01538,-1.351733967,0.01538,71.62433766,
0.0154,0.1099872099,0.0154,70.52804678,
0.01542,1.206278092,0.01542,70.52804678,
0.01544,-2.813455143,0.01544,70.89347707,
0.01546,-0.6208733784,0.01546,70.16261648,
0.01548,-0.9863036726,0.01548,70.52804678,
0.0155,-1.351733967,0.0155,71.62433766,
0.01552,-1.717164261,0.01552,70.89347707,
0.01554,-2.813455143,0.01554,70.16261648,
0.01556,0.1099872099,0.01556,71.25890736,
0.01558,-0.6208733784,0.01558,70.89347707,
0.0156,-0.2554430842,0.0156,70.16261648,
0.01562,-0.9863036726,0.01562,70.52804678,
0.01564,-1.717164261,0.01564,70.52804678,
0.01566,-1.717164261,0.01566,70.52804678,
0.01568,-0.6208733784,0.01568,71.25890736,
0.0157,-0.9863036726,0.0157,70.89347707,
0.01572,-0.6208733784,0.01572,71.25890736,
0.01574,-1.351733967,0.01574,70.52804678,
0.01576,-0.2554430842,0.01576,70.89347707,
0.01578,0.4754175041,0.01578,70.89347707,
0.0158,0.8408477983,0.0158,70.89347707,
0.01582,1.937138681,0.01582,71.25890736,
0.01584,0.4754175041,0.01584,71.25890736,
0.01586,0.8408477983,0.01586,70.89347707,
0.01588,0.1099872099,0.01588,70.52804678,
0.0159,1.571708387,0.0159,70.89347707,
0.01592,0.4754175041,0.01592,71.25890736,
0.01594,1.571708387,0.01594,70.52804678,
0.01596,0.1099872099,0.01596,71.25890736,
0.01598,0.1099872099,0.01598,70.89347707,
0.016,0.4754175041,0.016,70.52804678,
0.01602,1.206278092,0.01602,71.25890736,
0.01604,0.1099872099,0.01604,70.89347707,
0.01606,1.937138681,0.01606,70.52804678,
0.01608,1.571708387,0.01608,71.25890736,
0.0161,1.937138681,0.0161,70.89347707,
0.01612,3.033429563,0.01612,70.52804678,
0.01614,0.4754175041,0.01614,70.89347707,
0.01616,0.1099872099,0.01616,70.52804678,
0.01618,0.1099872099,0.01618,70.89347707,
0.0162,1.206278092,0.0162,70.89347707,
0.01622,-1.351733967,0.01622,71.25890736,
0.01624,0.1099872099,0.01624,70.52804678,
0.01626,0.1099872099,0.01626,70.89347707,
0.01628,-0.6208733784,0.01628,70.89347707,
0.0163,0.8408477983,0.0163,70.52804678,
0.01632,0.4754175041,0.01632,71.25890736,
0.01634,0.1099872099,0.01634,70.89347707,
0.01636,-0.9863036726,0.01636,70.52804678,
0.01638,0.1099872099,0.01638,71.98976795,
0.0164,-0.2554430842,0.0164,70.89347707,
0.01642,-1.351733967,0.01642,71.98976795,
0.01644,-2.082594555,0.01644,71.98976795,
0.01646,-4.640606614,0.01646,70.89347707,
0.01648,-0.9863036726,0.01648,71.25890736,
0.0165,-1.351733967,0.0165,70.52804678,
0.01652,-2.448024849,0.01652,70.16261648,
0.01654,-0.6208733784,0.01654,70.16261648,
0.01656,-0.2554430842,0.01656,71.62433766,
0.01658,0.1099872099,0.01658,70.52804678,
0.0166,1.206278092,0.0166,70.52804678,
0.01662,-0.9863036726,0.01662,70.89347707,
0.01664,-0.6208733784,0.01664,70.89347707,
0.01666,-0.2554430842,0.01666,70.89347707,
0.01668,-0.6208733784,0.01668,70.89347707,
0.0167,-0.6208733784,0.0167,71.25890736,
0.01672,0.1099872099,0.01672,70.89347707,
0.01674,-0.6208733784,0.01674,70.89347707,
0.01676,0.8408477983,0.01676,70.89347707,
0.01678,2.302568975,0.01678,70.89347707,
0.0168,0.8408477983,0.0168,70.52804678,
0.01682,0.8408477983,0.01682,70.52804678,
0.01684,1.571708387,0.01684,71.25890736,
0.01686,0.4754175041,0.01686,70.89347707,
0.01688,0.4754175041,0.01688,70.89347707,
0.0169,1.571708387,0.0169,70.89347707,
0.01692,0.8408477983,0.01692,70.89347707,
0.01694,1.937138681,0.01694,71.62433766,
0.01696,0.8408477983,0.01696,70.89347707,
0.01698,0.1099872099,0.01698,71.25890736,
0.017,0.4754175041,0.017,70.89347707,
0.01702,0.1099872099,0.01702,70.89347707,
0.01704,1.571708387,0.01704,70.89347707,
0.01706,1.206278092,0.01706,71.25890736,
0.01708,2.667999269,0.01708,70.89347707,
0.0171,1.206278092,0.0171,70.52804678,
0.01712,1.571708387,0.01712,71.25890736,
0.01714,0.4754175041,0.01714,70.52804678,
0.01716,1.206278092,0.01716,70.52804678,
0.01718,0.1099872099,0.01718,70.89347707,
0.0172,0.1099872099,0.0172,70.89347707,
0.01722,0.8408477983,0.01722,70.52804678,
0.01724,0.1099872099,0.01724,71.25890736,
0.01726,0.1099872099,0.01726,70.52804678,
0.01728,0.1099872099,0.01728,70.52804678,
0.0173,0.8408477983,0.0173,71.25890736,
0.01732,-0.6208733784,0.01732,71.25890736,
0.01734,-0.6208733784,0.01734,69.43175589,
0.01736,-0.6208733784,0.01736,71.25890736,
0.01738,-0.2554430842,0.01738,71.98976795,
0.0174,-0.6208733784,0.0174,71.25890736,
0.01742,-3.178885438,0.01742,70.89347707,
0.01744,0.1099872099,0.01744,69.43175589,
0.01746,-0.9863036726,0.01746,69.43175589,
0.01748,-2.082594555,0.01748,71.62433766,
0.0175,-2.448024849,0.0175,70.52804678,
0.01752,-1.351733967,0.01752,70.52804678,
0.01754,-0.6208733784,0.01754,70.89347707,
0.01756,-0.6208733784,0.01756,70.89347707,
0.01758,-0.9863036726,0.01758,70.52804678,
0.0176,-0.9863036726,0.0176,70.89347707,
0.01762,-1.717164261,0.01762,70.52804678,
0.01764,-0.9863036726,0.01764,70.16261648,
0.01766,-1.351733967,0.01766,70.89347707,
0.01768,-1.717164261,0.01768,70.52804678,
0.0177,-0.2554430842,0.0177,70.52804678,
0.01772,0.4754175041,0.01772,71.25890736,
0.01774,0.1099872099,0.01774,70.89347707,
0.01776,0.4754175041,0.01776,70.52804678,
0.01778,0.1099872099,0.01778,71.25890736,
0.0178,0.8408477983,0.0178,70.89347707,
0.01782,1.937138681,0.01782,70.52804678,
0.01784,1.206278092,0.01784,70.89347707,
0.01786,0.4754175041,0.01786,70.52804678,
0.01788,1.571708387,0.01788,70.16261648,
0.0179,0.8408477983,0.0179,71.25890736,
0.01792,1.206278092,0.01792,70.89347707,
0.01794,0.1099872099,0.01794,70.52804678,
0.01796,-0.2554430842,0.01796,71.25890736,
0.01798,0.4754175041,0.01798,70.16261648,
0.018,1.206278092,0.018,70.52804678,
0.01802,2.302568975,0.01802,71.25890736,
0.01804,-0.2554430842,0.01804,71.25890736,
0.01806,1.937138681,0.01806,70.52804678,
0.01808,0.8408477983,0.01808,71.25890736,
0.0181,0.4754175041,0.0181,70.89347707,
0.01812,0.4754175041,0.01812,70.89347707,
0.01814,0.8408477983,0.01814,71.62433766,
0.01816,-0.9863036726,0.01816,70.52804678,
0.01818,-0.2554430842,0.01818,70.52804678,
0.0182,-0.2554430842,0.0182,70.89347707,
0.01822,-1.717164261,0.01822,70.16261648,
0.01824,-0.2554430842,0.01824,70.52804678,
0.01826,0.8408477983,0.01826,70.89347707,
0.01828,1.206278092,0.01828,70.52804678,
0.0183,1.206278092,0.0183,70.16261648,
0.01832,0.4754175041,0.01832,70.89347707,
0.01834,-1.717164261,0.01834,70.89347707,
0.01836,-1.351733967,0.01836,70.16261648,
0.01838,0.1099872099,0.01838,71.62433766,
0.0184,-3.178885438,0.0184,70.89347707,
0.01842,-2.813455143,0.01842,70.16261648,
0.01844,-0.2554430842,0.01844,71.62433766,
0.01846,-1.717164261,0.01846,69.79718619,
0.01848,-1.717164261,0.01848,70.16261648,
0.0185,-0.6208733784,0.0185,70.89347707,
0.01852,-0.2554430842,0.01852,70.89347707,
0.01854,-0.6208733784,0.01854,70.89347707,
0.01856,0.8408477983,0.01856,71.25890736,
0.01858,-0.9863036726,0.01858,70.89347707,
0.0186,0.1099872099,0.0186,70.89347707,
0.01862,-0.2554430842,0.01862,70.89347707,
0.01864,-1.351733967,0.01864,70.89347707,
0.01866,-0.9863036726,0.01866,70.52804678,
0.01868,-0.9863036726,0.01868,71.25890736,
0.0187,0.4754175041,0.0187,70.52804678,
0.01872,1.206278092,0.01872,70.52804678,
0.01874,0.8408477983,0.01874,70.89347707,
0.01876,0.4754175041,0.01876,70.89347707,
0.01878,0.4754175041,0.01878,70.52804678,
0.0188,1.571708387,0.0188,71.25890736,
0.01882,0.1099872099,0.01882,70.89347707,
0.01884,2.302568975,0.01884,70.89347707,
0.01886,0.8408477983,0.01886,71.25890736,
0.01888,-0.2554430842,0.01888,71.25890736,
0.0189,0.8408477983,0.0189,70.89347707,
0.01892,1.571708387,0.01892,70.52804678,
0.01894,0.1099872099,0.01894,70.89347707,
0.01896,1.571708387,0.01896,70.89347707,
0.01898,0.4754175041,0.01898,71.25890736,
0.019,0.4754175041,0.019,70.89347707,
0.01902,2.302568975,0.01902,70.52804678,
0.01904,1.571708387,0.01904,70.89347707,
0.01906,1.937138681,0.01906,70.52804678,
0.01908,1.937138681,0.01908,70.89347707,
0.0191,0.4754175041,0.0191,70.89347707,
0.01912,0.1099872099,0.01912,70.89347707,
0.01914,0.8408477983,0.01914,70.52804678,
0.01916,-0.9863036726,0.01916,70.89347707,
0.01918,-0.9863036726,0.01918,70.52804678,
0.0192,-0.6208733784,0.0192,70.89347707,
0.01922,0.8408477983,0.01922,71.25890736,
0.01924,-0.6208733784,0.01924,70.89347707,
0.01926,0.8408477983,0.01926,71.25890736,
0.01928,0.1099872099,0.01928,70.89347707,
0.0193,0.1099872099,0.0193,70.16261648,
0.01932,0.4754175041,0.01932,71.62433766,
0.01934,0.1099872099,0.01934,71.25890736,
0.01936,-0.2554430842,0.01936,70.52804678,
0.01938,-1.351733967,0.01938,70.16261648,
0.0194,0.1099872099,0.0194,70.89347707,
0.01942,-2.082594555,0.01942,70.89347707,
0.01944,1.571708387,0.01944,70.52804678,
0.01946,-0.9863036726,0.01946,71.62433766,
0.01948,-1.351733967,0.01948,70.52804678,
0.0195,-0.2554430842,0.0195,70.89347707,
0.01952,0.1099872099,0.01952,70.89347707,
0.01954,0.1099872099,0.01954,70.52804678,
0.01956,0.1099872099,0.01956,70.52804678,
0.01958,-0.9863036726,0.01958,70.89347707,
0.0196,-1.351733967,0.0196,70.89347707,
0.01962,-0.9863036726,0.01962,70.16261648,
0.01964,-2.448024849,0.01964,71.25890736,
0.01966,-0.6208733784,0.01966,70.52804678,
0.01968,0.8408477983,0.01968,70.89347707,
0.0197,0.1099872099,0.0197,71.25890736,
0.01972,-0.6208733784,0.01972,70.89347707,
0.01974,1.937138681,0.01974,70.52804678,
0.01976,0.1099872099,0.01976,70.89347707,
0.01978,-0.9863036726,0.01978,70.89347707,
0.0198,0.8408477983,0.0198,70.89347707,
0.01982,0.8408477983,0.01982,70.89347707,
0.01984,0.4754175041,0.01984,70.89347707,
0.01986,1.206278092,0.01986,70.89347707,
0.01988,0.8408477983,0.01988,71.25890736,
0.0199,0.1099872099,0.0199,70.89347707,
0.01992,0.8408477983,0.01992,70.52804678,
0.01994,0.8408477983,0.01994,71.25890736,
0.01996,1.206278092,0.01996,70.89347707,
0.01998,1.571708387,0.01998,70.89347707,
0.02,1.937138681,0.02,71.25890736,
0.02002,1.937138681,0.02002,70.89347707,
0.02004,1.571708387,0.02004,70.89347707,
0.02006,1.206278092,0.02006,70.89347707,
0.02008,0.8408477983,0.02008,70.52804678,
0.0201,0.4754175041,0.0201,70.89347707,
0.02012,0.1099872099,0.02012,70.89347707,
0.02014,-0.9863036726,0.02014,70.52804678,
0.02016,0.4754175041,0.02016,70.89347707,
0.02018,0.8408477983,0.02018,70.89347707,
0.0202,0.1099872099,0.0202,70.52804678,
0.02022,1.937138681,0.02022,70.16261648,
0.02024,2.302568975,0.02024,71.25890736,
0.02026,0.4754175041,0.02026,70.89347707,
0.02028,-0.2554430842,0.02028,70.89347707,
0.0203,-0.9863036726,0.0203,71.25890736,
0.02032,0.1099872099,0.02032,71.25890736,
0.02034,-0.2554430842,0.02034,70.52804678,
0.02036,-3.544315732,0.02036,70.89347707,
0.02038,-3.178885438,0.02038,71.25890736,
0.0204,-0.9863036726,0.0204,70.52804678,
0.02042,1.571708387,0.02042,71.25890736,
0.02044,-2.082594555,0.02044,71.25890736,
0.02046,-0.2554430842,0.02046,70.89347707,
0.02048,-0.2554430842,0.02048,71.25890736,
0.0205,0.4754175041,0.0205,70.52804678,
0.02052,-0.6208733784,0.02052,70.89347707,
0.02054,-1.351733967,0.02054,70.16261648,
0.02056,-0.6208733784,0.02056,70.89347707,
0.02058,-0.2554430842,0.02058,70.52804678,
0.0206,-2.082594555,0.0206,70.16261648,
0.02062,0.4754175041,0.02062,71.25890736,
0.02064,0.1099872099,0.02064,70.52804678,
0.02066,0.4754175041,0.02066,70.16261648,
0.02068,0.4754175041,0.02068,70.52804678,
0.0207,0.4754175041,0.0207,70.89347707,
0.02072,0.4754175041,0.02072,70.16261648,
0.02074,0.8408477983,0.02074,70.52804678,
0.02076,1.571708387,0.02076,70.89347707,
0.02078,0.8408477983,0.02078,70.52804678,
0.0208,1.571708387,0.0208,70.52804678,
0.02082,1.206278092,0.02082,70.89347707,
0.02084,1.206278092,0.02084,70.16261648,
0.02086,1.937138681,0.02086,70.52804678,
0.02088,0.8408477983,0.02088,70.89347707,
0.0209,0.4754175041,0.0209,70.16261648,
0.02092,1.206278092,0.02092,70.89347707,
0.02094,1.206278092,0.02094,70.89347707,
0.02096,1.206278092,0.02096,70.16261648,
0.02098,1.206278092,0.02098,70.52804678,
0.021,1.206278092,0.021,70.52804678,
0.02102,1.937138681,0.02102,70.52804678,
0.02104,1.571708387,0.02104,70.52804678,
0.02106,2.302568975,0.02106,70.52804678,
0.02108,0.1099872099,0.02108,70.16261648,
0.0211,0.1099872099,0.0211,70.89347707,
0.02112,0.8408477983,0.02112,70.52804678,
0.02114,-0.6208733784,0.02114,70.16261648,
0.02116,0.8408477983,0.02116,70.89347707,
0.02118,0.4754175041,0.02118,70.89347707,
0.0212,1.206278092,0.0212,70.52804678,
0.02122,0.8408477983,0.02122,70.16261648,
0.02124,2.302568975,0.02124,70.52804678,
0.02126,-0.2554430842,0.02126,70.52804678,
0.02128,0.8408477983,0.02128,70.52804678,
0.0213,-1.351733967,0.0213,70.89347707,
0.02132,-2.082594555,0.02132,69.79718619,
0.02134,-0.9863036726,0.02134,71.25890736,
0.02136,-2.813455143,0.02136,70.89347707,
0.02138,-2.813455143,0.02138,70.16261648,
0.0214,-1.717164261,0.0214,70.89347707,
0.02142,-0.2554430842,0.02142,70.89347707,
0.02144,0.1099872099,0.02144,70.16261648,
0.02146,0.8408477983,0.02146,70.89347707,
0.02148,-0.6208733784,0.02148,71.25890736,
0.0215,0.4754175041,0.0215,70.16261648,
0.02152,0.1099872099,0.02152,70.52804678,
0.02154,0.1099872099,0.02154,70.52804678,
0.02156,-1.351733967,0.02156,70.16261648,
0.02158,-0.9863036726,0.02158,70.89347707,
0.0216,-0.6208733784,0.0216,70.89347707,
0.02162,-0.2554430842,0.02162,70.52804678,
0.02164,0.4754175041,0.02164,70.89347707,
0.02166,0.1099872099,0.02166,70.89347707,
0.02168,-0.2554430842,0.02168,70.16261648,
0.0217,1.571708387,0.0217,70.52804678,
0.02172,1.937138681,0.02172,70.52804678,
0.02174,1.206278092,0.02174,70.16261648,
0.02176,1.206278092,0.02176,70.89347707,
0.02178,1.206278092,0.02178,70.89347707,
0.0218,-0.2554430842,0.0218,70.52804678,
0.02182,0.1099872099,0.02182,70.89347707,
0.02184,1.206278092,0.02184,70.89347707,
0.02186,1.206278092,0.02186,70.52804678,
0.02188,1.206278092,0.02188,71.25890736,
0.0219,1.206278092,0.0219,70.89347707,
0.02192,2.667999269,0.02192,71.25890736,
0.02194,2.302568975,0.02194,71.25890736,
0.02196,1.937138681,0.02196,70.89347707,
0.02198,2.667999269,0.02198,71.25890736,
0.022,1.571708387,0.022,70.89347707,
0.02202,0.1099872099,0.02202,70.52804678,
0.02204,1.937138681,0.02204,71.25890736,
0.02206,-0.2554430842,0.02206,70.89347707,
0.02208,-1.351733967,0.02208,70.52804678,
0.0221,-0.2554430842,0.0221,71.62433766,
0.02212,0.1099872099,0.02212,70.52804678,
0.02214,0.1099872099,0.02214,70.16261648,
0.02216,1.206278092,0.02216,71.25890736,
0.02218,0.1099872099,0.02218,70.52804678,
0.0222,-0.6208733784,0.0222,70.52804678,
0.02222,0.4754175041,0.02222,71.62433766,
0.02224,-0.9863036726,0.02224,70.52804678,
0.02226,-1.717164261,0.02226,70.16261648,
0.02228,1.571708387,0.02228,70.89347707,
0.0223,-0.6208733784,0.0223,70.52804678,
0.02232,-2.813455143,0.02232,71.25890736,
0.02234,-2.448024849,0.02234,71.62433766,
0.02236,-1.351733967,0.02236,70.52804678,
0.02238,-0.2554430842,0.02238,70.16261648,
0.0224,-0.9863036726,0.0224,70.52804678,
0.02242,-0.9863036726,0.02242,70.16261648,
0.02244,-0.6208733784,0.02244,71.62433766,
0.02246,0.8408477983,0.02246,70.16261648,
0.02248,-0.2554430842,0.02248,70.89347707,
0.0225,-0.2554430842,0.0225,71.25890736,
0.02252,-2.082594555,0.02252,70.52804678,
0.02254,-1.351733967,0.02254,70.52804678,
0.02256,-1.351733967,0.02256,71.25890736,
0.02258,0.8408477983,0.02258,70.16261648,
0.0226,-0.2554430842,0.0226,70.89347707,
0.02262,0.4754175041,0.02262,70.89347707,
0.02264,0.1099872099,0.02264,70.52804678,
0.02266,1.206278092,0.02266,70.52804678,
0.02268,0.4754175041,0.02268,71.25890736,
0.0227,-0.2554430842,0.0227,70.89347707,
0.02272,0.8408477983,0.02272,70.89347707,
0.02274,0.4754175041,0.02274,70.89347707,
0.02276,0.1099872099,0.02276,70.52804678,
0.02278,-0.2554430842,0.02278,70.16261648,
0.0228,0.4754175041,0.0228,70.89347707,
0.02282,-0.2554430842,0.02282,70.52804678,
0.02284,0.4754175041,0.02284,70.52804678,
0.02286,0.1099872099,0.02286,71.25890736,
0.02288,-1.351733967,0.02288,70.89347707,
0.0229,0.8408477983,0.0229,70.52804678,
0.02292,1.571708387,0.02292,70.89347707,
0.02294,1.937138681,0.02294,70.52804678,
0.02296,1.206278092,0.02296,70.52804678,
0.02298,1.206278092,0.02298,71.25890736,
0.023,1.937138681,0.023,70.52804678,
0.02302,0.4754175041,0.02302,70.16261648,
0.02304,0.8408477983,0.02304,70.89347707,
0.02306,-0.2554430842,0.02306,70.89347707,
0.02308,-0.6208733784,0.02308,70.52804678,
0.0231,0.4754175041,0.0231,70.89347707,
0.02312,-0.6208733784,0.02312,70.52804678,
0.02314,-0.2554430842,0.02314,70.52804678,
0.02316,0.8408477983,0.02316,71.25890736,
0.02318,-0.2554430842,0.02318,70.16261648,
0.0232,-0.6208733784,0.0232,70.52804678,
0.02322,-1.717164261,0.02322,71.25890736,
0.02324,-1.717164261,0.02324,69.79718619,
0.02326,-1.717164261,0.02326,70.16261648,
0.02328,-2.448024849,0.02328,71.25890736,
0.0233,-1.351733967,0.0233,70.89347707,
0.02332,-1.351733967,0.02332,70.16261648,
0.02334,-1.351733967,0.02334,71.25890736,
0.02336,-3.178885438,0.02336,70.52804678,
0.02338,0.8408477983,0.02338,70.52804678,
0.0234,0.4754175041,0.0234,70.52804678,
0.02342,0.4754175041,0.02342,70.52804678,
0.02344,1.571708387,0.02344,70.16261648,
0.02346,-0.2554430842,0.02346,70.89347707,
0.02348,-2.082594555,0.02348,70.52804678,
0.0235,-0.6208733784,0.0235,70.89347707,
0.02352,-1.351733967,0.02352,71.25890736,
0.02354,-1.351733967,0.02354,70.52804678,
0.02356,0.1099872099,0.02356,70.52804678,
0.02358,-0.6208733784,0.02358,71.25890736,
0.0236,-0.2554430842,0.0236,70.52804678,
0.02362,1.206278092,0.02362,70.16261648,
0.02364,0.4754175041,0.02364,71.25890736,
0.02366,0.4754175041,0.02366,70.52804678,
0.02368,1.571708387,0.02368,70.16261648,
0.0237,0.8408477983,0.0237,70.89347707,
0.02372,0.8408477983,0.02372,70.52804678,
0.02374,0.8408477983,0.02374,70.52804678,
0.02376,0.1099872099,0.02376,71.25890736,
0.02378,0.4754175041,0.02378,70.89347707,
0.0238,0.8408477983,0.0238,70.52804678,
0.02382,1.206278092,0.02382,71.25890736,
0.02384,1.571708387,0.02384,70.89347707,
0.02386,0.1099872099,0.02386,70.52804678,
0.02388,2.667999269,0.02388,70.89347707,
0.0239,1.937138681,0.0239,70.89347707,
0.02392,1.937138681,0.02392,70.52804678,
0.02394,3.033429563,0.02394,70.89347707,
0.02396,1.206278092,0.02396,70.52804678,
0.02398,1.206278092,0.02398,70.52804678,
0.024,0.8408477983,0.024,71.25890736,
0.02402,0.4754175041,0.02402,70.52804678,
0.02404,-0.6208733784,0.02404,70.16261648,
0.02406,-0.6208733784,0.02406,71.25890736,
0.02408,-0.2554430842,0.02408,70.52804678,
0.0241,1.206278092,0.0241,70.52804678,
0.02412,0.8408477983,0.02412,71.25890736,
0.02414,-0.6208733784,0.02414,70.89347707,
0.02416,0.1099872099,0.02416,70.52804678,
0.02418,0.4754175041,0.02418,71.25890736,
0.0242,-2.082594555,0.0242,70.16261648,
0.02422,0.1099872099,0.02422,70.89347707,
0.02424,-2.448024849,0.02424,71.25890736,
0.02426,-1.717164261,0.02426,70.52804678,
0.02428,-0.9863036726,0.02428,70.52804678,
0.0243,-2.813455143,0.0243,71.25890736,
0.02432,-2.448024849,0.02432,71.62433766,
0.02434,0.1099872099,0.02434,71.62433766,
0.02436,-0.6208733784,0.02436,71.25890736,
0.02438,-0.9863036726,0.02438,70.89347707,
0.0244,0.4754175041,0.0244,70.52804678,
0.02442,0.8408477983,0.02442,71.25890736,
0.02444,-0.2554430842,0.02444,70.52804678,
0.02446,-0.2554430842,0.02446,70.52804678,
0.02448,-0.9863036726,0.02448,70.89347707,
0.0245,-0.6208733784,0.0245,70.89347707,
0.02452,-1.717164261,0.02452,70.89347707,
0.02454,-0.6208733784,0.02454,71.25890736,
0.02456,0.4754175041,0.02456,70.89347707,
0.02458,0.4754175041,0.02458,70.89347707,
0.0246,1.206278092,0.0246,71.25890736,
0.02462,0.4754175041,0.02462,70.52804678,
0.02464,1.937138681,0.02464,70.52804678,
0.02466,1.206278092,0.02466,70.89347707,
0.02468,0.4754175041,0.02468,70.89347707,
0.0247,1.206278092,0.0247,70.52804678,
0.02472,0.8408477983,0.02472,70.89347707,
0.02474,1.206278092,0.02474,70.52804678,
0.02476,0.4754175041,0.02476,70.16261648,
0.02478,1.206278092,0.02478,70.89347707,
0.0248,0.8408477983,0.0248,70.89347707,
0.02482,0.4754175041,0.02482,70.89347707,
0.02484,0.8408477983,0.02484,70.89347707,
0.02486,1.206278092,0.02486,70.52804678,
0.02488,3.033429563,0.02488,70.52804678,
0.0249,1.937138681,0.0249,70.89347707,
0.02492,2.302568975,0.02492,70.89347707,
0.02494,3.398859857,0.02494,70.52804678,
0.02496,1.937138681,0.02496,70.89347707,
0.02498,-0.6208733784,0.02498,70.52804678,
0.025,-0.2554430842,0.025,70.52804678,
0.02502,0.4754175041,0.02502,70.89347707,
0.02504,-1.351733967,0.02504,70.89347707,
0.02506,0.1099872099,0.02506,70.52804678,
0.02508,0.1099872099,0.02508,70.89347707,
0.0251,0.1099872099,0.0251,70.52804678,
0.02512,1.206278092,0.02512,70.89347707,
0.02514,-0.2554430842,0.02514,70.16261648,
0.02516,-0.6208733784,0.02516,70.16261648,
0.02518,-1.717164261,0.02518,70.52804678,
0.0252,1.206278092,0.0252,71.25890736,
0.02522,-0.9863036726,0.02522,70.52804678,
0.02524,-0.6208733784,0.02524,70.89347707,
0.02526,-2.082594555,0.02526,71.62433766,
0.02528,-2.448024849,0.02528,71.25890736,
0.0253,-1.717164261,0.0253,70.52804678,
0.02532,-0.9863036726,0.02532,70.16261648,
0.02534,-0.9863036726,0.02534,71.25890736,
0.02536,-0.9863036726,0.02536,71.25890736,
0.02538,-0.6208733784,0.02538,71.25890736,
0.0254,-0.2554430842,0.0254,70.89347707,
0.02542,0.4754175041,0.02542,70.89347707,
0.02544,-0.9863036726,0.02544,70.89347707,
0.02546,-0.9863036726,0.02546,70.52804678,
0.02548,-1.351733967,0.02548,70.52804678,
0.0255,0.1099872099,0.0255,71.25890736,
0.02552,0.4754175041,0.02552,70.52804678,
0.02554,0.4754175041,0.02554,70.52804678,
0.02556,1.206278092,0.02556,70.89347707,
0.02558,1.937138681,0.02558,70.52804678,
0.0256,1.571708387,0.0256,70.52804678,
0.02562,1.937138681,0.02562,70.89347707,
0.02564,1.206278092,0.02564,70.52804678,
0.02566,0.8408477983,0.02566,70.89347707,
0.02568,1.206278092,0.02568,71.62433766,
0.0257,0.1099872099,0.0257,70.89347707,
0.02572,0.4754175041,0.02572,70.89347707,
0.02574,1.571708387,0.02574,71.25890736,
0.02576,0.1099872099,0.02576,70.52804678,
0.02578,1.937138681,0.02578,70.52804678,
0.0258,0.8408477983,0.0258,70.89347707,
0.02582,0.8408477983,0.02582,70.16261648,
0.02584,2.302568975,0.02584,70.16261648,
0.02586,1.937138681,0.02586,70.89347707,
0.02588,1.571708387,0.02588,70.16261648,
0.0259,1.937138681,0.0259,70.52804678,
0.02592,1.937138681,0.02592,70.52804678,
0.02594,0.4754175041,0.02594,70.89347707,
0.02596,1.206278092,0.02596,70.52804678,
0.02598,0.4754175041,0.02598,70.89347707,
0.026,-0.6208733784,0.026,70.89347707,
0.02602,0.4754175041,0.02602,70.89347707,
0.02604,0.4754175041,0.02604,70.89347707,
0.02606,-0.6208733784,0.02606,70.89347707,
0.02608,0.4754175041,0.02608,70.52804678,
0.0261,-0.2554430842,0.0261,70.89347707,
0.02612,-0.2554430842,0.02612,70.89347707,
0.02614,-0.2554430842,0.02614,70.16261648,
0.02616,-0.6208733784,0.02616,70.16261648,
0.02618,-0.9863036726,0.02618,70.89347707,
0.0262,-1.351733967,0.0262,69.43175589,
0.02622,-1.717164261,0.02622,70.16261648,
0.02624,-1.717164261,0.02624,70.16261648,
0.02626,-1.717164261,0.02626,69.43175589,
0.02628,-3.544315732,0.02628,70.52804678,
0.0263,-0.6208733784,0.0263,71.25890736,
0.02632,0.1099872099,0.02632,70.16261648,
0.02634,0.1099872099,0.02634,70.52804678,
0.02636,0.4754175041,0.02636,70.52804678,
0.02638,-0.2554430842,0.02638,70.89347707,
0.0264,-0.2554430842,0.0264,69.79718619,
0.02642,-0.6208733784,0.02642,70.52804678,
0.02644,-0.2554430842,0.02644,70.89347707,
0.02646,-1.717164261,0.02646,70.16261648,
0.02648,-0.2554430842,0.02648,70.52804678,
0.0265,-1.351733967,0.0265,70.52804678,
0.02652,0.8408477983,0.02652,70.16261648,
0.02654,0.8408477983,0.02654,70.52804678,
0.02656,1.206278092,0.02656,70.52804678,
0.02658,0.4754175041,0.02658,69.79718619,
0.0266,1.206278092,0.0266,70.16261648,
0.02662,1.571708387,0.02662,70.52804678,
0.02664,0.4754175041,0.02664,70.16261648,
0.02666,1.206278092,0.02666,70.16261648,
0.02668,1.571708387,0.02668,70.52804678,
0.0267,0.1099872099,0.0267,70.16261648,
0.02672,0.4754175041,0.02672,70.89347707,
0.02674,0.4754175041,0.02674,70.89347707,
0.02676,0.8408477983,0.02676,70.16261648,
0.02678,1.206278092,0.02678,70.89347707,
0.0268,0.4754175041,0.0268,70.89347707,
0.02682,2.302568975,0.02682,70.16261648,
0.02684,1.937138681,0.02684,70.52804678,
0.02686,1.937138681,0.02686,70.52804678,
0.02688,2.302568975,0.02688,70.89347707,
0.0269,2.302568975,0.0269,70.52804678,
0.02692,2.302568975,0.02692,71.25890736,
0.02694,0.4754175041,0.02694,70.89347707,
0.02696,0.4754175041,0.02696,71.25890736,
0.02698,-0.6208733784,0.02698,70.89347707,
0.027,-0.6208733784,0.027,70.89347707,
0.02702,0.4754175041,0.02702,70.89347707,
0.02704,0.8408477983,0.02704,70.89347707,
0.02706,0.1099872099,0.02706,70.89347707,
0.02708,1.937138681,0.02708,70.89347707,
0.0271,0.8408477983,0.0271,70.89347707,
0.02712,0.4754175041,0.02712,71.25890736,
0.02714,0.8408477983,0.02714,69.79718619,
0.02716,-0.6208733784,0.02716,70.89347707,
0.02718,-1.717164261,0.02718,70.52804678,
0.0272,-0.9863036726,0.0272,71.62433766,
0.02722,-2.448024849,0.02722,69.79718619,
0.02724,-2.448024849,0.02724,70.89347707,
0.02726,-1.351733967,0.02726,71.62433766,
0.02728,0.4754175041,0.02728,70.16261648,
0.0273,0.1099872099,0.0273,70.52804678,
0.02732,-0.2554430842,0.02732,70.89347707,
0.02734,-1.351733967,0.02734,70.52804678,
0.02736,0.4754175041,0.02736,70.89347707,
0.02738,0.1099872099,0.02738,70.52804678,
0.0274,-1.351733967,0.0274,70.16261648,
0.02742,0.1099872099,0.02742,71.25890736,
0.02744,-1.351733967,0.02744,70.52804678,
0.02746,-0.9863036726,0.02746,70.16261648,
0.02748,0.1099872099,0.02748,71.25890736,
0.0275,-0.2554430842,0.0275,70.89347707,
0.02752,-0.2554430842,0.02752,70.52804678,
0.02754,1.206278092,0.02754,71.25890736,
0.02756,0.4754175041,0.02756,70.89347707,
0.02758,1.206278092,0.02758,70.16261648,
0.0276,0.8408477983,0.0276,71.25890736,
0.02762,0.4754175041,0.02762,70.89347707,
0.02764,0.4754175041,0.02764,70.16261648,
0.02766,0.8408477983,0.02766,71.25890736,
0.02768,0.4754175041,0.02768,70.16261648,
0.0277,0.8408477983,0.0277,70.52804678,
0.02772,1.206278092,0.02772,71.25890736,
0.02774,-0.6208733784,0.02774,70.52804678,
0.02776,1.206278092,0.02776,70.52804678,
0.02778,1.937138681,0.02778,70.89347707,
0.0278,0.8408477983,0.0278,70.52804678,
0.02782,0.4754175041,0.02782,70.52804678,
0.02784,1.937138681,0.02784,70.89347707,
0.02786,1.571708387,0.02786,70.52804678,
0.02788,0.1099872099,0.02788,70.52804678,
0.0279,0.8408477983,0.0279,70.89347707,
0.02792,0.4754175041,0.02792,70.89347707,
0.02794,-0.2554430842,0.02794,70.16261648,
0.02796,0.1099872099,0.02796,70.89347707,
0.02798,-1.351733967,0.02798,70.89347707,
0.028,0.1099872099,0.028,70.16261648,
0.02802,-0.2554430842,0.02802,70.89347707,
0.02804,-0.2554430842,0.02804,70.52804678,
0.02806,-0.2554430842,0.02806,70.16261648,
0.02808,1.571708387,0.02808,71.25890736,
0.0281,0.4754175041,0.0281,70.89347707,
0.02812,0.4754175041,0.02812,70.89347707,
0.02814,-2.082594555,0.02814,69.79718619,
0.02816,-0.6208733784,0.02816,69.0663256,
0.02818,-1.351733967,0.02818,70.16261648,
0.0282,-2.813455143,0.0282,70.16261648,
0.02822,-2.448024849,0.02822,70.52804678,
0.02824,-0.9863036726,0.02824,71.25890736,
0.02826,-0.9863036726,0.02826,69.79718619,
0.02828,-0.6208733784,0.02828,70.52804678,
0.0283,-0.2554430842,0.0283,70.16261648,
0.02832,-0.9863036726,0.02832,70.16261648,
0.02834,-2.082594555,0.02834,70.89347707,
0.02836,0.8408477983,0.02836,71.25890736,
0.02838,-1.351733967,0.02838,70.52804678,
0.0284,-0.9863036726,0.0284,70.89347707,
0.02842,-0.6208733784,0.02842,71.25890736,
0.02844,-2.082594555,0.02844,70.16261648,
0.02846,-0.2554430842,0.02846,70.16261648,
0.02848,0.1099872099,0.02848,70.89347707,
0.0285,0.1099872099,0.0285,69.79718619,
0.02852,1.206278092,0.02852,70.16261648,
0.02854,0.8408477983,0.02854,70.89347707,
0.02856,0.1099872099,0.02856,70.89347707,
0.02858,0.4754175041,0.02858,70.52804678,
0.0286,0.8408477983,0.0286,71.25890736,
0.02862,0.1099872099,0.02862,70.52804678,
0.02864,0.8408477983,0.02864,70.16261648,
0.02866,0.8408477983,0.02866,70.52804678,
0.02868,1.206278092,0.02868,70.52804678,
0.0287,0.4754175041,0.0287,70.52804678,
0.02872,0.4754175041,0.02872,70.89347707,
0.02874,0.4754175041,0.02874,70.52804678,
0.02876,0.8408477983,0.02876,70.16261648,
0.02878,1.571708387,0.02878,70.89347707,
0.0288,1.937138681,0.0288,70.89347707,
0.02882,3.398859857,0.02882,70.16261648,
0.02884,1.571708387,0.02884,71.25890736,
0.02886,1.571708387,0.02886,70.52804678,
0.02888,0.8408477983,0.02888,70.16261648,
0.0289,1.206278092,0.0289,71.25890736,
0.02892,-0.2554430842,0.02892,70.52804678,
0.02894,-0.6208733784,0.02894,70.52804678,
0.02896,0.8408477983,0.02896,71.62433766,
0.02898,-0.2554430842,0.02898,70.89347707,
0.029,0.1099872099,0.029,70.16261648,
0.02902,1.206278092,0.02902,70.89347707,
0.02904,0.4754175041,0.02904,70.52804678,
0.02906,0.4754175041,0.02906,70.16261648,
0.02908,0.1099872099,0.02908,70.52804678,
0.0291,-0.6208733784,0.0291,70.52804678,
0.02912,-0.6208733784,0.02912,71.62433766,
0.02914,-2.448024849,0.02914,71.25890736,
0.02916,-1.717164261,0.02916,70.52804678,
0.02918,-3.178885438,0.02918,70.16261648,
0.0292,-2.082594555,0.0292,71.62433766,
0.02922,-2.082594555,0.02922,70.89347707,
0.02924,-0.6208733784,0.02924,70.89347707,
0.02926,0.4754175041,0.02926,70.89347707,
0.02928,-0.2554430842,0.02928,70.89347707,
0.0293,0.4754175041,0.0293,70.16261648,
0.02932,0.8408477983,0.02932,70.89347707,
0.02934,-1.351733967,0.02934,70.89347707,
0.02936,-0.6208733784,0.02936,70.16261648,
0.02938,-1.351733967,0.02938,71.25890736,
0.0294,-1.351733967,0.0294,70.52804678,
0.02942,-1.351733967,0.02942,70.52804678,
0.02944,-0.2554430842,0.02944,70.89347707,
0.02946,-0.2554430842,0.02946,70.52804678,
0.02948,0.1099872099,0.02948,70.52804678,
0.0295,1.571708387,0.0295,70.89347707,
0.02952,1.206278092,0.02952,70.52804678,
0.02954,0.8408477983,0.02954,70.89347707,
0.02956,1.937138681,0.02956,70.89347707,
0.02958,1.571708387,0.02958,70.89347707,
0.0296,0.8408477983,0.0296,70.52804678,
0.02962,1.571708387,0.02962,70.52804678,
0.02964,0.8408477983,0.02964,70.52804678,
0.02966,0.4754175041,0.02966,70.16261648,
0.02968,0.4754175041,0.02968,70.89347707,
0.0297,0.8408477983,0.0297,70.16261648,
0.02972,0.1099872099,0.02972,70.16261648,
0.02974,0.8408477983,0.02974,70.52804678,
0.02976,1.571708387,0.02976,70.16261648,
0.02978,1.206278092,0.02978,70.16261648,
0.0298,1.571708387,0.0298,70.89347707,
0.02982,1.206278092,0.02982,70.52804678,
0.02984,0.1099872099,0.02984,70.52804678,
0.02986,1.571708387,0.02986,70.89347707,
0.02988,0.4754175041,0.02988,70.89347707,
0.0299,-0.2554430842,0.0299,70.16261648,
0.02992,-0.2554430842,0.02992,71.25890736,
0.02994,-0.9863036726,0.02994,70.16261648,
0.02996,0.4754175041,0.02996,70.52804678,
0.02998,0.1099872099,0.02998,70.89347707,
0.03,0.4754175041,0.03,70.52804678,
0.03002,1.937138681,0.03002,70.89347707,
0.03004,1.206278092,0.03004,70.89347707,
0.03006,-1.717164261,0.03006,69.79718619,
0.03008,-0.2554430842,0.03008,69.43175589,
0.0301,-0.6208733784,0.0301,70.89347707,
0.03012,-3.544315732,0.03012,70.89347707,
0.03014,-2.448024849,0.03014,71.62433766,
0.03016,-2.082594555,0.03016,70.89347707,
0.03018,-0.6208733784,0.03018,70.16261648,
0.0302,-2.448024849,0.0302,70.52804678,
0.03022,-1.351733967,0.03022,70.89347707,
0.03024,-1.351733967,0.03024,70.52804678,
0.03026,0.8408477983,0.03026,70.52804678,
0.03028,0.4754175041,0.03028,71.25890736,
0.0303,-0.6208733784,0.0303,70.89347707,
0.03032,0.1099872099,0.03032,70.16261648,
0.03034,-0.2554430842,0.03034,71.25890736,
0.03036,-1.717164261,0.03036,70.16261648,
0.03038,-0.6208733784,0.03038,70.52804678,
0.0304,-0.9863036726,0.0304,70.89347707,
0.03042,-0.2554430842,0.03042,70.89347707,
0.03044,0.8408477983,0.03044,70.52804678,
0.03046,0.8408477983,0.03046,70.89347707,
0.03048,1.206278092,0.03048,70.89347707,
0.0305,1.937138681,0.0305,70.52804678,
0.03052,1.937138681,0.03052,71.25890736,
0.03054,1.206278092,0.03054,70.52804678,
0.03056,0.8408477983,0.03056,70.52804678,
0.03058,0.4754175041,0.03058,70.89347707,
0.0306,0.1099872099,0.0306,70.52804678,
0.03062,2.302568975,0.03062,70.89347707,
0.03064,1.206278092,0.03064,70.89347707,
0.03066,0.1099872099,0.03066,70.89347707,
0.03068,1.206278092,0.03068,70.52804678,
0.0307,2.302568975,0.0307,71.25890736,
0.03072,0.4754175041,0.03072,70.89347707,
0.03074,1.937138681,0.03074,70.89347707,
0.03076,1.937138681,0.03076,71.25890736,
0.03078,1.206278092,0.03078,70.52804678,
0.0308,2.667999269,0.0308,70.89347707,
0.03082,1.206278092,0.03082,71.25890736,
0.03084,0.8408477983,0.03084,70.89347707,
0.03086,1.206278092,0.03086,70.89347707,
0.03088,0.1099872099,0.03088,70.89347707,
0.0309,-0.9863036726,0.0309,70.89347707,
0.03092,-0.6208733784,0.03092,70.52804678,
0.03094,0.1099872099,0.03094,71.25890736,
0.03096,0.4754175041,0.03096,71.25890736,
0.03098,1.206278092,0.03098,70.52804678,
0.031,1.571708387,0.031,71.25890736,
0.03102,0.1099872099,0.03102,70.89347707,
0.03104,2.667999269,0.03104,71.25890736,
0.03106,-0.6208733784,0.03106,70.52804678,
0.03108,-1.351733967,0.03108,70.89347707,
0.0311,-2.082594555,0.0311,70.52804678,
0.03112,-2.448024849,0.03112,70.89347707,
0.03114,-4.640606614,0.03114,69.79718619,
0.03116,-0.6208733784,0.03116,70.52804678,
0.03118,-0.9863036726,0.03118,70.16261648,
0.0312,-0.2554430842,0.0312,70.16261648,
0.03122,1.571708387,0.03122,70.16261648,
0.03124,0.4754175041,0.03124,71.25890736,
0.03126,-0.6208733784,0.03126,70.89347707,
0.03128,0.8408477983,0.03128,70.16261648,
0.0313,-1.351733967,0.0313,70.89347707,
0.03132,-0.6208733784,0.03132,70.52804678,
0.03134,-0.9863036726,0.03134,69.79718619,
0.03136,-0.9863036726,0.03136,70.89347707,
0.03138,-1.351733967,0.03138,71.25890736,
0.0314,-0.6208733784,0.0314,70.52804678,
0.03142,0.1099872099,0.03142,70.89347707,
0.03144,0.8408477983,0.03144,70.89347707,
0.03146,1.206278092,0.03146,70.89347707,
0.03148,0.8408477983,0.03148,70.89347707,
0.0315,1.571708387,0.0315,70.89347707,
0.03152,1.571708387,0.03152,70.52804678,
0.03154,0.8408477983,0.03154,70.89347707,
0.03156,0.1099872099,0.03156,70.16261648,
0.03158,1.206278092,0.03158,70.52804678,
0.0316,1.206278092,0.0316,70.89347707,
0.03162,1.206278092,0.03162,70.52804678,
0.03164,0.1099872099,0.03164,70.52804678,
0.03166,0.8408477983,0.03166,70.89347707,
0.03168,0.4754175041,0.03168,70.52804678,
0.0317,1.571708387,0.0317,70.52804678,
0.03172,2.302568975,0.03172,71.25890736,
0.03174,0.8408477983,0.03174,70.89347707,
0.03176,2.667999269,0.03176,70.89347707,
0.03178,1.937138681,0.03178,70.52804678,
0.0318,0.4754175041,0.0318,70.89347707,
0.03182,1.571708387,0.03182,70.16261648,
0.03184,0.8408477983,0.03184,70.89347707,
0.03186,-0.6208733784,0.03186,70.52804678,
0.03188,1.206278092,0.03188,70.16261648,
0.0319,-0.2554430842,0.0319,70.89347707,
0.03192,1.206278092,0.03192,70.89347707,
0.03194,0.8408477983,0.03194,70.52804678,
0.03196,1.937138681,0.03196,69.79718619,
0.03198,1.571708387,0.03198,69.79718619,
0.032,0.1099872099,0.032,70.89347707,
0.03202,1.571708387,0.03202,71.25890736,
0.03204,0.1099872099,0.03204,70.89347707,
0.03206,-0.6208733784,0.03206,71.62433766,
0.03208,-0.9863036726,0.03208,69.43175589,
0.0321,-1.351733967,0.0321,70.89347707,
0.03212,-1.351733967,0.03212,70.89347707,
0.03214,-2.448024849,0.03214,70.52804678,
0.03216,-0.2554430842,0.03216,69.43175589,
0.03218,-0.9863036726,0.03218,70.16261648,
0.0322,0.1099872099,0.0322,70.16261648,
0.03222,0.1099872099,0.03222,70.52804678,
0.03224,-1.351733967,0.03224,70.52804678,
0.03226,0.1099872099,0.03226,70.52804678,
0.03228,0.8408477983,0.03228,70.89347707,
0.0323,-0.9863036726,0.0323,70.89347707,
0.03232,-0.6208733784,0.03232,70.89347707,
0.03234,-0.2554430842,0.03234,71.25890736,
0.03236,-0.9863036726,0.03236,70.89347707,
0.03238,0.8408477983,0.03238,70.52804678,
0.0324,0.1099872099,0.0324,71.25890736,
0.03242,0.1099872099,0.03242,70.89347707,
0.03244,2.667999269,0.03244,70.52804678,
0.03246,1.206278092,0.03246,71.25890736,
0.03248,1.206278092,0.03248,70.89347707,
0.0325,0.4754175041,0.0325,70.89347707,
0.03252,0.1099872099,0.03252,70.89347707,
0.03254,1.571708387,0.03254,70.89347707,
0.03256,0.8408477983,0.03256,70.52804678,
0.03258,0.8408477983,0.03258,70.89347707,
0.0326,-0.6208733784,0.0326,70.52804678,
0.03262,1.571708387,0.03262,70.16261648,
0.03264,0.8408477983,0.03264,71.25890736,
0.03266,-0.2554430842,0.03266,70.89347707,
0.03268,2.302568975,0.03268,70.89347707,
0.0327,1.571708387,0.0327,71.25890736,
0.03272,1.571708387,0.03272,70.89347707,
0.03274,1.571708387,0.03274,70.52804678,
0.03276,3.033429563,0.03276,71.25890736,
0.03278,1.206278092,0.03278,70.52804678,
0.0328,1.571708387,0.0328,70.52804678,
0.03282,1.937138681,0.03282,70.89347707,
0.03284,0.4754175041,0.03284,70.89347707,
0.03286,-1.351733967,0.03286,70.52804678,
0.03288,0.8408477983,0.03288,70.89347707,
0.0329,0.8408477983,0.0329,70.52804678,
0.03292,0.8408477983,0.03292,71.25890736,
0.03294,-0.9863036726,0.03294,70.89347707,
0.03296,1.206278092,0.03296,70.52804678,
0.03298,0.8408477983,0.03298,70.16261648,
0.033,-0.2554430842,0.033,70.52804678,
0.03302,0.8408477983,0.03302,69.79718619,
0.03304,-2.082594555,0.03304,71.25890736,
0.03306,-0.6208733784,0.03306,69.79718619,
0.03308,-1.351733967,0.03308,71.62433766,
0.0331,-2.448024849,0.0331,70.52804678,
0.03312,-2.448024849,0.03312,70.52804678,
0.03314,1.937138681,0.03314,70.52804678,
0.03316,0.8408477983,0.03316,69.79718619,
0.03318,-0.2554430842,0.03318,70.16261648,
0.0332,-1.351733967,0.0332,70.52804678,
0.03322,-1.351733967,0.03322,71.25890736,
0.03324,-1.351733967,0.03324,70.52804678,
0.03326,-0.6208733784,0.03326,70.89347707,
0.03328,0.1099872099,0.03328,70.89347707,
0.0333,-1.351733967,0.0333,70.89347707,
0.03332,-0.9863036726,0.03332,70.52804678,
0.03334,0.1099872099,0.03334,70.89347707,
0.03336,0.1099872099,0.03336,70.52804678,
0.03338,0.8408477983,0.03338,70.52804678,
0.0334,0.1099872099,0.0334,70.89347707,
0.03342,1.206278092,0.03342,70.89347707,
0.03344,0.8408477983,0.03344,70.52804678,
0.03346,0.8408477983,0.03346,71.25890736,
0.03348,-0.2554430842,0.03348,70.52804678,
0.0335,2.302568975,0.0335,70.16261648,
0.03352,0.8408477983,0.03352,70.89347707,
0.03354,1.937138681,0.03354,70.52804678,
0.03356,0.4754175041,0.03356,70.52804678,
0.03358,0.1099872099,0.03358,70.89347707,
0.0336,1.206278092,0.0336,70.89347707,
0.03362,1.206278092,0.03362,70.16261648,
0.03364,0.4754175041,0.03364,71.25890736,
0.03366,0.8408477983,0.03366,70.52804678,
0.03368,1.206278092,0.03368,70.52804678,
0.0337,2.302568975,0.0337,70.89347707,
0.03372,0.8408477983,0.03372,70.89347707,
0.03374,1.571708387,0.03374,70.52804678,
0.03376,0.8408477983,0.03376,70.89347707,
0.03378,0.4754175041,0.03378,70.89347707,
0.0338,0.4754175041,0.0338,70.52804678,
0.03382,1.206278092,0.03382,70.52804678,
0.03384,-0.2554430842,0.03384,70.89347707,
0.03386,0.4754175041,0.03386,70.52804678,
0.03388,1.571708387,0.03388,70.89347707,
0.0339,-0.2554430842,0.0339,70.89347707,
0.03392,0.1099872099,0.03392,70.16261648,
0.03394,0.8408477983,0.03394,71.62433766,
0.03396,0.4754175041,0.03396,70.89347707,
0.03398,2.667999269,0.03398,70.52804678,
0.034,-0.2554430842,0.034,70.52804678,
0.03402,1.206278092,0.03402,70.89347707,
0.03404,-2.082594555,0.03404,70.16261648,
0.03406,-2.448024849,0.03406,71.25890736,
0.03408,-3.544315732,0.03408,70.16261648,
0.0341,-2.082594555,0.0341,70.52804678,
0.03412,-1.351733967,0.03412,71.25890736,
0.03414,-3.178885438,0.03414,71.25890736,
0.03416,1.206278092,0.03416,70.52804678,
0.03418,0.1099872099,0.03418,70.89347707,
0.0342,0.8408477983,0.0342,70.16261648,
0.03422,0.1099872099,0.03422,70.52804678,
0.03424,-0.2554430842,0.03424,70.89347707,
0.03426,-0.2554430842,0.03426,70.89347707,
0.03428,-0.6208733784,0.03428,70.52804678,
0.0343,0.4754175041,0.0343,71.25890736,
0.03432,-0.6208733784,0.03432,70.89347707,
0.03434,0.1099872099,0.03434,70.16261648,
0.03436,0.8408477983,0.03436,70.89347707,
0.03438,1.206278092,0.03438,70.52804678,
0.0344,1.206278092,0.0344,70.52804678,
0.03442,0.8408477983,0.03442,71.25890736,
0.03444,0.8408477983,0.03444,70.52804678,
0.03446,1.206278092,0.03446,70.16261648,
0.03448,-0.2554430842,0.03448,71.25890736,
0.0345,0.4754175041,0.0345,70.52804678,
0.03452,1.571708387,0.03452,70.89347707,
0.03454,1.571708387,0.03454,70.89347707,
0.03456,0.4754175041,0.03456,70.52804678,
0.03458,0.4754175041,0.03458,70.52804678,
0.0346,-0.2554430842,0.0346,70.89347707,
0.03462,0.1099872099,0.03462,70.52804678,
0.03464,0.4754175041,0.03464,70.89347707,
0.03466,1.937138681,0.03466,70.89347707,
0.03468,1.571708387,0.03468,70.52804678,
0.0347,3.033429563,0.0347,70.52804678,
0.03472,1.937138681,0.03472,70.89347707,
0.03474,0.8408477983,0.03474,70.89347707,
0.03476,1.571708387,0.03476,70.52804678,
0.03478,0.1099872099,0.03478,70.52804678,
0.0348,-0.6208733784,0.0348,70.16261648,
0.03482,-0.2554430842,0.03482,70.52804678,
0.03484,0.8408477983,0.03484,70.16261648,
0.03486,-0.2554430842,0.03486,70.52804678,
0.03488,1.206278092,0.03488,70.52804678,
0.0349,0.4754175041,0.0349,70.52804678,
0.03492,-0.2554430842,0.03492,70.16261648,
0.03494,0.1099872099,0.03494,70.16261648,
0.03496,2.302568975,0.03496,70.52804678,
0.03498,1.206278092,0.03498,69.43175589,
0.035,-0.2554430842,0.035,70.89347707,
0.03502,-2.082594555,0.03502,71.62433766,
0.03504,-1.717164261,0.03504,69.0663256,
0.03506,-1.351733967,0.03506,70.16261648,
0.03508,-0.9863036726,0.03508,70.52804678,
0.0351,-2.448024849,0.0351,70.16261648,
0.03512,-0.2554430842,0.03512,70.89347707,
0.03514,0.1099872099,0.03514,70.52804678,
0.03516,1.571708387,0.03516,70.52804678,
0.03518,0.4754175041,0.03518,70.52804678,
0.0352,-0.2554430842,0.0352,70.52804678,
0.03522,-0.2554430842,0.03522,70.16261648,
0.03524,-0.6208733784,0.03524,70.89347707,
0.03526,-0.6208733784,0.03526,70.89347707,
0.03528,-1.351733967,0.03528,70.16261648,
0.0353,-0.6208733784,0.0353,70.89347707,
0.03532,-0.9863036726,0.03532,70.52804678,
0.03534,-0.2554430842,0.03534,70.52804678,
0.03536,1.206278092,0.03536,70.52804678,
0.03538,1.206278092,0.03538,70.89347707,
0.0354,0.4754175041,0.0354,70.16261648,
0.03542,1.937138681,0.03542,70.52804678,
0.03544,1.206278092,0.03544,70.16261648,
0.03546,-0.2554430842,0.03546,70.16261648,
0.03548,0.4754175041,0.03548,70.52804678,
0.0355,-0.6208733784,0.0355,70.89347707,
0.03552,1.571708387,0.03552,70.16261648,
0.03554,0.4754175041,0.03554,70.89347707,
0.03556,1.206278092,0.03556,71.25890736,
0.03558,0.4754175041,0.03558,70.52804678,
0.0356,0.8408477983,0.0356,70.16261648,
0.03562,1.937138681,0.03562,70.89347707,
0.03564,1.937138681,0.03564,70.16261648,
0.03566,2.302568975,0.03566,70.52804678,
0.03568,1.571708387,0.03568,70.52804678,
0.0357,1.206278092,0.0357,70.16261648,
0.03572,1.937138681,0.03572,70.16261648,
0.03574,0.8408477983,0.03574,70.89347707,
0.03576,1.206278092,0.03576,69.79718619,
0.03578,1.206278092,0.03578,70.52804678,
0.0358,-0.6208733784,0.0358,70.52804678,
0.03582,0.8408477983,0.03582,70.16261648,
0.03584,1.206278092,0.03584,70.52804678,
0.03586,0.8408477983,0.03586,71.25890736,
0.03588,0.4754175041,0.03588,70.16261648,
0.0359,2.667999269,0.0359,70.52804678,
0.03592,1.937138681,0.03592,70.16261648,
0.03594,0.1099872099,0.03594,69.43175589,
0.03596,-1.351733967,0.03596,70.52804678,
0.03598,-2.082594555,0.03598,70.52804678,
0.036,-0.9863036726,0.036,69.79718619,
0.03602,-1.351733967,0.03602,70.52804678,
0.03604,0.1099872099,0.03604,70.52804678,
0.03606,-2.448024849,0.03606,70.16261648,
0.03608,0.4754175041,0.03608,70.52804678,
0.0361,-0.9863036726,0.0361,70.89347707,
0.03612,0.4754175041,0.03612,70.52804678,
0.03614,1.206278092,0.03614,70.52804678,
0.03616,0.1099872099,0.03616,70.16261648,
0.03618,-0.2554430842,0.03618,69.79718619,
0.0362,-0.6208733784,0.0362,70.52804678,
0.03622,-0.6208733784,0.03622,70.52804678,
0.03624,-1.351733967,0.03624,70.16261648,
0.03626,0.1099872099,0.03626,70.52804678,
0.03628,-0.9863036726,0.03628,70.89347707,
0.0363,0.1099872099,0.0363,69.79718619,
0.03632,1.571708387,0.03632,70.52804678,
0.03634,1.571708387,0.03634,70.16261648,
0.03636,1.206278092,0.03636,70.16261648,
0.03638,1.571708387,0.03638,70.52804678,
0.0364,0.4754175041,0.0364,70.52804678,
0.03642,1.206278092,0.03642,70.16261648,
0.03644,1.571708387,0.03644,70.52804678,
0.03646,1.937138681,0.03646,70.52804678,
0.03648,2.667999269,0.03648,70.52804678,
0.0365,2.667999269,0.0365,70.52804678,
0.03652,0.8408477983,0.03652,70.16261648,
0.03654,1.206278092,0.03654,70.16261648,
0.03656,1.206278092,0.03656,70.52804678,
0.03658,1.571708387,0.03658,70.52804678,
0.0366,1.571708387,0.0366,70.16261648,
0.03662,2.667999269,0.03662,70.16261648,
0.03664,3.033429563,0.03664,70.52804678,
0.03666,1.937138681,0.03666,69.79718619,
0.03668,1.206278092,0.03668,70.52804678,
0.0367,0.8408477983,0.0367,70.16261648,
0.03672,0.8408477983,0.03672,71.25890736,
0.03674,-0.6208733784,0.03674,70.52804678,
0.03676,-0.2554430842,0.03676,70.52804678,
0.03678,-0.6208733784,0.03678,71.25890736,
0.0368,-1.351733967,0.0368,70.52804678,
0.03682,0.1099872099,0.03682,70.16261648,
0.03684,-0.2554430842,0.03684,70.52804678,
0.03686,-0.2554430842,0.03686,70.52804678,
0.03688,2.302568975,0.03688,70.89347707,
0.0369,2.302568975,0.0369,70.89347707,
0.03692,-0.2554430842,0.03692,70.52804678,
0.03694,-1.717164261,0.03694,70.89347707,
0.03696,0.8408477983,0.03696,69.79718619,
0.03698,-2.448024849,0.03698,70.16261648,
0.037,-1.717164261,0.037,70.16261648,
0.03702,-1.717164261,0.03702,71.25890736,
0.03704,-0.2554430842,0.03704,70.89347707,
0.03706,-1.717164261,0.03706,70.52804678,
0.03708,-0.6208733784,0.03708,70.89347707,
0.0371,-0.9863036726,0.0371,70.52804678,
0.03712,-0.2554430842,0.03712,70.16261648,
0.03714,0.4754175041,0.03714,70.16261648,
0.03716,0.1099872099,0.03716,70.52804678,
0.03718,-0.9863036726,0.03718,70.89347707,
0.0372,-1.717164261,0.0372,70.89347707,
0.03722,-0.9863036726,0.03722,71.25890736,
0.03724,0.1099872099,0.03724,70.52804678,
0.03726,0.4754175041,0.03726,70.52804678,
0.03728,-0.2554430842,0.03728,70.52804678,
0.0373,1.206278092,0.0373,70.89347707,
0.03732,1.206278092,0.03732,70.89347707,
0.03734,1.937138681,0.03734,70.89347707,
0.03736,1.206278092,0.03736,70.89347707,
0.03738,1.937138681,0.03738,70.52804678,
0.0374,1.571708387,0.0374,70.89347707,
0.03742,1.206278092,0.03742,70.89347707,
0.03744,0.8408477983,0.03744,70.52804678,
0.03746,-0.2554430842,0.03746,70.52804678,
0.03748,0.8408477983,0.03748,70.16261648,
0.0375,1.571708387,0.0375,71.25890736,
0.03752,0.8408477983,0.03752,70.52804678,
0.03754,0.8408477983,0.03754,70.16261648,
0.03756,1.571708387,0.03756,70.89347707,
0.03758,1.206278092,0.03758,70.52804678,
0.0376,1.571708387,0.0376,70.16261648,
0.03762,2.302568975,0.03762,70.52804678,
0.03764,1.571708387,0.03764,70.52804678,
0.03766,1.571708387,0.03766,70.16261648,
0.03768,1.206278092,0.03768,70.89347707,
0.0377,0.1099872099,0.0377,70.52804678,
0.03772,1.206278092,0.03772,70.16261648,
0.03774,-0.6208733784,0.03774,70.89347707,
0.03776,0.1099872099,0.03776,70.52804678,
0.03778,-0.9863036726,0.03778,70.52804678,
0.0378,0.1099872099,0.0378,71.25890736,
0.03782,0.8408477983,0.03782,70.16261648,
0.03784,-0.6208733784,0.03784,70.16261648,
0.03786,1.206278092,0.03786,70.89347707,
0.03788,-0.9863036726,0.03788,70.89347707,
0.0379,1.206278092,0.0379,70.16261648,
0.03792,0.4754175041,0.03792,70.89347707,
0.03794,-0.9863036726,0.03794,70.89347707,
0.03796,-1.717164261,0.03796,70.89347707,
0.03798,-0.2554430842,0.03798,71.62433766,
0.038,-2.082594555,0.038,70.89347707,
0.03802,-2.448024849,0.03802,70.52804678,
0.03804,-0.9863036726,0.03804,70.16261648,
0.03806,-0.2554430842,0.03806,70.52804678,
0.03808,0.8408477983,0.03808,70.52804678,
0.0381,1.571708387,0.0381,70.52804678,
0.03812,-0.6208733784,0.03812,70.52804678,
0.03814,-0.6208733784,0.03814,70.16261648,
0.03816,-1.717164261,0.03816,71.25890736,
0.03818,-2.082594555,0.03818,70.52804678,
0.0382,-0.2554430842,0.0382,70.52804678,
0.03822,-0.2554430842,0.03822,71.25890736,
0.03824,-0.6208733784,0.03824,70.16261648,
0.03826,-0.2554430842,0.03826,70.52804678,
0.03828,0.8408477983,0.03828,70.89347707,
0.0383,1.571708387,0.0383,70.89347707,
0.03832,1.571708387,0.03832,70.16261648,
0.03834,2.667999269,0.03834,70.52804678,
0.03836,0.8408477983,0.03836,70.16261648,
0.03838,0.1099872099,0.03838,70.16261648,
0.0384,1.206278092,0.0384,70.89347707,
0.03842,-0.6208733784,0.03842,70.52804678,
0.03844,-0.6208733784,0.03844,70.52804678,
0.03846,0.8408477983,0.03846,71.25890736,
0.03848,0.1099872099,0.03848,70.52804678,
0.0385,1.206278092,0.0385,70.52804678,
0.03852,0.8408477983,0.03852,70.89347707,
0.03854,1.571708387,0.03854,70.52804678,
0.03856,1.937138681,0.03856,70.16261648,
0.03858,2.302568975,0.03858,70.89347707,
0.0386,1.937138681,0.0386,70.89347707,
0.03862,1.206278092,0.03862,71.25890736,
0.03864,0.4754175041,0.03864,70.89347707,
0.03866,2.302568975,0.03866,70.52804678,
0.03868,0.8408477983,0.03868,70.89347707,
0.0387,-0.2554430842,0.0387,70.52804678,
0.03872,0.1099872099,0.03872,70.52804678,
0.03874,0.4754175041,0.03874,70.89347707,
0.03876,-0.6208733784,0.03876,70.89347707,
0.03878,0.1099872099,0.03878,70.52804678,
0.0388,0.8408477983,0.0388,70.89347707,
0.03882,0.8408477983,0.03882,70.89347707,
0.03884,0.4754175041,0.03884,69.79718619,
0.03886,0.1099872099,0.03886,71.25890736,
0.03888,-0.6208733784,0.03888,70.89347707,
0.0389,-1.717164261,0.0389,71.25890736,
0.03892,0.1099872099,0.03892,71.62433766,
0.03894,0.4754175041,0.03894,70.52804678,
0.03896,-0.2554430842,0.03896,70.52804678,
0.03898,-1.717164261,0.03898,71.62433766,
0.039,-2.082594555,0.039,70.89347707,
0.03902,-1.351733967,0.03902,71.25890736,
0.03904,-0.2554430842,0.03904,70.89347707,
0.03906,-0.9863036726,0.03906,70.89347707,
0.03908,1.206278092,0.03908,70.52804678,
0.0391,1.937138681,0.0391,70.52804678,
0.03912,-0.2554430842,0.03912,70.52804678,
0.03914,-0.2554430842,0.03914,70.89347707,
0.03916,-1.717164261,0.03916,70.89347707,
0.03918,-1.717164261,0.03918,70.89347707,
0.0392,0.1099872099,0.0392,70.52804678,
0.03922,-0.6208733784,0.03922,71.25890736,
0.03924,1.206278092,0.03924,70.52804678,
0.03926,1.206278092,0.03926,70.89347707,
0.03928,0.8408477983,0.03928,70.89347707,
0.0393,1.571708387,0.0393,70.52804678,
0.03932,1.571708387,0.03932,70.16261648,
0.03934,1.571708387,0.03934,70.89347707,
0.03936,0.4754175041,0.03936,70.52804678,
0.03938,1.571708387,0.03938,70.52804678,
0.0394,1.206278092,0.0394,70.89347707,
0.03942,-0.2554430842,0.03942,70.89347707,
0.03944,1.206278092,0.03944,70.52804678,
0.03946,0.1099872099,0.03946,70.89347707,
0.03948,0.8408477983,0.03948,70.89347707,
0.0395,1.937138681,0.0395,70.52804678,
0.03952,0.8408477983,0.03952,70.89347707,
0.03954,1.571708387,0.03954,70.52804678,
0.03956,3.033429563,0.03956,70.52804678,
0.03958,1.937138681,0.03958,70.89347707,
0.0396,1.206278092,0.0396,70.52804678,
0.03962,1.206278092,0.03962,70.89347707,
0.03964,-0.2554430842,0.03964,70.89347707,
0.03966,1.206278092,0.03966,70.89347707,
0.03968,0.1099872099,0.03968,70.89347707,
0.0397,-0.9863036726,0.0397,70.52804678,
0.03972,0.1099872099,0.03972,70.89347707,
0.03974,0.1099872099,0.03974,70.16261648,
0.03976,0.4754175041,0.03976,70.89347707,
0.03978,1.571708387,0.03978,70.52804678,
0.0398,1.937138681,0.0398,70.52804678,
0.03982,1.206278092,0.03982,71.25890736,
0.03984,-0.2554430842,0.03984,70.89347707,
0.03986,-0.9863036726,0.03986,69.43175589,
0.03988,0.1099872099,0.03988,70.89347707,
0.0399,-0.6208733784,0.0399,70.52804678,
0.03992,2.302568975,0.03992,70.52804678,
0.03994,-2.448024849,0.03994,70.89347707,
0.03996,-1.351733967,0.03996,71.25890736,
0.03998,-0.9863036726,0.03998,71.25890736,
0.04,-0.6208733784,0.04,71.25890736,
0.04002,-0.6208733784,0.04002,70.52804678,
0.04004,0.8408477983,0.04004,70.16261648,
0.04006,0.1099872099,0.04006,71.25890736,
0.04008,0.4754175041,0.04008,70.52804678,
0.0401,-0.6208733784,0.0401,70.89347707,
0.04012,-0.2554430842,0.04012,70.52804678,
0.04014,-2.448024849,0.04014,70.52804678,
0.04016,-1.717164261,0.04016,70.89347707,
0.04018,-0.2554430842,0.04018,70.89347707,
0.0402,-0.9863036726,0.0402,70.52804678,
0.04022,1.206278092,0.04022,70.52804678,
0.04024,1.571708387,0.04024,70.89347707,
0.04026,1.571708387,0.04026,70.52804678,
0.04028,1.937138681,0.04028,70.52804678,
0.0403,1.937138681,0.0403,70.89347707,
0.04032,0.4754175041,0.04032,70.89347707,
0.04034,0.8408477983,0.04034,70.52804678,
0.04036,1.937138681,0.04036,70.89347707,
0.04038,0.1099872099,0.04038,70.52804678,
0.0404,0.4754175041,0.0404,70.52804678,
0.04042,0.8408477983,0.04042,71.62433766,
0.04044,0.4754175041,0.04044,70.52804678,
0.04046,1.206278092,0.04046,70.52804678,
0.04048,1.206278092,0.04048,70.89347707,
0.0405,1.571708387,0.0405,70.16261648,
0.04052,3.033429563,0.04052,70.52804678,
0.04054,0.8408477983,0.04054,69.79718619,
0.04056,2.667999269,0.04056,70.52804678,
0.04058,0.8408477983,0.04058,70.89347707,
0.0406,1.206278092,0.0406,70.16261648,
0.04062,2.302568975,0.04062,70.52804678,
0.04064,0.4754175041,0.04064,70.52804678,
0.04066,-0.6208733784,0.04066,70.52804678,
0.04068,1.206278092,0.04068,70.52804678,
0.0407,-0.2554430842,0.0407,70.52804678,
0.04072,0.4754175041,0.04072,70.16261648,
0.04074,0.8408477983,0.04074,70.52804678,
0.04076,0.8408477983,0.04076,70.16261648,
0.04078,0.4754175041,0.04078,69.79718619,
0.0408,0.4754175041,0.0408,69.79718619,
0.04082,-0.9863036726,0.04082,69.43175589,
0.04084,-0.6208733784,0.04084,70.16261648,
0.04086,0.1099872099,0.04086,70.16261648,
0.04088,-1.717164261,0.04088,70.52804678,
0.0409,-2.082594555,0.0409,70.52804678,
0.04092,-1.351733967,0.04092,70.89347707,
0.04094,-0.9863036726,0.04094,69.79718619,
0.04096,-0.2554430842,0.04096,70.16261648,
0.04098,-0.2554430842,0.04098,70.52804678,
0.041,0.1099872099,0.041,71.25890736,
0.04102,-0.6208733784,0.04102,70.16261648,
0.04104,1.571708387,0.04104,70.16261648,
0.04106,-0.6208733784,0.04106,70.89347707,
0.04108,-1.717164261,0.04108,69.79718619,
0.0411,-0.2554430842,0.0411,70.16261648,
0.04112,-0.9863036726,0.04112,70.52804678,
0.04114,-0.2554430842,0.04114,69.79718619,
0.04116,-0.2554430842,0.04116,70.52804678,
0.04118,0.1099872099,0.04118,70.52804678,
0.0412,0.8408477983,0.0412,69.79718619,
0.04122,0.4754175041,0.04122,70.52804678,
0.04124,1.206278092,0.04124,70.52804678,
0.04126,0.4754175041,0.04126,70.16261648,
0.04128,0.8408477983,0.04128,70.89347707,
0.0413,0.4754175041,0.0413,70.89347707,
0.04132,1.571708387,0.04132,70.52804678,
0.04134,1.571708387,0.04134,70.52804678,
0.04136,-0.2554430842,0.04136,70.89347707,
0.04138,1.937138681,0.04138,69.79718619,
0.0414,1.206278092,0.0414,70.52804678,
0.04142,0.8408477983,0.04142,70.52804678,
0.04144,0.8408477983,0.04144,70.16261648,
0.04146,0.8408477983,0.04146,70.52804678,
0.04148,0.8408477983,0.04148,70.52804678,
0.0415,1.206278092,0.0415,69.79718619,
0.04152,1.937138681,0.04152,70.52804678,
0.04154,2.302568975,0.04154,70.89347707,
0.04156,2.302568975,0.04156,70.16261648,
0.04158,1.206278092,0.04158,70.52804678,
0.0416,0.8408477983,0.0416,70.16261648,
0.04162,1.206278092,0.04162,69.79718619,
0.04164,-0.9863036726,0.04164,70.89347707,
0.04166,0.4754175041,0.04166,70.52804678,
0.04168,-0.2554430842,0.04168,70.16261648,
0.0417,0.1099872099,0.0417,70.52804678,
0.04172,0.8408477983,0.04172,70.52804678,
0.04174,0.4754175041,0.04174,69.79718619,
0.04176,0.8408477983,0.04176,70.16261648,
0.04178,0.4754175041,0.04178,71.25890736,
0.0418,2.302568975,0.0418,70.16261648,
0.04182,-0.2554430842,0.04182,70.52804678,
0.04184,-2.082594555,0.04184,69.43175589,
0.04186,-2.448024849,0.04186,69.0663256,
0.04188,1.206278092,0.04188,70.16261648,
0.0419,-2.082594555,0.0419,70.52804678,
0.04192,-0.9863036726,0.04192,70.16261648,
0.04194,-0.2554430842,0.04194,70.52804678,
0.04196,-0.9863036726,0.04196,70.89347707,
0.04198,-1.717164261,0.04198,69.79718619,
0.042,-0.2554430842,0.042,70.52804678,
0.04202,0.4754175041,0.04202,70.52804678,
0.04204,0.1099872099,0.04204,69.79718619,
0.04206,0.1099872099,0.04206,70.52804678,
0.04208,0.1099872099,0.04208,70.16261648,
0.0421,-0.9863036726,0.0421,70.16261648,
0.04212,-0.6208733784,0.04212,70.16261648,
0.04214,-0.2554430842,0.04214,70.89347707,
0.04216,-0.2554430842,0.04216,70.16261648,
0.04218,0.1099872099,0.04218,70.52804678,
0.0422,1.937138681,0.0422,70.52804678,
0.04222,1.571708387,0.04222,70.16261648,
0.04224,0.8408477983,0.04224,70.89347707,
0.04226,0.4754175041,0.04226,70.89347707,
0.04228,1.937138681,0.04228,70.89347707,
0.0423,0.8408477983,0.0423,70.89347707,
0.04232,2.302568975,0.04232,70.52804678,
0.04234,0.8408477983,0.04234,71.25890736,
0.04236,0.4754175041,0.04236,70.52804678,
0.04238,0.4754175041,0.04238,70.89347707,
0.0424,0.1099872099,0.0424,70.89347707,
0.04242,1.206278092,0.04242,70.52804678,
0.04244,1.206278092,0.04244,70.52804678,
0.04246,1.206278092,0.04246,70.89347707,
0.04248,2.667999269,0.04248,70.52804678,
0.0425,1.571708387,0.0425,70.16261648,
0.04252,1.937138681,0.04252,70.89347707,
0.04254,2.302568975,0.04254,70.52804678,
0.04256,1.571708387,0.04256,70.52804678,
0.04258,1.206278092,0.04258,70.52804678,
0.0426,-0.2554430842,0.0426,70.52804678,
0.04262,-0.2554430842,0.04262,71.25890736,
0.04264,1.206278092,0.04264,70.52804678,
0.04266,0.4754175041,0.04266,70.16261648,
0.04268,0.1099872099,0.04268,70.89347707,
0.0427,-0.9863036726,0.0427,70.52804678,
0.04272,0.1099872099,0.04272,69.79718619,
0.04274,0.1099872099,0.04274,71.25890736,
0.04276,0.8408477983,0.04276,70.52804678,
0.04278,0.4754175041,0.04278,70.89347707,
0.0428,0.8408477983,0.0428,70.52804678,
0.04282,-2.082594555,0.04282,71.62433766,
0.04284,-2.813455143,0.04284,69.43175589,
0.04286,-0.2554430842,0.04286,70.89347707,
0.04288,-0.9863036726,0.04288,70.89347707,
0.0429,-2.448024849,0.0429,70.52804678,
0.04292,-2.082594555,0.04292,70.89347707,
0.04294,-0.9863036726,0.04294,71.25890736,
0.04296,-0.2554430842,0.04296,69.79718619,
0.04298,-0.2554430842,0.04298,70.89347707,
0.043,0.1099872099,0.043,70.52804678,
0.04302,-0.9863036726,0.04302,70.89347707,
0.04304,-0.6208733784,0.04304,70.89347707,
0.04306,-0.9863036726,0.04306,70.52804678,
0.04308,-0.2554430842,0.04308,70.52804678,
0.0431,-1.351733967,0.0431,70.89347707,
0.04312,-0.6208733784,0.04312,70.52804678,
0.04314,-0.6208733784,0.04314,70.16261648,
0.04316,0.4754175041,0.04316,71.25890736,
0.04318,1.206278092,0.04318,70.16261648,
0.0432,0.4754175041,0.0432,70.52804678,
0.04322,2.302568975,0.04322,70.89347707,
0.04324,0.4754175041,0.04324,70.52804678,
0.04326,1.206278092,0.04326,70.89347707,
0.04328,1.571708387,0.04328,70.89347707,
0.0433,0.1099872099,0.0433,70.52804678,
0.04332,1.206278092,0.04332,70.52804678,
0.04334,-0.6208733784,0.04334,70.89347707,
0.04336,0.1099872099,0.04336,70.89347707,
0.04338,1.206278092,0.04338,70.16261648,
0.0434,1.206278092,0.0434,71.25890736,
0.04342,0.8408477983,0.04342,70.16261648,
0.04344,1.571708387,0.04344,70.52804678,
0.04346,1.571708387,0.04346,70.89347707,
0.04348,1.206278092,0.04348,70.52804678,
0.0435,1.571708387,0.0435,70.52804678,
0.04352,1.206278092,0.04352,71.25890736,
0.04354,0.8408477983,0.04354,70.16261648,
0.04356,1.206278092,0.04356,70.16261648,
0.04358,0.4754175041,0.04358,71.25890736,
0.0436,-0.6208733784,0.0436,70.16261648,
0.04362,-1.351733967,0.04362,70.52804678,
0.04364,-0.6208733784,0.04364,70.89347707,
0.04366,-0.6208733784,0.04366,70.52804678,
0.04368,0.1099872099,0.04368,70.52804678,
0.0437,0.8408477983,0.0437,70.89347707,
0.04372,-0.2554430842,0.04372,70.89347707,
0.04374,-0.2554430842,0.04374,70.16261648,
0.04376,0.1099872099,0.04376,70.89347707,
0.04378,-0.9863036726,0.04378,69.43175589,
0.0438,-2.448024849,0.0438,71.25890736,
0.04382,-0.9863036726,0.04382,71.25890736,
0.04384,-3.909746026,0.04384,69.79718619,
0.04386,-2.082594555,0.04386,70.16261648,
0.04388,-0.2554430842,0.04388,70.89347707,
0.0439,-2.082594555,0.0439,70.52804678,
0.04392,-0.9863036726,0.04392,70.16261648,
0.04394,-0.6208733784,0.04394,70.52804678,
0.04396,-0.2554430842,0.04396,70.16261648,
0.04398,-1.351733967,0.04398,70.52804678,
0.044,-0.6208733784,0.044,71.25890736,
0.04402,-0.6208733784,0.04402,70.52804678,
0.04404,-1.351733967,0.04404,70.16261648,
0.04406,-0.9863036726,0.04406,70.52804678,
0.04408,-1.717164261,0.04408,70.52804678,
0.0441,-2.082594555,0.0441,70.16261648,
0.04412,-0.9863036726,0.04412,71.25890736,
0.04414,0.1099872099,0.04414,70.16261648,
0.04416,1.206278092,0.04416,70.16261648,
0.04418,1.206278092,0.04418,71.25890736,
0.0442,0.8408477983,0.0442,70.16261648,
0.04422,1.571708387,0.04422,70.16261648,
0.04424,1.206278092,0.04424,70.89347707,
0.04426,1.206278092,0.04426,70.16261648,
0.04428,0.1099872099,0.04428,70.16261648,
0.0443,1.206278092,0.0443,70.89347707,
0.04432,1.937138681,0.04432,70.52804678,
0.04434,0.8408477983,0.04434,70.52804678,
0.04436,0.4754175041,0.04436,71.25890736,
0.04438,0.4754175041,0.04438,70.16261648,
0.0444,0.4754175041,0.0444,70.52804678,
0.04442,2.667999269,0.04442,70.89347707,
0.04444,0.8408477983,0.04444,70.89347707,
0.04446,1.571708387,0.04446,70.52804678,
0.04448,2.667999269,0.04448,70.89347707,
0.0445,0.4754175041,0.0445,70.52804678,
0.04452,0.8408477983,0.04452,70.52804678,
0.04454,0.8408477983,0.04454,70.89347707,
0.04456,-0.6208733784,0.04456,70.52804678,
0.04458,-0.2554430842,0.04458,70.16261648,
0.0446,0.8408477983,0.0446,70.89347707,
0.04462,-0.9863036726,0.04462,70.16261648,
0.04464,0.8408477983,0.04464,70.89347707,
0.04466,0.1099872099,0.04466,70.89347707,
0.04468,0.4754175041,0.04468,70.89347707,
0.0447,0.4754175041,0.0447,69.79718619,
0.04472,1.937138681,0.04472,70.89347707,
0.04474,-0.2554430842,0.04474,70.89347707,
0.04476,0.8408477983,0.04476,70.89347707,
0.04478,-0.2554430842,0.04478,71.25890736,
0.0448,-1.717164261,0.0448,70.52804678,
0.04482,-0.9863036726,0.04482,71.25890736,
0.04484,-1.351733967,0.04484,71.62433766,
0.04486,-3.544315732,0.04486,70.89347707,
0.04488,0.8408477983,0.04488,70.89347707,
0.0449,-0.2554430842,0.0449,70.89347707,
0.04492,-0.9863036726,0.04492,69.79718619,
0.04494,1.206278092,0.04494,70.52804678,
0.04496,-0.9863036726,0.04496,70.52804678,
0.04498,0.1099872099,0.04498,70.89347707,
0.045,0.1099872099,0.045,70.52804678,
0.04502,-0.9863036726,0.04502,70.89347707,
0.04504,-1.351733967,0.04504,70.52804678,
0.04506,-0.6208733784,0.04506,70.52804678,
0.04508,0.1099872099,0.04508,70.89347707,
0.0451,0.1099872099,0.0451,70.52804678,
0.04512,1.206278092,0.04512,70.52804678,
0.04514,-0.6208733784,0.04514,71.25890736,
0.04516,2.302568975,0.04516,70.16261648,
0.04518,2.302568975,0.04518,70.89347707,
0.0452,1.206278092,0.0452,70.89347707,
0.04522,0.4754175041,0.04522,70.52804678,
0.04524,1.206278092,0.04524,70.89347707,
0.04526,0.4754175041,0.04526,70.89347707,
0.04528,0.1099872099,0.04528,70.89347707,
0.0453,1.571708387,0.0453,70.52804678,
0.04532,0.1099872099,0.04532,71.25890736,
0.04534,0.8408477983,0.04534,70.52804678,
0.04536,0.4754175041,0.04536,70.16261648,
0.04538,3.033429563,0.04538,70.89347707,
0.0454,1.571708387,0.0454,70.52804678,
0.04542,1.206278092,0.04542,70.52804678,
0.04544,1.937138681,0.04544,70.89347707,
0.04546,1.571708387,0.04546,70.52804678,
0.04548,2.667999269,0.04548,70.52804678,
0.0455,2.667999269,0.0455,70.89347707,
0.04552,1.206278092,0.04552,70.52804678,
0.04554,0.8408477983,0.04554,70.52804678,
0.04556,0.4754175041,0.04556,70.89347707,
0.04558,-0.9863036726,0.04558,70.52804678,
0.0456,1.571708387,0.0456,70.52804678,
0.04562,0.1099872099,0.04562,70.52804678,
0.04564,-0.2554430842,0.04564,70.52804678,
0.04566,0.8408477983,0.04566,70.52804678,
0.04568,1.571708387,0.04568,71.25890736,
0.0457,1.206278092,0.0457,70.16261648,
0.04572,0.4754175041,0.04572,70.52804678,
0.04574,-0.6208733784,0.04574,70.52804678,
0.04576,-2.813455143,0.04576,70.52804678,
0.04578,-1.717164261,0.04578,71.25890736,
0.0458,-0.9863036726,0.0458,70.89347707,
0.04582,-3.544315732,0.04582,70.89347707,
0.04584,-3.178885438,0.04584,71.25890736,
0.04586,-1.351733967,0.04586,70.52804678,
0.04588,-0.9863036726,0.04588,70.16261648,
0.0459,-0.6208733784,0.0459,71.25890736,
0.04592,0.1099872099,0.04592,71.25890736,
0.04594,-1.351733967,0.04594,70.52804678,
0.04596,-0.6208733784,0.04596,70.52804678,
0.04598,-0.2554430842,0.04598,71.25890736,
0.046,-1.351733967,0.046,70.52804678,
0.04602,-0.2554430842,0.04602,70.52804678,
0.04604,-0.2554430842,0.04604,70.89347707,
0.04606,-1.351733967,0.04606,70.52804678,
0.04608,-0.2554430842,0.04608,70.52804678,
0.0461,0.8408477983,0.0461,70.52804678,
0.04612,0.1099872099,0.04612,70.52804678,
0.04614,1.571708387,0.04614,70.52804678,
0.04616,1.206278092,0.04616,70.52804678,
0.04618,0.4754175041,0.04618,70.52804678,
0.0462,1.571708387,0.0462,70.16261648,
0.04622,0.8408477983,0.04622,69.79718619,
0.04624,0.4754175041,0.04624,70.52804678,
0.04626,0.1099872099,0.04626,70.89347707,
0.04628,-0.2554430842,0.04628,70.16261648,
0.0463,0.8408477983,0.0463,70.52804678,
0.04632,-0.2554430842,0.04632,70.52804678,
0.04634,0.1099872099,0.04634,70.16261648,
0.04636,2.302568975,0.04636,70.89347707,
0.04638,2.302568975,0.04638,70.52804678,
0.0464,1.937138681,0.0464,70.16261648,
0.04642,2.302568975,0.04642,70.16261648,
0.04644,2.667999269,0.04644,70.89347707,
0.04646,1.571708387,0.04646,69.79718619,
0.04648,1.571708387,0.04648,70.52804678,
0.0465,1.206278092,0.0465,70.52804678,
0.04652,-0.2554430842,0.04652,69.79718619,
0.04654,0.8408477983,0.04654,70.52804678,
0.04656,-0.6208733784,0.04656,70.89347707,
0.04658,-0.2554430842,0.04658,70.16261648,
0.0466,0.4754175041,0.0466,70.52804678,
0.04662,0.8408477983,0.04662,70.52804678,
0.04664,0.4754175041,0.04664,70.16261648,
0.04666,0.1099872099,0.04666,70.89347707,
0.04668,0.4754175041,0.04668,70.89347707,
0.0467,0.1099872099,0.0467,70.16261648,
0.04672,-1.351733967,0.04672,70.16261648,
0.04674,-2.448024849,0.04674,70.52804678,
0.04676,0.8408477983,0.04676,69.79718619,
0.04678,-0.2554430842,0.04678,71.62433766,
0.0468,-1.717164261,0.0468,69.79718619,
0.04682,0.1099872099,0.04682,69.0663256,
0.04684,-0.6208733784,0.04684,69.79718619,
0.04686,0.1099872099,0.04686,70.89347707,
0.04688,0.4754175041,0.04688,70.52804678,
0.0469,1.937138681,0.0469,70.52804678,
0.04692,0.4754175041,0.04692,70.89347707,
0.04694,-0.6208733784,0.04694,70.52804678,
0.04696,-0.2554430842,0.04696,70.52804678,
0.04698,-1.717164261,0.04698,70.89347707,
0.047,-1.717164261,0.047,70.16261648,
0.04702,0.4754175041,0.04702,70.52804678,
0.04704,-0.6208733784,0.04704,70.52804678,
0.04706,0.1099872099,0.04706,70.16261648,
0.04708,0.4754175041,0.04708,70.52804678,
0.0471,1.206278092,0.0471,70.52804678,
0.04712,1.206278092,0.04712,69.79718619,
0.04714,1.206278092,0.04714,70.52804678,
0.04716,2.302568975,0.04716,70.89347707,
0.04718,0.8408477983,0.04718,70.16261648,
0.0472,0.8408477983,0.0472,70.52804678,
0.04722,0.8408477983,0.04722,70.89347707,
0.04724,0.1099872099,0.04724,70.16261648,
0.04726,1.571708387,0.04726,70.52804678,
0.04728,0.1099872099,0.04728,70.89347707,
0.0473,0.4754175041,0.0473,70.16261648,
0.04732,-0.6208733784,0.04732,70.52804678,
0.04734,0.8408477983,0.04734,70.52804678,
0.04736,1.206278092,0.04736,70.89347707,
0.04738,0.4754175041,0.04738,70.89347707,
0.0474,2.667999269,0.0474,70.52804678,
0.04742,1.206278092,0.04742,70.52804678,
0.04744,1.937138681,0.04744,70.89347707,
0.04746,1.206278092,0.04746,70.52804678,
0.04748,-0.2554430842,0.04748,70.52804678,
0.0475,0.1099872099,0.0475,70.52804678,
0.04752,0.4754175041,0.04752,70.52804678,
0.04754,-0.9863036726,0.04754,70.89347707,
0.04756,0.1099872099,0.04756,70.89347707,
0.04758,0.4754175041,0.04758,70.52804678,
0.0476,1.571708387,0.0476,70.52804678,
0.04762,1.571708387,0.04762,69.79718619,
0.04764,0.1099872099,0.04764,70.52804678,
0.04766,0.8408477983,0.04766,70.16261648,
0.04768,-0.9863036726,0.04768,71.62433766,
0.0477,0.4754175041,0.0477,70.89347707,
0.04772,-0.2554430842,0.04772,69.43175589,
0.04774,-1.351733967,0.04774,69.43175589,
0.04776,-0.9863036726,0.04776,71.98976795,
0.04778,-3.178885438,0.04778,70.52804678,
0.0478,-3.178885438,0.0478,70.89347707,
0.04782,-1.351733967,0.04782,70.52804678,
0.04784,-1.351733967,0.04784,71.25890736,
0.04786,-0.2554430842,0.04786,69.79718619,
0.04788,-1.351733967,0.04788,70.52804678,
0.0479,-0.2554430842,0.0479,70.89347707,
0.04792,-0.2554430842,0.04792,70.52804678,
0.04794,-0.6208733784,0.04794,71.25890736,
0.04796,-1.351733967,0.04796,70.16261648,
0.04798,-1.717164261,0.04798,70.16261648,
0.048,-0.6208733784,0.048,70.89347707,
0.04802,-0.9863036726,0.04802,70.16261648,
0.04804,0.1099872099,0.04804,70.52804678,
0.04806,0.4754175041,0.04806,70.89347707,
0.04808,1.206278092,0.04808,70.52804678,
0.0481,1.937138681,0.0481,70.89347707,
0.04812,2.302568975,0.04812,70.52804678,
0.04814,0.4754175041,0.04814,70.52804678,
0.04816,1.571708387,0.04816,70.16261648,
0.04818,0.8408477983,0.04818,71.25890736,
0.0482,1.206278092,0.0482,70.52804678,
0.04822,0.4754175041,0.04822,70.16261648,
0.04824,1.571708387,0.04824,71.25890736,
0.04826,0.4754175041,0.04826,70.89347707,
0.04828,0.1099872099,0.04828,70.52804678,
0.0483,1.206278092,0.0483,70.89347707,
0.04832,1.937138681,0.04832,70.52804678,
0.04834,0.8408477983,0.04834,70.16261648,
0.04836,1.571708387,0.04836,71.25890736,
0.04838,1.937138681,0.04838,70.52804678,
0.0484,1.206278092,0.0484,70.52804678,
0.04842,1.571708387,0.04842,70.89347707,
0.04844,0.8408477983,0.04844,70.52804678,
0.04846,1.206278092,0.04846,70.16261648,
0.04848,0.1099872099,0.04848,71.25890736,
0.0485,-0.6208733784,0.0485,70.89347707,
0.04852,0.1099872099,0.04852,70.52804678,
0.04854,-0.2554430842,0.04854,70.89347707,
0.04856,0.1099872099,0.04856,70.52804678,
0.04858,0.8408477983,0.04858,70.52804678,
0.0486,0.4754175041,0.0486,70.16261648,
0.04862,0.8408477983,0.04862,70.16261648,
0.04864,0.4754175041,0.04864,69.0663256,
0.04866,-1.351733967,0.04866,71.98976795,
0.04868,-1.717164261,0.04868,69.43175589,
0.0487,-0.6208733784,0.0487,70.89347707,
0.04872,-2.082594555,0.04872,70.89347707,
0.04874,-5.006036908,0.04874,70.89347707,
0.04876,-3.544315732,0.04876,71.25890736,
0.04878,-1.351733967,0.04878,71.62433766,
0.0488,1.571708387,0.0488,71.25890736,
0.04882,-0.6208733784,0.04882,70.16261648,
0.04884,0.4754175041,0.04884,71.25890736,
0.04886,0.4754175041,0.04886,70.16261648,
0.04888,-1.351733967,0.04888,70.52804678,
0.0489,0.1099872099,0.0489,70.89347707,
0.04892,-1.717164261,0.04892,70.52804678,
0.04894,-0.6208733784,0.04894,70.16261648,
0.04896,-0.6208733784,0.04896,70.89347707,
0.04898,-0.9863036726,0.04898,70.52804678,
0.049,-1.351733967,0.049,70.16261648,
0.04902,0.1099872099,0.04902,71.25890736,
0.04904,0.1099872099,0.04904,70.52804678,
0.04906,0.4754175041,0.04906,70.52804678,
0.04908,0.8408477983,0.04908,70.89347707,
0.0491,0.1099872099,0.0491,70.16261648,
0.04912,-0.2554430842,0.04912,70.16261648,
0.04914,0.4754175041,0.04914,71.25890736,
0.04916,0.4754175041,0.04916,70.52804678,
0.04918,1.206278092,0.04918,70.16261648,
0.0492,0.1099872099,0.0492,70.89347707,
0.04922,0.8408477983,0.04922,70.16261648,
0.04924,1.571708387,0.04924,69.79718619,
0.04926,1.206278092,0.04926,70.52804678,
0.04928,0.1099872099,0.04928,70.52804678,
0.0493,0.4754175041,0.0493,70.52804678,
0.04932,1.206278092,0.04932,70.89347707,
0.04934,0.1099872099,0.04934,70.16261648,
0.04936,1.937138681,0.04936,70.16261648,
0.04938,0.8408477983,0.04938,70.89347707,
0.0494,1.206278092,0.0494,70.89347707,
0.04942,1.571708387,0.04942,70.52804678,
0.04944,0.1099872099,0.04944,70.89347707,
0.04946,0.1099872099,0.04946,70.52804678,
0.04948,0.1099872099,0.04948,70.16261648,
0.0495,0.1099872099,0.0495,70.89347707,
0.04952,0.8408477983,0.04952,70.16261648,
0.04954,0.1099872099,0.04954,70.52804678,
0.04956,0.1099872099,0.04956,71.25890736,
0.04958,0.4754175041,0.04958,70.16261648,
0.0496,-0.2554430842,0.0496,70.52804678,
0.04962,0.4754175041,0.04962,70.89347707,
0.04964,-1.717164261,0.04964,69.43175589,
0.04966,-2.082594555,0.04966,69.0663256,
0.04968,-0.6208733784,0.04968,69.79718619,
0.0497,-1.351733967,0.0497,70.89347707,
0.04972,-2.082594555,0.04972,70.89347707,
0.04974,-1.351733967,0.04974,70.89347707,
0.04976,-3.909746026,0.04976,70.52804678,
0.04978,-1.351733967,0.04978,70.89347707,
0.0498,0.1099872099,0.0498,71.25890736,
0.04982,0.4754175041,0.04982,70.89347707,
0.04984,-1.351733967,0.04984,70.16261648,
0.04986,0.1099872099,0.04986,70.89347707,
0.04988,-0.9863036726,0.04988,70.16261648,
0.0499,-0.6208733784,0.0499,70.16261648,
0.04992,-0.6208733784,0.04992,70.89347707,
0.04994,-0.2554430842,0.04994,70.52804678,
0.04996,0.1099872099,0.04996,70.16261648,
0.04998,0.4754175041,0.04998,70.89347707,
0.05,-0.6208733784,0.05,70.16261648,
0.05002,0.8408477983,0.05002,70.52804678,
0.05004,0.1099872099,0.05004,70.89347707,
0.05006,0.1099872099,0.05006,70.52804678,
0.05008,1.571708387,0.05008,70.52804678,
0.0501,1.206278092,0.0501,70.89347707,
0.05012,0.4754175041,0.05012,70.52804678,
0.05014,1.206278092,0.05014,70.16261648,
0.05016,0.8408477983,0.05016,70.89347707,
0.05018,0.4754175041,0.05018,70.52804678,
0.0502,1.206278092,0.0502,70.52804678,
0.05022,1.206278092,0.05022,70.89347707,
0.05024,-0.2554430842,0.05024,70.52804678,
0.05026,1.206278092,0.05026,70.52804678,
0.05028,0.1099872099,0.05028,70.89347707,
0.0503,1.206278092,0.0503,70.52804678,
0.05032,1.571708387,0.05032,70.52804678,
0.05034,2.667999269,0.05034,70.89347707,
0.05036,0.8408477983,0.05036,70.52804678,
0.05038,1.937138681,0.05038,70.52804678,
0.0504,0.8408477983,0.0504,70.52804678,
0.05042,0.1099872099,0.05042,70.16261648,
0.05044,0.8408477983,0.05044,70.52804678,
0.05046,0.1099872099,0.05046,70.89347707,
0.05048,-0.9863036726,0.05048,70.89347707,
0.0505,-0.2554430842,0.0505,70.52804678,
0.05052,1.571708387,0.05052,70.89347707,
0.05054,0.1099872099,0.05054,70.89347707,
0.05056,0.1099872099,0.05056,70.89347707,
0.05058,3.033429563,0.05058,70.16261648,
0.0506,-0.2554430842,0.0506,69.79718619,
0.05062,0.4754175041,0.05062,70.89347707,
0.05064,-0.6208733784,0.05064,71.98976795,
0.05066,-0.2554430842,0.05066,70.89347707,
0.05068,-2.813455143,0.05068,71.25890736,
0.0507,-2.082594555,0.0507,71.62433766,
0.05072,-3.178885438,0.05072,70.52804678,
0.05074,-1.717164261,0.05074,70.52804678,
0.05076,-0.9863036726,0.05076,70.89347707,
0.05078,-0.6208733784,0.05078,71.25890736,
0.0508,0.8408477983,0.0508,70.52804678,
0.05082,-0.2554430842,0.05082,70.52804678,
0.05084,-0.9863036726,0.05084,70.52804678,
0.05086,0.1099872099,0.05086,70.52804678,
0.05088,-0.9863036726,0.05088,71.25890736,
0.0509,-0.2554430842,0.0509,70.89347707,
0.05092,-0.9863036726,0.05092,70.89347707,
0.05094,-2.082594555,0.05094,70.89347707,
0.05096,-0.9863036726,0.05096,70.89347707,
0.05098,1.206278092,0.05098,70.52804678,
0.051,1.206278092,0.051,70.89347707,
0.05102,0.4754175041,0.05102,70.52804678,
0.05104,1.206278092,0.05104,70.16261648,
0.05106,2.302568975,0.05106,70.89347707,
0.05108,0.4754175041,0.05108,70.52804678,
0.0511,1.206278092,0.0511,70.52804678,
0.05112,1.206278092,0.05112,70.89347707,
0.05114,0.1099872099,0.05114,70.52804678,
0.05116,1.206278092,0.05116,70.52804678,
0.05118,0.4754175041,0.05118,70.89347707,
0.0512,0.8408477983,0.0512,70.52804678,
0.05122,1.206278092,0.05122,70.16261648,
0.05124,0.1099872099,0.05124,70.52804678,
0.05126,0.4754175041,0.05126,70.52804678,
0.05128,1.937138681,0.05128,70.52804678,
0.0513,1.937138681,0.0513,70.52804678,
0.05132,1.937138681,0.05132,70.52804678,
0.05134,1.937138681,0.05134,70.16261648,
0.05136,1.937138681,0.05136,70.89347707,
0.05138,0.8408477983,0.05138,70.52804678,
0.0514,0.8408477983,0.0514,70.52804678,
0.05142,-0.6208733784,0.05142,70.89347707,
0.05144,-0.9863036726,0.05144,70.16261648,
0.05146,0.4754175041,0.05146,70.52804678,
0.05148,0.1099872099,0.05148,70.52804678,
0.0515,-1.351733967,0.0515,70.52804678,
0.05152,1.206278092,0.05152,70.52804678,
0.05154,0.8408477983,0.05154,71.25890736,
0.05156,1.206278092,0.05156,70.89347707,
0.05158,0.4754175041,0.05158,70.89347707,
0.0516,-0.2554430842,0.0516,70.52804678,
0.05162,-2.082594555,0.05162,70.16261648,
0.05164,-2.448024849,0.05164,70.89347707,
0.05166,-3.544315732,0.05166,71.98976795,
0.05168,-3.178885438,0.05168,71.25890736,
0.0517,-1.717164261,0.0517,70.89347707,
0.05172,-0.6208733784,0.05172,70.16261648,
0.05174,-0.2554430842,0.05174,70.52804678,
0.05176,0.1099872099,0.05176,70.52804678,
0.05178,-0.2554430842,0.05178,71.25890736,
0.0518,-0.9863036726,0.0518,70.52804678,
0.05182,-0.2554430842,0.05182,70.89347707,
0.05184,-0.6208733784,0.05184,70.89347707,
0.05186,-0.9863036726,0.05186,70.16261648,
0.05188,-0.9863036726,0.05188,70.16261648,
0.0519,-0.6208733784,0.0519,71.25890736,
0.05192,-0.6208733784,0.05192,70.16261648,
0.05194,-0.6208733784,0.05194,70.89347707,
0.05196,0.1099872099,0.05196,70.16261648,
0.05198,0.4754175041,0.05198,70.52804678,
0.052,1.206278092,0.052,70.89347707,
0.05202,2.302568975,0.05202,70.16261648,
0.05204,1.937138681,0.05204,70.16261648,
0.05206,1.937138681,0.05206,70.52804678,
0.05208,0.4754175041,0.05208,70.16261648,
0.0521,0.8408477983,0.0521,70.52804678,
0.05212,1.206278092,0.05212,70.89347707,
0.05214,1.206278092,0.05214,70.16261648,
0.05216,0.8408477983,0.05216,70.89347707,
0.05218,1.206278092,0.05218,70.52804678,
0.0522,0.1099872099,0.0522,70.16261648,
0.05222,1.571708387,0.05222,70.52804678,
0.05224,0.1099872099,0.05224,70.52804678,
0.05226,1.571708387,0.05226,70.16261648,
0.05228,2.302568975,0.05228,70.52804678,
0.0523,2.302568975,0.0523,70.52804678,
0.05232,1.571708387,0.05232,70.16261648,
0.05234,1.571708387,0.05234,70.52804678,
0.05236,1.571708387,0.05236,70.52804678,
0.05238,-0.2554430842,0.05238,70.16261648,
0.0524,0.1099872099,0.0524,70.52804678,
0.05242,0.8408477983,0.05242,70.52804678,
0.05244,-0.2554430842,0.05244,70.16261648,
0.05246,0.8408477983,0.05246,70.16261648,
0.05248,1.937138681,0.05248,70.16261648,
0.0525,1.571708387,0.0525,70.16261648,
0.05252,0.4754175041,0.05252,70.52804678,
0.05254,0.1099872099,0.05254,70.89347707,
0.05256,0.1099872099,0.05256,70.16261648,
0.05258,-0.2554430842,0.05258,70.16261648,
0.0526,2.302568975,0.0526,70.52804678,
0.05262,-3.178885438,0.05262,71.25890736,
0.05264,-3.544315732,0.05264,70.16261648,
0.05266,-0.9863036726,0.05266,70.16261648,
0.05268,-1.351733967,0.05268,70.89347707,
0.0527,-1.717164261,0.0527,70.52804678,
0.05272,-0.2554430842,0.05272,70.52804678,
0.05274,0.1099872099,0.05274,70.16261648,
0.05276,0.8408477983,0.05276,70.16261648,
0.05278,1.206278092,0.05278,70.52804678,
0.0528,-0.2554430842,0.0528,70.52804678,
0.05282,0.4754175041,0.05282,71.25890736,
0.05284,-0.9863036726,0.05284,70.52804678,
0.05286,-0.9863036726,0.05286,70.52804678,
0.05288,-1.351733967,0.05288,70.89347707,
0.0529,0.1099872099,0.0529,70.89347707,
0.05292,-0.2554430842,0.05292,70.89347707,
0.05294,-0.2554430842,0.05294,70.52804678,
0.05296,0.4754175041,0.05296,70.52804678,
0.05298,2.302568975,0.05298,70.89347707,
0.053,0.8408477983,0.053,70.89347707,
0.05302,0.8408477983,0.05302,70.52804678,
0.05304,0.1099872099,0.05304,70.89347707,
0.05306,0.1099872099,0.05306,70.52804678,
0.05308,0.8408477983,0.05308,70.52804678,
0.0531,0.4754175041,0.0531,70.89347707,
0.05312,0.8408477983,0.05312,70.52804678,
0.05314,0.4754175041,0.05314,70.16261648,
0.05316,1.206278092,0.05316,70.52804678,
0.05318,0.8408477983,0.05318,70.52804678,
0.0532,2.302568975,0.0532,70.52804678,
0.05322,1.937138681,0.05322,70.52804678,
0.05324,2.302568975,0.05324,70.89347707,
0.05326,2.302568975,0.05326,70.89347707,
0.05328,2.667999269,0.05328,71.25890736,
0.0533,0.8408477983,0.0533,70.89347707,
0.05332,1.937138681,0.05332,70.16261648,
0.05334,1.571708387,0.05334,70.52804678,
0.05336,-0.9863036726,0.05336,70.16261648,
0.05338,-0.2554430842,0.05338,70.52804678,
0.0534,-0.2554430842,0.0534,71.25890736,
0.05342,-0.2554430842,0.05342,70.52804678,
0.05344,0.4754175041,0.05344,70.16261648,
0.05346,0.8408477983,0.05346,71.25890736,
0.05348,1.206278092,0.05348,70.52804678,
0.0535,1.571708387,0.0535,70.52804678,
0.05352,-0.6208733784,0.05352,70.89347707,
0.05354,-0.9863036726,0.05354,70.52804678,
0.05356,-0.6208733784,0.05356,70.89347707,
0.05358,-2.082594555,0.05358,70.89347707,
0.0536,-2.448024849,0.0536,71.25890736,
0.05362,-2.813455143,0.05362,70.89347707,
0.05364,-3.909746026,0.05364,69.79718619,
0.05366,-1.351733967,0.05366,70.89347707,
0.05368,0.4754175041,0.05368,70.52804678,
0.0537,-0.2554430842,0.0537,71.62433766,
0.05372,-0.2554430842,0.05372,69.79718619,
0.05374,-0.2554430842,0.05374,70.16261648,
0.05376,1.206278092,0.05376,70.52804678,
0.05378,-0.6208733784,0.05378,70.89347707,
0.0538,0.1099872099,0.0538,70.16261648,
0.05382,-0.9863036726,0.05382,70.89347707,
0.05384,-0.9863036726,0.05384,70.16261648,
0.05386,-0.9863036726,0.05386,70.16261648,
0.05388,-0.2554430842,0.05388,70.89347707,
0.0539,-0.6208733784,0.0539,70.52804678,
0.05392,-0.9863036726,0.05392,70.52804678,
0.05394,1.206278092,0.05394,70.89347707,
0.05396,0.8408477983,0.05396,70.52804678,
0.05398,1.937138681,0.05398,70.52804678,
0.054,0.8408477983,0.054,70.89347707,
0.05402,0.8408477983,0.05402,70.89347707,
0.05404,1.571708387,0.05404,70.16261648,
0.05406,0.8408477983,0.05406,70.89347707,
0.05408,0.1099872099,0.05408,70.52804678,
0.0541,1.571708387,0.0541,70.52804678,
0.05412,1.206278092,0.05412,70.52804678,
0.05414,0.1099872099,0.05414,70.52804678,
0.05416,0.4754175041,0.05416,70.16261648,
0.05418,1.206278092,0.05418,70.89347707,
0.0542,0.4754175041,0.0542,70.52804678,
0.05422,2.302568975,0.05422,70.52804678,
0.05424,1.937138681,0.05424,70.89347707,
0.05426,1.206278092,0.05426,70.89347707,
0.05428,1.206278092,0.05428,70.89347707,
0.0543,1.206278092,0.0543,70.89347707,
0.05432,1.206278092,0.05432,70.89347707,
0.05434,0.4754175041,0.05434,70.89347707,
0.05436,0.8408477983,0.05436,70.89347707,
0.05438,-0.9863036726,0.05438,70.52804678,
0.0544,-0.2554430842,0.0544,70.52804678,
0.05442,1.206278092,0.05442,70.89347707,
0.05444,-0.9863036726,0.05444,70.89347707,
0.05446,1.571708387,0.05446,70.89347707,
0.05448,2.302568975,0.05448,70.52804678,
0.0545,-0.2554430842,0.0545,70.16261648,
0.05452,-0.9863036726,0.05452,70.52804678,
0.05454,1.937138681,0.05454,70.89347707,
0.05456,-0.9863036726,0.05456,70.52804678,
0.05458,-0.9863036726,0.05458,70.16261648,
0.0546,-1.717164261,0.0546,69.79718619,
0.05462,0.1099872099,0.05462,71.62433766,
0.05464,-1.717164261,0.05464,69.43175589,
0.05466,-1.717164261,0.05466,71.25890736,
0.05468,-0.9863036726,0.05468,71.25890736,
0.0547,1.206278092,0.0547,70.52804678,
0.05472,-0.6208733784,0.05472,71.25890736,
0.05474,0.1099872099,0.05474,70.16261648,
0.05476,1.206278092,0.05476,70.89347707,
0.05478,-0.9863036726,0.05478,70.89347707,
0.0548,-1.351733967,0.0548,70.16261648,
0.05482,-0.6208733784,0.05482,70.89347707,
0.05484,-1.351733967,0.05484,70.16261648,
0.05486,-0.9863036726,0.05486,70.16261648,
0.05488,-0.9863036726,0.05488,70.52804678,
0.0549,-0.9863036726,0.0549,70.52804678,
0.05492,0.4754175041,0.05492,69.79718619,
0.05494,1.206278092,0.05494,70.16261648,
0.05496,1.937138681,0.05496,70.16261648,
0.05498,1.937138681,0.05498,69.79718619,
0.055,2.302568975,0.055,70.52804678,
0.05502,1.571708387,0.05502,70.89347707,
0.05504,0.4754175041,0.05504,70.16261648,
0.05506,2.302568975,0.05506,70.52804678,
0.05508,0.1099872099,0.05508,70.52804678,
0.0551,0.4754175041,0.0551,69.79718619,
0.05512,1.206278092,0.05512,70.16261648,
0.05514,0.1099872099,0.05514,70.52804678,
0.05516,1.571708387,0.05516,70.16261648,
0.05518,2.667999269,0.05518,70.89347707,
0.0552,1.206278092,0.0552,70.52804678,
0.05522,2.302568975,0.05522,70.16261648,
0.05524,1.937138681,0.05524,70.16261648,
0.05526,1.571708387,0.05526,70.16261648,
0.05528,1.571708387,0.05528,69.79718619,
0.0553,1.206278092,0.0553,70.52804678,
0.05532,-0.6208733784,0.05532,70.89347707,
0.05534,0.1099872099,0.05534,70.16261648,
0.05536,-0.2554430842,0.05536,70.52804678,
0.05538,0.1099872099,0.05538,70.52804678,
0.0554,-0.6208733784,0.0554,70.16261648,
0.05542,0.4754175041,0.05542,70.16261648,
0.05544,0.1099872099,0.05544,70.52804678,
0.05546,0.8408477983,0.05546,70.16261648,
0.05548,0.4754175041,0.05548,70.52804678,
0.0555,-0.6208733784,0.0555,71.25890736,
0.05552,0.8408477983,0.05552,69.79718619,
0.05554,1.571708387,0.05554,70.52804678,
0.05556,-2.082594555,0.05556,70.89347707,
0.05558,-3.544315732,0.05558,70.52804678,
0.0556,-2.813455143,0.0556,69.43175589,
0.05562,0.4754175041,0.05562,69.79718619,
0.05564,-0.2554430842,0.05564,70.52804678,
0.05566,0.8408477983,0.05566,70.16261648,
0.05568,-0.2554430842,0.05568,70.16261648,
0.0557,0.4754175041,0.0557,70.16261648,
0.05572,1.206278092,0.05572,70.52804678,
0.05574,-0.9863036726,0.05574,70.52804678,
0.05576,-0.9863036726,0.05576,69.79718619,
0.05578,-0.9863036726,0.05578,70.52804678,
0.0558,-0.9863036726,0.0558,70.52804678,
0.05582,-2.082594555,0.05582,70.16261648,
0.05584,0.4754175041,0.05584,70.52804678,
0.05586,0.1099872099,0.05586,70.52804678,
0.05588,0.8408477983,0.05588,69.79718619,
0.0559,1.206278092,0.0559,70.52804678,
0.05592,1.206278092,0.05592,70.89347707,
0.05594,0.1099872099,0.05594,70.16261648,
0.05596,0.4754175041,0.05596,70.16261648,
0.05598,0.4754175041,0.05598,70.52804678,
0.056,1.571708387,0.056,70.16261648,
0.05602,1.571708387,0.05602,70.52804678,
0.05604,-0.2554430842,0.05604,70.16261648,
0.05606,0.4754175041,0.05606,70.16261648,
0.05608,1.206278092,0.05608,70.16261648,
0.0561,0.8408477983,0.0561,70.52804678,
0.05612,0.1099872099,0.05612,70.16261648,
0.05614,1.571708387,0.05614,70.52804678,
0.05616,1.571708387,0.05616,70.52804678,
0.05618,0.8408477983,0.05618,69.79718619,
0.0562,2.302568975,0.0562,70.52804678,
0.05622,1.937138681,0.05622,70.16261648,
0.05624,2.302568975,0.05624,70.16261648,
0.05626,1.571708387,0.05626,70.52804678,
0.05628,0.8408477983,0.05628,70.16261648,
0.0563,0.1099872099,0.0563,69.79718619,
0.05632,0.1099872099,0.05632,70.52804678,
0.05634,0.4754175041,0.05634,70.16261648,
0.05636,-0.9863036726,0.05636,70.16261648,
0.05638,0.1099872099,0.05638,70.52804678,
0.0564,1.206278092,0.0564,70.52804678,
0.05642,1.206278092,0.05642,70.16261648,
0.05644,0.1099872099,0.05644,69.79718619,
0.05646,0.4754175041,0.05646,69.79718619,
0.05648,-0.9863036726,0.05648,69.79718619,
0.0565,-1.351733967,0.0565,70.16261648,
0.05652,-0.6208733784,0.05652,71.25890736,
0.05654,-2.448024849,0.05654,70.16261648,
0.05656,-2.082594555,0.05656,70.52804678,
0.05658,0.1099872099,0.05658,70.52804678,
0.0566,-2.082594555,0.0566,69.0663256,
0.05662,-1.351733967,0.05662,70.16261648,
0.05664,-0.2554430842,0.05664,70.16261648,
0.05666,-0.2554430842,0.05666,70.16261648,
0.05668,-1.717164261,0.05668,70.16261648,
0.0567,-0.9863036726,0.0567,70.52804678,
0.05672,-0.2554430842,0.05672,71.25890736,
0.05674,-1.351733967,0.05674,70.52804678,
0.05676,-1.717164261,0.05676,70.52804678,
0.05678,-0.6208733784,0.05678,70.89347707,
0.0568,-2.448024849,0.0568,70.52804678,
0.05682,0.1099872099,0.05682,70.52804678,
0.05684,0.1099872099,0.05684,70.52804678,
0.05686,-0.2554430842,0.05686,70.52804678,
0.05688,0.1099872099,0.05688,69.79718619,
0.0569,1.206278092,0.0569,70.89347707,
0.05692,-0.6208733784,0.05692,70.52804678,
0.05694,0.8408477983,0.05694,70.52804678,
0.05696,0.4754175041,0.05696,70.89347707,
0.05698,1.206278092,0.05698,70.16261648,
0.057,0.4754175041,0.057,70.89347707,
0.05702,0.8408477983,0.05702,71.25890736,
0.05704,0.1099872099,0.05704,70.52804678,
0.05706,0.4754175041,0.05706,70.16261648,
0.05708,0.1099872099,0.05708,71.25890736,
0.0571,0.8408477983,0.0571,70.52804678,
0.05712,1.571708387,0.05712,70.52804678,
0.05714,1.571708387,0.05714,70.89347707,
0.05716,0.4754175041,0.05716,70.52804678,
0.05718,1.571708387,0.05718,70.16261648,
0.0572,1.937138681,0.0572,70.89347707,
0.05722,1.206278092,0.05722,70.52804678,
0.05724,1.571708387,0.05724,69.79718619,
0.05726,0.1099872099,0.05726,70.89347707,
0.05728,-0.2554430842,0.05728,70.16261648,
0.0573,-1.351733967,0.0573,70.16261648,
0.05732,0.8408477983,0.05732,70.89347707,
0.05734,-0.6208733784,0.05734,70.52804678,
0.05736,-0.2554430842,0.05736,70.16261648,
0.05738,0.8408477983,0.05738,71.25890736,
0.0574,-0.6208733784,0.0574,70.52804678,
0.05742,-0.6208733784,0.05742,69.43175589,
0.05744,0.4754175041,0.05744,70.89347707,
0.05746,-0.9863036726,0.05746,70.89347707,
0.05748,-0.6208733784,0.05748,69.79718619,
0.0575,-0.9863036726,0.0575,70.89347707,
0.05752,-3.909746026,0.05752,70.16261648,
0.05754,-3.909746026,0.05754,70.52804678,
0.05756,-2.082594555,0.05756,70.89347707,
0.05758,-1.351733967,0.05758,70.52804678,
0.0576,-0.9863036726,0.0576,70.52804678,
0.05762,0.8408477983,0.05762,71.25890736,
0.05764,-1.351733967,0.05764,70.52804678,
0.05766,0.1099872099,0.05766,70.89347707,
0.05768,1.206278092,0.05768,70.52804678,
0.0577,-0.2554430842,0.0577,71.25890736,
0.05772,0.1099872099,0.05772,70.52804678,
