"A0_accX_x","A0_accX_y","A1_rmsX_x","A1_rmsX_y"
0,-3.739265485,0,4.38516353,
2e-05,-3.008404897,2e-05,4.38516353,
4e-05,-3.008404897,4e-05,4.750593824,
6e-05,-2.642974603,6e-05,4.019733236,
8e-05,-3.008404897,8e-05,3.654302942,
0.0001,-1.912114014,0.0001,4.750593824,
0.00012,-1.54668372,0.00012,4.019733236,
0.00014,-1.181253426,0.00014,4.750593824,
0.00016,-0.08496254339,0.00016,4.750593824,
0.00018,-0.8158231317,0.00018,5.481454413,
0.0002,0.6458980449,0.0002,4.38516353,
0.00022,-0.4503928376,0.00022,4.750593824,
0.00024,0.6458980449,0.00024,4.38516353,
0.00026,-0.4503928376,0.00026,4.019733236,
0.00028,3.569340398,0.00028,4.019733236,
0.0003,2.107619222,0.0003,4.38516353,
0.00032,2.107619222,0.00032,3.654302942,
0.00034,1.011328339,0.00034,4.38516353,
0.00036,2.83847981,0.00036,4.019733236,
0.00038,4.300200987,0.00038,3.288872648,
0.0004,3.569340398,0.0004,4.38516353,
0.00042,3.934770692,0.00042,4.38516353,
0.00044,3.203910104,0.00044,4.019733236,
0.00046,3.934770692,0.00046,5.481454413,
0.00048,1.376758633,0.00048,5.846884707,
0.0005,2.107619222,0.0005,4.38516353,
0.00052,3.203910104,0.00052,4.019733236,
0.00054,2.83847981,0.00054,4.38516353,
0.00056,3.569340398,0.00056,4.019733236,
0.00058,0.6458980449,0.00058,4.38516353,
0.0006,1.376758633,0.0006,4.019733236,
0.00062,0.6458980449,0.00062,4.019733236,
0.00064,-0.08496254339,0.00064,4.750593824,
0.00066,-0.08496254339,0.00066,4.019733236,
0.00068,-0.08496254339,0.00068,4.019733236,
0.0007,-1.912114014,0.0007,4.38516353,
0.00072,-2.642974603,0.00072,4.019733236,
0.00074,-2.277544308,0.00074,4.019733236,
0.00076,-3.008404897,0.00076,4.750593824,
0.00078,-5.200986662,0.00078,5.481454413,
0.0008,-1.912114014,0.0008,4.38516353,
0.00082,-4.104695779,0.00082,4.750593824,
0.00084,-3.008404897,0.00084,4.750593824,
0.00086,-2.642974603,0.00086,3.654302942,
0.00088,-3.373835191,0.00088,5.116024118,
0.0009,-3.739265485,0.0009,4.750593824,
0.00092,-5.566416956,0.00092,4.38516353,
0.00094,-3.008404897,0.00094,4.750593824,
0.00096,-3.373835191,0.00096,4.750593824,
0.00098,-2.642974603,0.00098,3.654302942,
0.001,-1.54668372,0.001,4.750593824,
0.00102,-1.912114014,0.00102,4.750593824,
0.00104,-1.54668372,0.00104,4.38516353,
0.00106,-1.181253426,0.00106,4.38516353,
0.00108,-0.8158231317,0.00108,4.750593824,
0.0011,0.2804677508,0.0011,4.38516353,
0.00112,0.2804677508,0.00112,4.750593824,
0.00114,1.011328339,0.00114,4.38516353,
0.00116,2.107619222,0.00116,4.019733236,
0.00118,2.107619222,0.00118,5.116024118,
0.0012,3.203910104,0.0012,4.750593824,
0.00122,2.473049516,0.00122,4.38516353,
0.00124,3.934770692,0.00124,4.750593824,
0.00126,1.376758633,0.00126,4.38516353,
0.00128,3.934770692,0.00128,4.019733236,
0.0013,4.665631281,0.0013,4.750593824,
0.00132,3.203910104,0.00132,4.750593824,
0.00134,3.569340398,0.00134,4.38516353,
0.00136,3.934770692,0.00136,4.38516353,
0.00138,5.031061575,0.00138,4.750593824,
0.0014,0.6458980449,0.0014,4.38516353,
0.00142,2.83847981,0.00142,4.750593824,
0.00144,2.83847981,0.00144,4.38516353,
0.00146,1.742188927,0.00146,4.38516353,
0.00148,2.473049516,0.00148,4.750593824,
0.0015,3.934770692,0.0015,4.38516353,
0.00152,1.011328339,0.00152,4.38516353,
0.00154,1.742188927,0.00154,4.38516353,
0.00156,-0.08496254339,0.00156,4.38516353,
0.00158,-0.8158231317,0.00158,4.019733236,
0.0016,0.2804677508,0.0016,4.750593824,
0.00162,-0.4503928376,0.00162,4.750593824,
0.00164,-1.54668372,0.00164,4.38516353,
0.00166,-3.373835191,0.00166,4.750593824,
0.00168,-3.373835191,0.00168,4.38516353,
0.0017,-3.739265485,0.0017,4.38516353,
0.00172,-4.104695779,0.00172,4.019733236,
0.00174,-3.739265485,0.00174,4.38516353,
0.00176,-3.008404897,0.00176,4.38516353,
0.00178,-3.008404897,0.00178,5.116024118,
0.0018,-1.54668372,0.0018,4.38516353,
0.00182,-4.470126073,0.00182,4.019733236,
0.00184,-3.008404897,0.00184,3.654302942,
0.00186,-4.470126073,0.00186,4.38516353,
0.00188,-2.642974603,0.00188,4.38516353,
0.0019,-2.277544308,0.0019,4.38516353,
0.00192,-2.642974603,0.00192,4.750593824,
0.00194,-2.642974603,0.00194,4.019733236,
0.00196,-0.8158231317,0.00196,4.750593824,
0.00198,-0.8158231317,0.00198,4.38516353,
0.002,-2.277544308,0.002,4.019733236,
0.00202,-0.08496254339,0.00202,4.750593824,
0.00204,0.2804677508,0.00204,4.38516353,
0.00206,0.6458980449,0.00206,4.750593824,
0.00208,1.376758633,0.00208,4.750593824,
0.0021,0.2804677508,0.0021,4.750593824,
0.00212,2.83847981,0.00212,4.38516353,
0.00214,2.107619222,0.00214,4.750593824,
0.00216,1.742188927,0.00216,4.38516353,
0.00218,2.107619222,0.00218,4.019733236,
0.0022,3.934770692,0.0022,4.38516353,
0.00222,1.742188927,0.00222,4.750593824,
0.00224,5.031061575,0.00224,4.38516353,
0.00226,4.300200987,0.00226,4.38516353,
0.00228,2.473049516,0.00228,4.750593824,
0.0023,3.203910104,0.0023,4.750593824,
0.00232,3.203910104,0.00232,4.750593824,
0.00234,3.569340398,0.00234,4.38516353,
0.00236,2.83847981,0.00236,4.38516353,
0.00238,2.83847981,0.00238,4.38516353,
0.0024,3.203910104,0.0024,4.750593824,
0.00242,2.107619222,0.00242,4.38516353,
0.00244,2.107619222,0.00244,4.38516353,
0.00246,0.2804677508,0.00246,4.750593824,
0.00248,0.6458980449,0.00248,4.019733236,
0.0025,-1.54668372,0.0025,4.750593824,
0.00252,-0.4503928376,0.00252,4.750593824,
0.00254,-0.4503928376,0.00254,3.654302942,
0.00256,-1.181253426,0.00256,4.750593824,
0.00258,-1.912114014,0.00258,3.654302942,
0.0026,-2.642974603,0.0026,4.019733236,
0.00262,-3.373835191,0.00262,3.654302942,
0.00264,-2.642974603,0.00264,4.38516353,
0.00266,-2.642974603,0.00266,4.38516353,
0.00268,-3.008404897,0.00268,3.654302942,
0.0027,-3.373835191,0.0027,4.019733236,
0.00272,-3.739265485,0.00272,4.38516353,
0.00274,-3.373835191,0.00274,4.019733236,
0.00276,-3.739265485,0.00276,4.750593824,
0.00278,-4.835556368,0.00278,4.38516353,
0.0028,-2.642974603,0.0028,4.019733236,
0.00282,-2.642974603,0.00282,4.38516353,
0.00284,-2.642974603,0.00284,4.38516353,
0.00286,-2.642974603,0.00286,3.654302942,
0.00288,-1.54668372,0.00288,4.38516353,
0.0029,-0.8158231317,0.0029,4.38516353,
0.00292,-1.54668372,0.00292,3.654302942,
0.00294,-1.181253426,0.00294,4.38516353,
0.00296,0.6458980449,0.00296,4.38516353,
0.00298,-0.8158231317,0.00298,3.654302942,
0.003,1.376758633,0.003,4.019733236,
0.00302,1.742188927,0.00302,4.38516353,
0.00304,1.376758633,0.00304,3.654302942,
0.00306,2.83847981,0.00306,4.750593824,
0.00308,2.83847981,0.00308,4.38516353,
0.0031,2.107619222,0.0031,3.654302942,
0.00312,3.569340398,0.00312,4.38516353,
0.00314,3.203910104,0.00314,4.38516353,
0.00316,2.83847981,0.00316,4.019733236,
0.00318,2.83847981,0.00318,4.019733236,
0.0032,3.934770692,0.0032,4.38516353,
0.00322,2.83847981,0.00322,4.019733236,
0.00324,5.761922163,0.00324,4.38516353,
0.00326,3.569340398,0.00326,4.38516353,
0.00328,4.300200987,0.00328,4.019733236,
0.0033,4.300200987,0.0033,4.38516353,
0.00332,3.569340398,0.00332,4.38516353,
0.00334,3.203910104,0.00334,4.019733236,
0.00336,2.83847981,0.00336,4.019733236,
0.00338,2.107619222,0.00338,4.38516353,
0.0034,0.2804677508,0.0034,3.288872648,
0.00342,0.2804677508,0.00342,4.38516353,
0.00344,0.6458980449,0.00344,4.019733236,
0.00346,1.011328339,0.00346,3.654302942,
0.00348,-1.912114014,0.00348,4.38516353,
0.0035,-0.8158231317,0.0035,4.750593824,
0.00352,-1.912114014,0.00352,4.019733236,
0.00354,-1.181253426,0.00354,4.38516353,
0.00356,-2.277544308,0.00356,4.019733236,
0.00358,-2.642974603,0.00358,4.019733236,
0.0036,-3.739265485,0.0036,4.750593824,
0.00362,-2.642974603,0.00362,4.38516353,
0.00364,-4.470126073,0.00364,4.019733236,
0.00366,-3.739265485,0.00366,4.019733236,
0.00368,-2.642974603,0.00368,4.38516353,
0.0037,-3.739265485,0.0037,4.019733236,
0.00372,-3.373835191,0.00372,4.38516353,
0.00374,-3.373835191,0.00374,4.750593824,
0.00376,-3.008404897,0.00376,4.38516353,
0.00378,-1.912114014,0.00378,4.38516353,
0.0038,-1.912114014,0.0038,4.38516353,
0.00382,-1.54668372,0.00382,4.38516353,
0.00384,-1.54668372,0.00384,4.38516353,
0.00386,0.2804677508,0.00386,4.38516353,
0.00388,-0.8158231317,0.00388,4.38516353,
0.0039,0.6458980449,0.0039,5.846884707,
0.00392,1.011328339,0.00392,4.019733236,
0.00394,-0.08496254339,0.00394,4.019733236,
0.00396,1.376758633,0.00396,4.38516353,
0.00398,2.83847981,0.00398,4.750593824,
0.004,2.107619222,0.004,2.923442353,
0.00402,2.83847981,0.00402,4.38516353,
0.00404,2.473049516,0.00404,4.38516353,
0.00406,3.203910104,0.00406,4.38516353,
0.00408,3.934770692,0.00408,5.116024118,
0.0041,2.83847981,0.0041,4.38516353,
0.00412,3.569340398,0.00412,4.38516353,
0.00414,2.83847981,0.00414,4.750593824,
0.00416,3.934770692,0.00416,4.38516353,
0.00418,2.83847981,0.00418,4.38516353,
0.0042,3.203910104,0.0042,6.577745295,
0.00422,3.569340398,0.00422,4.38516353,
0.00424,2.473049516,0.00424,4.38516353,
0.00426,2.473049516,0.00426,4.750593824,
0.00428,2.107619222,0.00428,4.38516353,
0.0043,1.742188927,0.0043,5.116024118,
0.00432,1.742188927,0.00432,4.750593824,
0.00434,-0.08496254339,0.00434,4.38516353,
0.00436,0.6458980449,0.00436,4.38516353,
0.00438,-0.4503928376,0.00438,4.750593824,
0.0044,0.6458980449,0.0044,3.654302942,
0.00442,-0.8158231317,0.00442,4.750593824,
0.00444,-1.54668372,0.00444,4.750593824,
0.00446,-1.912114014,0.00446,4.38516353,
0.00448,-1.54668372,0.00448,4.38516353,
0.0045,-2.277544308,0.0045,4.750593824,
0.00452,-4.104695779,0.00452,4.019733236,
0.00454,-3.373835191,0.00454,4.38516353,
0.00456,-3.739265485,0.00456,4.750593824,
0.00458,-2.277544308,0.00458,4.750593824,
0.0046,-4.470126073,0.0046,5.481454413,
0.00462,-1.54668372,0.00462,4.38516353,
0.00464,-4.470126073,0.00464,4.38516353,
0.00466,-1.912114014,0.00466,4.019733236,
0.00468,-3.008404897,0.00468,4.38516353,
0.0047,-4.470126073,0.0047,5.116024118,
0.00472,-3.008404897,0.00472,4.38516353,
0.00474,-1.181253426,0.00474,4.750593824,
0.00476,-2.277544308,0.00476,4.750593824,
0.00478,1.376758633,0.00478,4.38516353,
0.0048,-1.181253426,0.0048,4.38516353,
0.00482,-1.181253426,0.00482,4.38516353,
0.00484,1.376758633,0.00484,4.019733236,
0.00486,0.2804677508,0.00486,4.750593824,
0.00488,0.6458980449,0.00488,4.750593824,
0.0049,1.011328339,0.0049,4.38516353,
0.00492,2.83847981,0.00492,4.38516353,
0.00494,1.742188927,0.00494,4.750593824,
0.00496,4.300200987,0.00496,4.38516353,
0.00498,4.300200987,0.00498,4.750593824,
0.005,4.300200987,0.005,5.481454413,
0.00502,2.473049516,0.00502,4.38516353,
0.00504,3.203910104,0.00504,4.38516353,
0.00506,3.569340398,0.00506,4.38516353,
0.00508,3.934770692,0.00508,4.38516353,
0.0051,3.934770692,0.0051,4.019733236,
0.00512,2.473049516,0.00512,4.019733236,
0.00514,3.569340398,0.00514,4.38516353,
0.00516,2.83847981,0.00516,4.750593824,
0.00518,2.107619222,0.00518,4.750593824,
0.0052,2.473049516,0.0052,3.288872648,
0.00522,1.742188927,0.00522,4.38516353,
0.00524,1.376758633,0.00524,4.750593824,
0.00526,1.376758633,0.00526,4.38516353,
0.00528,0.2804677508,0.00528,4.750593824,
0.0053,-1.181253426,0.0053,4.750593824,
0.00532,3.203910104,0.00532,4.019733236,
0.00534,-0.08496254339,0.00534,4.38516353,
0.00536,-1.912114014,0.00536,4.38516353,
0.00538,-1.912114014,0.00538,4.019733236,
0.0054,-1.912114014,0.0054,4.750593824,
0.00542,-1.912114014,0.00542,4.38516353,
0.00544,-2.642974603,0.00544,4.019733236,
0.00546,-3.008404897,0.00546,4.019733236,
0.00548,-3.008404897,0.00548,3.654302942,
0.0055,-3.008404897,0.0055,4.019733236,
0.00552,-2.277544308,0.00552,4.019733236,
0.00554,-4.104695779,0.00554,4.019733236,
0.00556,-3.008404897,0.00556,4.019733236,
0.00558,-2.642974603,0.00558,4.019733236,
0.0056,-5.566416956,0.0056,4.750593824,
0.00562,-3.008404897,0.00562,4.38516353,
0.00564,-2.642974603,0.00564,4.019733236,
0.00566,-0.4503928376,0.00566,5.116024118,
0.00568,-1.54668372,0.00568,4.019733236,
0.0057,-2.642974603,0.0057,4.38516353,
0.00572,-3.008404897,0.00572,4.019733236,
0.00574,0.2804677508,0.00574,4.019733236,
0.00576,0.2804677508,0.00576,3.654302942,
0.00578,0.6458980449,0.00578,4.38516353,
0.0058,1.376758633,0.0058,4.38516353,
0.00582,1.376758633,0.00582,3.654302942,
0.00584,1.742188927,0.00584,4.019733236,
0.00586,3.569340398,0.00586,4.38516353,
0.00588,2.473049516,0.00588,4.019733236,
0.0059,2.107619222,0.0059,4.750593824,
0.00592,5.396491869,0.00592,4.38516353,
0.00594,1.011328339,0.00594,3.654302942,
0.00596,3.934770692,0.00596,4.019733236,
0.00598,3.203910104,0.00598,4.38516353,
0.006,4.300200987,0.006,4.019733236,
0.00602,4.665631281,0.00602,4.019733236,
0.00604,-0.08496254339,0.00604,4.019733236,
0.00606,2.473049516,0.00606,4.019733236,
0.00608,3.569340398,0.00608,4.019733236,
0.0061,3.203910104,0.0061,4.38516353,
0.00612,2.83847981,0.00612,4.019733236,
0.00614,2.83847981,0.00614,3.288872648,
0.00616,1.376758633,0.00616,4.019733236,
0.00618,2.107619222,0.00618,4.019733236,
0.0062,1.376758633,0.0062,4.38516353,
0.00622,0.6458980449,0.00622,4.38516353,
0.00624,0.2804677508,0.00624,4.019733236,
0.00626,0.6458980449,0.00626,4.750593824,
0.00628,-0.8158231317,0.00628,4.38516353,
0.0063,-0.4503928376,0.0063,3.654302942,
0.00632,-2.642974603,0.00632,4.38516353,
0.00634,-2.277544308,0.00634,4.750593824,
0.00636,-1.912114014,0.00636,4.019733236,
0.00638,-1.912114014,0.00638,4.38516353,
0.0064,-2.277544308,0.0064,4.019733236,
0.00642,-5.200986662,0.00642,3.654302942,
0.00644,-3.373835191,0.00644,4.38516353,
0.00646,-3.008404897,0.00646,4.019733236,
0.00648,-2.642974603,0.00648,4.019733236,
0.0065,-3.373835191,0.0065,4.38516353,
0.00652,-4.104695779,0.00652,4.019733236,
0.00654,-4.104695779,0.00654,3.288872648,
0.00656,-1.54668372,0.00656,4.38516353,
0.00658,-2.277544308,0.00658,4.019733236,
0.0066,-2.642974603,0.0066,3.654302942,
0.00662,-0.8158231317,0.00662,4.38516353,
0.00664,-1.181253426,0.00664,4.38516353,
0.00666,-0.8158231317,0.00666,4.019733236,
0.00668,-1.912114014,0.00668,4.38516353,
0.0067,-0.08496254339,0.0067,4.38516353,
0.00672,-0.08496254339,0.00672,3.654302942,
0.00674,0.2804677508,0.00674,4.38516353,
0.00676,2.473049516,0.00676,4.019733236,
0.00678,1.742188927,0.00678,3.654302942,
0.0068,2.107619222,0.0068,4.750593824,
0.00682,3.203910104,0.00682,4.750593824,
0.00684,2.83847981,0.00684,4.019733236,
0.00686,2.83847981,0.00686,4.019733236,
0.00688,3.203910104,0.00688,4.38516353,
0.0069,3.569340398,0.0069,4.019733236,
0.00692,2.473049516,0.00692,4.38516353,
0.00694,4.665631281,0.00694,4.019733236,
0.00696,3.569340398,0.00696,4.750593824,
0.00698,4.300200987,0.00698,4.38516353,
0.007,3.934770692,0.007,4.019733236,
0.00702,2.107619222,0.00702,3.654302942,
0.00704,2.83847981,0.00704,4.019733236,
0.00706,2.107619222,0.00706,4.38516353,
0.00708,0.2804677508,0.00708,4.019733236,
0.0071,1.376758633,0.0071,4.750593824,
0.00712,1.376758633,0.00712,4.38516353,
0.00714,0.2804677508,0.00714,3.654302942,
0.00716,0.2804677508,0.00716,4.019733236,
0.00718,-0.08496254339,0.00718,4.38516353,
0.0072,-0.8158231317,0.0072,3.654302942,
0.00722,-0.8158231317,0.00722,3.654302942,
0.00724,-0.8158231317,0.00724,3.654302942,
0.00726,-0.8158231317,0.00726,4.019733236,
0.00728,-1.912114014,0.00728,4.019733236,
0.0073,-1.912114014,0.0073,4.019733236,
0.00732,-3.373835191,0.00732,3.288872648,
0.00734,-5.200986662,0.00734,4.38516353,
0.00736,-3.373835191,0.00736,4.38516353,
0.00738,-3.373835191,0.00738,4.750593824,
0.0074,-3.008404897,0.0074,4.019733236,
0.00742,-4.104695779,0.00742,5.116024118,
0.00744,-3.373835191,0.00744,4.750593824,
0.00746,-3.739265485,0.00746,4.38516353,
0.00748,-3.373835191,0.00748,4.019733236,
0.0075,-3.008404897,0.0075,4.750593824,
0.00752,-3.008404897,0.00752,4.750593824,
0.00754,-2.277544308,0.00754,4.38516353,
0.00756,-1.54668372,0.00756,4.750593824,
0.00758,-1.912114014,0.00758,4.38516353,
0.0076,-1.181253426,0.0076,4.38516353,
0.00762,-0.4503928376,0.00762,3.654302942,
0.00764,-0.8158231317,0.00764,4.38516353,
0.00766,-1.181253426,0.00766,4.38516353,
0.00768,2.107619222,0.00768,4.750593824,
0.0077,0.6458980449,0.0077,4.019733236,
0.00772,1.376758633,0.00772,5.481454413,
0.00774,2.107619222,0.00774,5.116024118,
0.00776,1.742188927,0.00776,4.019733236,
0.00778,2.107619222,0.00778,4.019733236,
0.0078,4.300200987,0.0078,4.750593824,
0.00782,2.107619222,0.00782,4.750593824,
0.00784,3.203910104,0.00784,4.019733236,
0.00786,6.127352458,0.00786,4.750593824,
0.00788,4.300200987,0.00788,4.019733236,
0.0079,2.473049516,0.0079,4.019733236,
0.00792,4.665631281,0.00792,4.019733236,
0.00794,2.83847981,0.00794,4.019733236,
0.00796,1.742188927,0.00796,4.019733236,
0.00798,3.203910104,0.00798,4.750593824,
0.008,2.107619222,0.008,4.38516353,
0.00802,0.6458980449,0.00802,4.750593824,
0.00804,1.742188927,0.00804,4.38516353,
0.00806,2.473049516,0.00806,4.38516353,
0.00808,1.742188927,0.00808,4.750593824,
0.0081,-0.4503928376,0.0081,4.750593824,
0.00812,-0.08496254339,0.00812,4.750593824,
0.00814,-2.277544308,0.00814,4.019733236,
0.00816,0.2804677508,0.00816,5.116024118,
0.00818,-1.54668372,0.00818,4.38516353,
0.0082,-2.277544308,0.0082,5.116024118,
0.00822,-3.739265485,0.00822,4.019733236,
0.00824,-3.739265485,0.00824,3.654302942,
0.00826,-3.739265485,0.00826,4.38516353,
0.00828,-1.54668372,0.00828,5.116024118,
0.0083,-3.373835191,0.0083,4.38516353,
0.00832,-4.104695779,0.00832,5.116024118,
0.00834,-2.642974603,0.00834,4.750593824,
0.00836,-3.008404897,0.00836,4.38516353,
0.00838,-4.104695779,0.00838,4.019733236,
0.0084,-3.008404897,0.0084,4.750593824,
0.00842,-4.470126073,0.00842,4.38516353,
0.00844,-3.008404897,0.00844,4.019733236,
0.00846,-3.008404897,0.00846,4.750593824,
0.00848,-3.373835191,0.00848,4.38516353,
0.0085,-0.08496254339,0.0085,3.654302942,
0.00852,-1.54668372,0.00852,4.019733236,
0.00854,-0.8158231317,0.00854,4.38516353,
0.00856,-0.08496254339,0.00856,4.38516353,
0.00858,-0.08496254339,0.00858,5.116024118,
0.0086,-0.08496254339,0.0086,4.019733236,
0.00862,1.376758633,0.00862,4.019733236,
0.00864,-0.4503928376,0.00864,4.750593824,
0.00866,1.011328339,0.00866,4.019733236,
0.00868,1.742188927,0.00868,4.019733236,
0.0087,3.203910104,0.0087,4.750593824,
0.00872,2.83847981,0.00872,4.38516353,
0.00874,1.742188927,0.00874,4.019733236,
0.00876,3.203910104,0.00876,4.750593824,
0.00878,1.742188927,0.00878,4.019733236,
0.0088,3.934770692,0.0088,4.38516353,
0.00882,3.934770692,0.00882,4.38516353,
0.00884,4.300200987,0.00884,4.38516353,
0.00886,3.569340398,0.00886,4.750593824,
0.00888,3.569340398,0.00888,4.38516353,
0.0089,2.83847981,0.0089,4.38516353,
0.00892,2.83847981,0.00892,4.019733236,
0.00894,1.011328339,0.00894,4.38516353,
0.00896,1.742188927,0.00896,4.38516353,
0.00898,2.473049516,0.00898,4.38516353,
0.009,1.742188927,0.009,4.38516353,
0.00902,1.742188927,0.00902,4.750593824,
0.00904,2.107619222,0.00904,4.750593824,
0.00906,-0.4503928376,0.00906,4.019733236,
0.00908,-1.181253426,0.00908,4.38516353,
0.0091,-1.181253426,0.0091,4.38516353,
0.00912,-1.54668372,0.00912,3.654302942,
0.00914,-2.277544308,0.00914,4.38516353,
0.00916,-1.912114014,0.00916,4.38516353,
0.00918,-2.642974603,0.00918,4.750593824,
0.0092,-4.104695779,0.0092,4.019733236,
0.00922,-3.008404897,0.00922,3.654302942,
0.00924,-4.835556368,0.00924,4.38516353,
0.00926,-3.373835191,0.00926,4.38516353,
0.00928,-4.104695779,0.00928,4.750593824,
0.0093,-4.104695779,0.0093,4.38516353,
0.00932,-3.373835191,0.00932,4.38516353,
0.00934,-5.200986662,0.00934,4.750593824,
0.00936,-3.373835191,0.00936,4.750593824,
0.00938,-2.277544308,0.00938,4.38516353,
0.0094,-1.54668372,0.0094,4.750593824,
0.00942,-2.277544308,0.00942,4.750593824,
0.00944,-1.181253426,0.00944,4.019733236,
0.00946,-1.54668372,0.00946,4.750593824,
0.00948,-1.181253426,0.00948,4.38516353,
0.0095,0.6458980449,0.0095,4.019733236,
0.00952,-2.277544308,0.00952,4.750593824,
0.00954,-0.8158231317,0.00954,4.38516353,
0.00956,0.2804677508,0.00956,4.019733236,
0.00958,1.011328339,0.00958,4.750593824,
0.0096,1.011328339,0.0096,4.38516353,
0.00962,3.934770692,0.00962,4.38516353,
0.00964,4.300200987,0.00964,5.116024118,
0.00966,2.473049516,0.00966,4.38516353,
0.00968,3.569340398,0.00968,4.38516353,
0.0097,3.569340398,0.0097,4.750593824,
0.00972,3.934770692,0.00972,4.38516353,
0.00974,2.83847981,0.00974,4.019733236,
0.00976,3.203910104,0.00976,4.750593824,
0.00978,3.203910104,0.00978,4.38516353,
0.0098,3.569340398,0.0098,4.38516353,
0.00982,3.934770692,0.00982,4.750593824,
0.00984,1.742188927,0.00984,4.38516353,
0.00986,2.473049516,0.00986,4.38516353,
0.00988,1.742188927,0.00988,4.750593824,
0.0099,1.742188927,0.0099,4.750593824,
0.00992,1.376758633,0.00992,4.38516353,
0.00994,1.011328339,0.00994,4.750593824,
0.00996,-0.4503928376,0.00996,4.750593824,
0.00998,0.2804677508,0.00998,4.019733236,
0.01,-0.4503928376,0.01,4.019733236,
0.01002,-1.912114014,0.01002,4.38516353,
0.01004,-1.54668372,0.01004,4.38516353,
0.01006,-0.4503928376,0.01006,4.38516353,
0.01008,-3.008404897,0.01008,4.38516353,
0.0101,-2.642974603,0.0101,4.019733236,
0.01012,-3.008404897,0.01012,4.750593824,
0.01014,-2.642974603,0.01014,4.750593824,
0.01016,-3.373835191,0.01016,4.750593824,
0.01018,-3.373835191,0.01018,5.116024118,
0.0102,-4.104695779,0.0102,4.750593824,
0.01022,-3.739265485,0.01022,4.019733236,
0.01024,-3.373835191,0.01024,4.750593824,
0.01026,-4.104695779,0.01026,4.38516353,
0.01028,-3.008404897,0.01028,4.38516353,
0.0103,-3.008404897,0.0103,4.750593824,
0.01032,-3.739265485,0.01032,4.38516353,
0.01034,-1.54668372,0.01034,4.019733236,
0.01036,-2.277544308,0.01036,4.38516353,
0.01038,-1.54668372,0.01038,4.750593824,
0.0104,-0.8158231317,0.0104,4.38516353,
0.01042,-0.4503928376,0.01042,4.38516353,
0.01044,-1.181253426,0.01044,4.38516353,
0.01046,0.6458980449,0.01046,4.38516353,
0.01048,2.473049516,0.01048,4.38516353,
0.0105,1.376758633,0.0105,4.38516353,
0.01052,1.742188927,0.01052,4.019733236,
0.01054,2.473049516,0.01054,4.750593824,
0.01056,1.742188927,0.01056,4.38516353,
0.01058,2.83847981,0.01058,4.38516353,
0.0106,3.203910104,0.0106,4.750593824,
0.01062,3.203910104,0.01062,4.38516353,
0.01064,6.127352458,0.01064,4.38516353,
0.01066,2.83847981,0.01066,4.750593824,
0.01068,2.107619222,0.01068,4.38516353,
0.0107,3.934770692,0.0107,4.019733236,
0.01072,3.934770692,0.01072,4.750593824,
0.01074,3.203910104,0.01074,4.38516353,
0.01076,3.569340398,0.01076,3.654302942,
0.01078,3.203910104,0.01078,4.750593824,
0.0108,1.742188927,0.0108,5.116024118,
0.01082,-0.4503928376,0.01082,4.38516353,
0.01084,-0.4503928376,0.01084,5.481454413,
0.01086,1.011328339,0.01086,4.750593824,
0.01088,1.011328339,0.01088,5.481454413,
0.0109,-0.4503928376,0.0109,4.38516353,
0.01092,-0.08496254339,0.01092,4.38516353,
0.01094,-2.277544308,0.01094,4.750593824,
0.01096,-1.181253426,0.01096,4.750593824,
0.01098,-1.54668372,0.01098,4.750593824,
0.011,-1.912114014,0.011,4.38516353,
0.01102,-2.642974603,0.01102,4.750593824,
0.01104,-2.642974603,0.01104,4.019733236,
0.01106,-3.373835191,0.01106,4.019733236,
0.01108,-2.642974603,0.01108,4.38516353,
0.0111,-2.642974603,0.0111,4.750593824,
0.01112,-2.642974603,0.01112,4.019733236,
0.01114,-2.277544308,0.01114,4.750593824,
0.01116,-3.008404897,0.01116,3.654302942,
0.01118,-2.642974603,0.01118,4.38516353,
0.0112,-3.739265485,0.0112,4.019733236,
0.01122,-1.54668372,0.01122,4.38516353,
0.01124,-2.277544308,0.01124,4.750593824,
0.01126,-2.642974603,0.01126,3.654302942,
0.01128,-3.008404897,0.01128,4.38516353,
0.0113,-1.912114014,0.0113,4.38516353,
0.01132,-1.912114014,0.01132,5.116024118,
0.01134,-0.8158231317,0.01134,3.288872648,
0.01136,-0.4503928376,0.01136,4.38516353,
0.01138,0.2804677508,0.01138,3.654302942,
0.0114,2.107619222,0.0114,4.38516353,
0.01142,1.011328339,0.01142,4.019733236,
0.01144,0.6458980449,0.01144,5.846884707,
0.01146,1.376758633,0.01146,4.019733236,
0.01148,2.107619222,0.01148,4.38516353,
0.0115,2.83847981,0.0115,4.019733236,
0.01152,2.83847981,0.01152,4.750593824,
0.01154,3.569340398,0.01154,5.116024118,
0.01156,5.031061575,0.01156,4.019733236,
0.01158,3.569340398,0.01158,4.750593824,
0.0116,5.396491869,0.0116,4.38516353,
0.01162,5.031061575,0.01162,3.654302942,
0.01164,3.569340398,0.01164,3.288872648,
0.01166,3.569340398,0.01166,4.38516353,
0.01168,2.473049516,0.01168,3.654302942,
0.0117,3.569340398,0.0117,4.38516353,
0.01172,2.473049516,0.01172,4.38516353,
0.01174,3.203910104,0.01174,2.558012059,
0.01176,2.473049516,0.01176,4.38516353,
0.01178,1.742188927,0.01178,4.38516353,
0.0118,-0.4503928376,0.0118,3.288872648,
0.01182,-0.08496254339,0.01182,4.38516353,
0.01184,1.011328339,0.01184,4.38516353,
0.01186,-0.08496254339,0.01186,3.654302942,
0.01188,-0.8158231317,0.01188,4.019733236,
0.0119,-0.8158231317,0.0119,4.38516353,
0.01192,-3.008404897,0.01192,3.288872648,
0.01194,-1.912114014,0.01194,5.116024118,
0.01196,-1.912114014,0.01196,4.38516353,
0.01198,-3.008404897,0.01198,4.019733236,
0.012,-2.277544308,0.012,4.019733236,
0.01202,-3.739265485,0.01202,4.38516353,
0.01204,-3.008404897,0.01204,5.116024118,
0.01206,-2.642974603,0.01206,4.38516353,
0.01208,-3.008404897,0.01208,4.019733236,
0.0121,-5.93184725,0.0121,4.019733236,
0.01212,-3.739265485,0.01212,4.38516353,
0.01214,-4.470126073,0.01214,4.38516353,
0.01216,-4.470126073,0.01216,3.654302942,
0.01218,-2.277544308,0.01218,4.750593824,
0.0122,-1.912114014,0.0122,4.38516353,
0.01222,-2.277544308,0.01222,3.654302942,
0.01224,-1.912114014,0.01224,4.750593824,
0.01226,-0.08496254339,0.01226,4.019733236,
0.01228,-0.4503928376,0.01228,3.654302942,
0.0123,0.6458980449,0.0123,4.019733236,
0.01232,-0.08496254339,0.01232,4.019733236,
0.01234,1.011328339,0.01234,4.019733236,
0.01236,0.6458980449,0.01236,4.38516353,
0.01238,2.107619222,0.01238,4.38516353,
0.0124,2.473049516,0.0124,4.019733236,
0.01242,3.934770692,0.01242,4.750593824,
0.01244,3.203910104,0.01244,3.288872648,
0.01246,2.473049516,0.01246,4.019733236,
0.01248,2.83847981,0.01248,4.38516353,
0.0125,2.83847981,0.0125,4.019733236,
0.01252,3.569340398,0.01252,4.019733236,
0.01254,3.569340398,0.01254,4.019733236,
0.01256,3.569340398,0.01256,4.019733236,
0.01258,4.665631281,0.01258,4.019733236,
0.0126,3.934770692,0.0126,4.38516353,
0.01262,5.031061575,0.01262,4.38516353,
0.01264,3.569340398,0.01264,4.750593824,
0.01266,1.742188927,0.01266,4.38516353,
0.01268,2.107619222,0.01268,4.38516353,
0.0127,2.107619222,0.0127,4.019733236,
0.01272,1.742188927,0.01272,4.019733236,
0.01274,1.376758633,0.01274,4.019733236,
0.01276,-0.8158231317,0.01276,3.654302942,
0.01278,-0.4503928376,0.01278,4.38516353,
0.0128,-0.4503928376,0.0128,4.019733236,
0.01282,-0.4503928376,0.01282,3.654302942,
0.01284,-0.4503928376,0.01284,4.019733236,
0.01286,-1.54668372,0.01286,4.38516353,
0.01288,-3.008404897,0.01288,4.38516353,
0.0129,-1.181253426,0.0129,4.38516353,
0.01292,-2.277544308,0.01292,4.750593824,
0.01294,-3.373835191,0.01294,3.654302942,
0.01296,-3.008404897,0.01296,4.38516353,
0.01298,-2.642974603,0.01298,4.38516353,
0.013,-3.739265485,0.013,4.019733236,
0.01302,-2.642974603,0.01302,4.38516353,
0.01304,-4.470126073,0.01304,4.38516353,
0.01306,-2.277544308,0.01306,4.750593824,
0.01308,-3.739265485,0.01308,4.019733236,
0.0131,-2.642974603,0.0131,4.019733236,
0.01312,-3.008404897,0.01312,4.38516353,
0.01314,-3.739265485,0.01314,4.750593824,
0.01316,-1.54668372,0.01316,4.019733236,
0.01318,-2.277544308,0.01318,4.750593824,
0.0132,-1.54668372,0.0132,4.019733236,
0.01322,-1.181253426,0.01322,3.654302942,
0.01324,0.6458980449,0.01324,4.750593824,
0.01326,-0.4503928376,0.01326,4.019733236,
0.01328,-0.4503928376,0.01328,3.654302942,
0.0133,1.742188927,0.0133,4.750593824,
0.01332,0.6458980449,0.01332,4.38516353,
0.01334,2.473049516,0.01334,5.116024118,
0.01336,3.569340398,0.01336,4.38516353,
0.01338,3.203910104,0.01338,4.38516353,
0.0134,2.107619222,0.0134,4.019733236,
0.01342,3.934770692,0.01342,4.750593824,
0.01344,4.300200987,0.01344,4.019733236,
0.01346,4.665631281,0.01346,4.019733236,
0.01348,3.203910104,0.01348,4.750593824,
0.0135,3.203910104,0.0135,4.019733236,
0.01352,3.569340398,0.01352,4.019733236,
0.01354,3.934770692,0.01354,4.38516353,
0.01356,2.473049516,0.01356,4.019733236,
0.01358,2.83847981,0.01358,4.019733236,
0.0136,0.6458980449,0.0136,5.116024118,
0.01362,2.473049516,0.01362,4.38516353,
0.01364,1.011328339,0.01364,4.019733236,
0.01366,1.376758633,0.01366,4.38516353,
0.01368,1.742188927,0.01368,4.38516353,
0.0137,-0.08496254339,0.0137,4.38516353,
0.01372,-0.4503928376,0.01372,4.38516353,
0.01374,-1.181253426,0.01374,4.019733236,
0.01376,-1.54668372,0.01376,4.38516353,
0.01378,-1.54668372,0.01378,4.750593824,
0.0138,-2.277544308,0.0138,4.38516353,
0.01382,-2.642974603,0.01382,4.019733236,
0.01384,-3.739265485,0.01384,5.116024118,
0.01386,-4.104695779,0.01386,4.38516353,
0.01388,-3.373835191,0.01388,4.38516353,
0.0139,-2.642974603,0.0139,5.116024118,
0.01392,-2.277544308,0.01392,4.019733236,
0.01394,-3.739265485,0.01394,4.019733236,
0.01396,-3.373835191,0.01396,4.019733236,
0.01398,-1.181253426,0.01398,4.38516353,
0.014,-3.373835191,0.014,4.38516353,
0.01402,-3.739265485,0.01402,4.38516353,
0.01404,-2.642974603,0.01404,4.38516353,
0.01406,-3.008404897,0.01406,4.38516353,
0.01408,-1.912114014,0.01408,4.38516353,
0.0141,-0.08496254339,0.0141,4.38516353,
0.01412,-0.8158231317,0.01412,4.38516353,
0.01414,1.011328339,0.01414,4.750593824,
0.01416,-0.4503928376,0.01416,4.38516353,
0.01418,1.011328339,0.01418,4.38516353,
0.0142,0.6458980449,0.0142,4.38516353,
0.01422,0.6458980449,0.01422,4.38516353,
0.01424,2.83847981,0.01424,4.019733236,
0.01426,2.473049516,0.01426,4.019733236,
0.01428,2.107619222,0.01428,4.019733236,
0.0143,2.83847981,0.0143,4.750593824,
0.01432,2.83847981,0.01432,4.019733236,
0.01434,2.83847981,0.01434,4.750593824,
0.01436,6.127352458,0.01436,4.38516353,
0.01438,3.569340398,0.01438,4.38516353,
0.0144,4.300200987,0.0144,3.654302942,
0.01442,3.934770692,0.01442,4.019733236,
0.01444,5.761922163,0.01444,4.750593824,
0.01446,3.203910104,0.01446,4.019733236,
0.01448,3.203910104,0.01448,4.019733236,
0.0145,3.203910104,0.0145,3.654302942,
0.01452,3.203910104,0.01452,4.019733236,
0.01454,3.203910104,0.01454,4.38516353,
0.01456,1.742188927,0.01456,4.38516353,
0.01458,1.376758633,0.01458,4.019733236,
0.0146,1.742188927,0.0146,4.38516353,
0.01462,0.6458980449,0.01462,3.288872648,
0.01464,0.2804677508,0.01464,3.288872648,
0.01466,0.2804677508,0.01466,4.019733236,
0.01468,-0.8158231317,0.01468,4.019733236,
0.0147,-2.277544308,0.0147,4.019733236,
0.01472,-1.54668372,0.01472,4.38516353,
0.01474,-2.277544308,0.01474,4.38516353,
0.01476,-2.277544308,0.01476,3.654302942,
0.01478,-5.566416956,0.01478,4.38516353,
0.0148,-2.277544308,0.0148,4.38516353,
0.01482,-3.373835191,0.01482,4.019733236,
0.01484,-3.008404897,0.01484,4.38516353,
0.01486,-3.373835191,0.01486,5.116024118,
0.01488,-3.739265485,0.01488,4.019733236,
0.0149,-1.912114014,0.0149,4.38516353,
0.01492,-2.642974603,0.01492,4.38516353,
0.01494,-3.008404897,0.01494,3.654302942,
0.01496,-2.642974603,0.01496,3.654302942,
0.01498,-3.008404897,0.01498,4.38516353,
0.015,-1.54668372,0.015,4.019733236,
0.01502,-0.08496254339,0.01502,4.38516353,
0.01504,-1.181253426,0.01504,4.019733236,
0.01506,-1.54668372,0.01506,4.750593824,
0.01508,-0.8158231317,0.01508,4.750593824,
0.0151,0.6458980449,0.0151,4.38516353,
0.01512,-3.008404897,0.01512,4.38516353,
0.01514,3.569340398,0.01514,4.38516353,
0.01516,1.376758633,0.01516,5.116024118,
0.01518,0.6458980449,0.01518,4.019733236,
0.0152,3.203910104,0.0152,4.38516353,
0.01522,2.83847981,0.01522,4.019733236,
0.01524,2.83847981,0.01524,4.38516353,
0.01526,3.569340398,0.01526,4.38516353,
0.01528,2.473049516,0.01528,4.38516353,
0.0153,4.300200987,0.0153,4.019733236,
0.01532,4.300200987,0.01532,4.38516353,
0.01534,4.665631281,0.01534,4.38516353,
0.01536,2.83847981,0.01536,3.654302942,
0.01538,3.569340398,0.01538,4.38516353,
0.0154,5.031061575,0.0154,4.750593824,
0.01542,2.83847981,0.01542,4.019733236,
0.01544,1.742188927,0.01544,4.019733236,
0.01546,2.473049516,0.01546,3.288872648,
0.01548,1.742188927,0.01548,4.019733236,
0.0155,2.83847981,0.0155,4.019733236,
0.01552,1.011328339,0.01552,4.750593824,
0.01554,0.6458980449,0.01554,4.019733236,
0.01556,-0.4503928376,0.01556,4.38516353,
0.01558,-1.912114014,0.01558,4.38516353,
0.0156,-0.8158231317,0.0156,4.38516353,
0.01562,-1.181253426,0.01562,4.750593824,
0.01564,-1.54668372,0.01564,4.38516353,
0.01566,-0.4503928376,0.01566,4.750593824,
0.01568,-2.277544308,0.01568,4.750593824,
0.0157,-1.912114014,0.0157,3.288872648,
0.01572,-3.739265485,0.01572,4.019733236,
0.01574,-1.912114014,0.01574,4.750593824,
0.01576,-0.8158231317,0.01576,4.38516353,
0.01578,-3.373835191,0.01578,4.019733236,
0.0158,-2.277544308,0.0158,4.38516353,
0.01582,-2.277544308,0.01582,4.38516353,
0.01584,-3.373835191,0.01584,3.654302942,
0.01586,-2.277544308,0.01586,3.654302942,
0.01588,-4.104695779,0.01588,4.38516353,
0.0159,-0.4503928376,0.0159,5.116024118,
0.01592,-2.277544308,0.01592,4.38516353,
0.01594,-0.08496254339,0.01594,4.750593824,
0.01596,-1.54668372,0.01596,5.481454413,
0.01598,-1.54668372,0.01598,4.38516353,
0.016,-0.8158231317,0.016,4.019733236,
0.01602,1.742188927,0.01602,4.750593824,
0.01604,-0.4503928376,0.01604,4.38516353,
0.01606,-0.4503928376,0.01606,4.38516353,
0.01608,1.742188927,0.01608,4.750593824,
0.0161,2.473049516,0.0161,4.38516353,
0.01612,1.742188927,0.01612,4.38516353,
0.01614,2.83847981,0.01614,4.750593824,
0.01616,2.83847981,0.01616,4.019733236,
0.01618,0.6458980449,0.01618,4.38516353,
0.0162,5.031061575,0.0162,4.750593824,
0.01622,2.83847981,0.01622,4.38516353,
0.01624,2.83847981,0.01624,4.38516353,
0.01626,3.934770692,0.01626,5.481454413,
0.01628,2.473049516,0.01628,4.38516353,
0.0163,3.203910104,0.0163,3.654302942,
0.01632,3.569340398,0.01632,4.750593824,
0.01634,3.203910104,0.01634,4.38516353,
0.01636,1.011328339,0.01636,4.750593824,
0.01638,4.665631281,0.01638,4.750593824,
0.0164,2.107619222,0.0164,4.38516353,
0.01642,1.376758633,0.01642,4.38516353,
0.01644,1.011328339,0.01644,4.750593824,
0.01646,0.2804677508,0.01646,3.654302942,
0.01648,3.569340398,0.01648,4.019733236,
0.0165,-1.181253426,0.0165,4.38516353,
0.01652,-0.8158231317,0.01652,4.019733236,
0.01654,-2.277544308,0.01654,4.019733236,
0.01656,-2.277544308,0.01656,4.750593824,
0.01658,-3.008404897,0.01658,4.019733236,
0.0166,-3.373835191,0.0166,4.019733236,
0.01662,-2.642974603,0.01662,4.750593824,
0.01664,-4.470126073,0.01664,4.38516353,
0.01666,-3.008404897,0.01666,4.019733236,
0.01668,-3.373835191,0.01668,4.38516353,
0.0167,-3.373835191,0.0167,4.38516353,
0.01672,-3.739265485,0.01672,4.019733236,
0.01674,-2.277544308,0.01674,4.750593824,
0.01676,-4.470126073,0.01676,4.019733236,
0.01678,-4.470126073,0.01678,4.019733236,
0.0168,-3.373835191,0.0168,5.116024118,
0.01682,-3.739265485,0.01682,4.019733236,
0.01684,-2.642974603,0.01684,3.654302942,
0.01686,-1.912114014,0.01686,4.750593824,
0.01688,-0.4503928376,0.01688,4.019733236,
0.0169,-0.08496254339,0.0169,4.38516353,
0.01692,-0.4503928376,0.01692,4.750593824,
0.01694,-1.912114014,0.01694,4.38516353,
0.01696,-0.08496254339,0.01696,4.019733236,
0.01698,-0.4503928376,0.01698,4.750593824,
0.017,0.2804677508,0.017,4.750593824,
0.01702,-0.4503928376,0.01702,4.38516353,
0.01704,1.011328339,0.01704,4.750593824,
0.01706,2.473049516,0.01706,4.38516353,
0.01708,2.473049516,0.01708,4.38516353,
0.0171,3.203910104,0.0171,5.116024118,
0.01712,2.83847981,0.01712,4.38516353,
0.01714,2.473049516,0.01714,3.654302942,
0.01716,3.934770692,0.01716,4.38516353,
0.01718,4.665631281,0.01718,5.116024118,
0.0172,3.569340398,0.0172,3.654302942,
0.01722,3.203910104,0.01722,4.750593824,
0.01724,2.473049516,0.01724,4.019733236,
0.01726,3.569340398,0.01726,3.654302942,
0.01728,5.396491869,0.01728,4.750593824,
0.0173,2.473049516,0.0173,4.750593824,
0.01732,2.473049516,0.01732,4.019733236,
0.01734,2.107619222,0.01734,4.750593824,
0.01736,5.031061575,0.01736,4.38516353,
0.01738,0.6458980449,0.01738,4.38516353,
0.0174,2.473049516,0.0174,5.116024118,
0.01742,-0.08496254339,0.01742,4.019733236,
0.01744,-0.4503928376,0.01744,4.019733236,
0.01746,-0.08496254339,0.01746,5.116024118,
0.01748,-3.008404897,0.01748,4.38516353,
0.0175,-2.277544308,0.0175,4.38516353,
0.01752,-2.277544308,0.01752,4.750593824,
0.01754,-1.181253426,0.01754,4.019733236,
0.01756,-3.008404897,0.01756,4.38516353,
0.01758,-3.373835191,0.01758,4.38516353,
0.0176,-3.739265485,0.0176,4.019733236,
0.01762,-0.8158231317,0.01762,4.019733236,
0.01764,-3.373835191,0.01764,4.38516353,
0.01766,-4.104695779,0.01766,4.38516353,
0.01768,-4.104695779,0.01768,4.019733236,
0.0177,-2.642974603,0.0177,4.38516353,
0.01772,-3.373835191,0.01772,4.38516353,
0.01774,-3.008404897,0.01774,4.38516353,
0.01776,-2.642974603,0.01776,4.750593824,
0.01778,-3.008404897,0.01778,4.019733236,
0.0178,-1.54668372,0.0178,4.019733236,
0.01782,-0.08496254339,0.01782,4.750593824,
0.01784,-1.181253426,0.01784,4.38516353,
0.01786,-1.54668372,0.01786,5.116024118,
0.01788,-3.008404897,0.01788,4.019733236,
0.0179,0.2804677508,0.0179,4.38516353,
0.01792,0.6458980449,0.01792,4.750593824,
0.01794,-1.54668372,0.01794,4.38516353,
0.01796,1.742188927,0.01796,4.019733236,
0.01798,2.83847981,0.01798,4.750593824,
0.018,1.376758633,0.018,4.38516353,
0.01802,3.203910104,0.01802,4.38516353,
0.01804,2.83847981,0.01804,4.38516353,
0.01806,2.83847981,0.01806,4.38516353,
0.01808,5.031061575,0.01808,4.38516353,
0.0181,3.934770692,0.0181,4.750593824,
0.01812,2.473049516,0.01812,4.750593824,
0.01814,3.934770692,0.01814,4.38516353,
0.01816,3.569340398,0.01816,4.750593824,
0.01818,3.569340398,0.01818,4.750593824,
0.0182,2.83847981,0.0182,4.38516353,
0.01822,3.569340398,0.01822,5.116024118,
0.01824,2.107619222,0.01824,4.38516353,
0.01826,2.107619222,0.01826,4.019733236,
0.01828,2.107619222,0.01828,4.750593824,
0.0183,1.011328339,0.0183,4.750593824,
0.01832,0.6458980449,0.01832,4.019733236,
0.01834,0.6458980449,0.01834,4.38516353,
0.01836,0.2804677508,0.01836,4.38516353,
0.01838,-1.181253426,0.01838,4.750593824,
0.0184,-0.08496254339,0.0184,5.116024118,
0.01842,-1.912114014,0.01842,4.38516353,
0.01844,-0.4503928376,0.01844,4.750593824,
0.01846,-2.277544308,0.01846,5.481454413,
0.01848,-3.008404897,0.01848,3.654302942,
0.0185,-3.008404897,0.0185,4.019733236,
0.01852,-3.008404897,0.01852,4.750593824,
0.01854,-1.912114014,0.01854,4.750593824,
0.01856,-3.008404897,0.01856,4.019733236,
0.01858,-5.566416956,0.01858,4.38516353,
0.0186,-5.200986662,0.0186,4.750593824,
0.01862,-3.373835191,0.01862,4.38516353,
0.01864,-3.008404897,0.01864,4.750593824,
0.01866,-1.181253426,0.01866,4.750593824,
0.01868,-2.277544308,0.01868,4.38516353,
0.0187,-2.277544308,0.0187,4.750593824,
0.01872,-3.008404897,0.01872,4.750593824,
0.01874,-1.912114014,0.01874,4.38516353,
0.01876,-1.54668372,0.01876,5.116024118,
0.01878,-0.4503928376,0.01878,4.019733236,
0.0188,-1.912114014,0.0188,4.019733236,
0.01882,-1.54668372,0.01882,4.750593824,
0.01884,-0.4503928376,0.01884,4.750593824,
0.01886,0.6458980449,0.01886,4.38516353,
0.01888,0.6458980449,0.01888,6.577745295,
0.0189,3.203910104,0.0189,4.750593824,
0.01892,2.107619222,0.01892,4.38516353,
0.01894,3.203910104,0.01894,4.750593824,
0.01896,2.107619222,0.01896,4.019733236,
0.01898,4.300200987,0.01898,2.558012059,
0.019,3.934770692,0.019,4.38516353,
0.01902,2.107619222,0.01902,4.38516353,
0.01904,4.665631281,0.01904,4.38516353,
0.01906,4.300200987,0.01906,4.019733236,
0.01908,3.569340398,0.01908,5.481454413,
0.0191,2.83847981,0.0191,4.750593824,
0.01912,3.934770692,0.01912,4.750593824,
0.01914,3.569340398,0.01914,4.019733236,
0.01916,5.031061575,0.01916,4.38516353,
0.01918,1.742188927,0.01918,5.481454413,
0.0192,-0.08496254339,0.0192,4.38516353,
0.01922,2.473049516,0.01922,4.38516353,
0.01924,-0.4503928376,0.01924,4.750593824,
0.01926,-0.08496254339,0.01926,4.38516353,
0.01928,2.107619222,0.01928,3.654302942,
0.0193,0.2804677508,0.0193,4.019733236,
0.01932,-0.08496254339,0.01932,4.38516353,
0.01934,1.376758633,0.01934,4.750593824,
0.01936,-1.912114014,0.01936,4.750593824,
0.01938,-1.912114014,0.01938,4.750593824,
0.0194,-1.54668372,0.0194,4.38516353,
0.01942,-2.277544308,0.01942,4.38516353,
0.01944,-2.642974603,0.01944,4.019733236,
0.01946,-4.104695779,0.01946,4.38516353,
0.01948,-2.642974603,0.01948,5.846884707,
0.0195,-4.470126073,0.0195,4.38516353,
0.01952,-5.566416956,0.01952,4.38516353,
0.01954,-3.739265485,0.01954,4.38516353,
0.01956,-2.642974603,0.01956,5.116024118,
0.01958,-3.373835191,0.01958,5.116024118,
0.0196,-4.470126073,0.0196,4.38516353,
0.01962,-3.739265485,0.01962,4.750593824,
0.01964,-2.642974603,0.01964,4.750593824,
0.01966,-1.54668372,0.01966,4.019733236,
0.01968,-1.54668372,0.01968,3.288872648,
0.0197,-1.181253426,0.0197,4.019733236,
0.01972,-0.8158231317,0.01972,3.654302942,
0.01974,-0.08496254339,0.01974,4.019733236,
0.01976,-0.4503928376,0.01976,4.019733236,
0.01978,-0.08496254339,0.01978,4.019733236,
0.0198,1.011328339,0.0198,4.019733236,
0.01982,1.742188927,0.01982,4.019733236,
0.01984,3.934770692,0.01984,4.38516353,
0.01986,2.83847981,0.01986,4.019733236,
0.01988,2.473049516,0.01988,4.019733236,
0.0199,3.569340398,0.0199,4.38516353,
0.01992,4.300200987,0.01992,4.38516353,
0.01994,3.569340398,0.01994,4.019733236,
0.01996,3.203910104,0.01996,4.019733236,
0.01998,3.934770692,0.01998,3.654302942,
0.02,3.203910104,0.02,4.019733236,
0.02002,4.665631281,0.02002,4.38516353,
0.02004,3.934770692,0.02004,4.750593824,
0.02006,3.203910104,0.02006,4.019733236,
0.02008,2.473049516,0.02008,4.019733236,
0.0201,4.665631281,0.0201,4.38516353,
0.02012,2.107619222,0.02012,4.019733236,
0.02014,2.83847981,0.02014,4.38516353,
0.02016,1.011328339,0.02016,4.019733236,
0.02018,1.011328339,0.02018,3.654302942,
0.0202,2.473049516,0.0202,4.38516353,
0.02022,0.6458980449,0.02022,4.38516353,
0.02024,-1.181253426,0.02024,3.654302942,
0.02026,-0.08496254339,0.02026,4.019733236,
0.02028,-1.54668372,0.02028,4.019733236,
0.0203,-1.181253426,0.0203,3.654302942,
0.02032,-1.181253426,0.02032,4.38516353,
0.02034,-1.181253426,0.02034,4.750593824,
0.02036,-2.642974603,0.02036,4.019733236,
0.02038,-2.277544308,0.02038,4.38516353,
0.0204,-1.181253426,0.0204,4.019733236,
0.02042,-4.470126073,0.02042,3.288872648,
0.02044,-2.277544308,0.02044,4.019733236,
0.02046,-4.835556368,0.02046,4.38516353,
0.02048,-3.008404897,0.02048,4.019733236,
0.0205,-3.008404897,0.0205,4.019733236,
0.02052,-2.642974603,0.02052,4.019733236,
0.02054,-3.739265485,0.02054,3.654302942,
0.02056,-3.373835191,0.02056,4.38516353,
0.02058,-2.277544308,0.02058,4.019733236,
0.0206,-1.912114014,0.0206,4.019733236,
0.02062,-2.277544308,0.02062,4.019733236,
0.02064,-1.181253426,0.02064,4.019733236,
0.02066,-2.277544308,0.02066,4.019733236,
0.02068,0.6458980449,0.02068,4.019733236,
0.0207,0.2804677508,0.0207,4.38516353,
0.02072,0.6458980449,0.02072,4.019733236,
0.02074,0.6458980449,0.02074,3.654302942,
0.02076,2.107619222,0.02076,4.38516353,
0.02078,1.376758633,0.02078,4.019733236,
0.0208,3.203910104,0.0208,4.38516353,
0.02082,3.569340398,0.02082,4.019733236,
0.02084,2.107619222,0.02084,4.019733236,
0.02086,3.934770692,0.02086,4.019733236,
0.02088,4.300200987,0.02088,5.116024118,
0.0209,4.665631281,0.0209,4.019733236,
0.02092,4.300200987,0.02092,4.019733236,
0.02094,3.569340398,0.02094,4.019733236,
0.02096,6.127352458,0.02096,4.019733236,
0.02098,3.934770692,0.02098,4.38516353,
0.021,2.473049516,0.021,4.750593824,
0.02102,2.83847981,0.02102,4.019733236,
0.02104,2.83847981,0.02104,4.019733236,
0.02106,2.107619222,0.02106,4.019733236,
0.02108,1.011328339,0.02108,4.019733236,
0.0211,2.107619222,0.0211,4.019733236,
0.02112,0.2804677508,0.02112,4.38516353,
0.02114,1.376758633,0.02114,4.019733236,
0.02116,0.6458980449,0.02116,4.019733236,
0.02118,-0.08496254339,0.02118,4.019733236,
0.0212,-1.181253426,0.0212,4.019733236,
0.02122,0.6458980449,0.02122,4.38516353,
0.02124,-1.54668372,0.02124,4.38516353,
0.02126,-2.642974603,0.02126,3.654302942,
0.02128,-1.912114014,0.02128,4.38516353,
0.0213,-1.912114014,0.0213,4.019733236,
0.02132,-3.008404897,0.02132,4.019733236,
0.02134,-3.373835191,0.02134,4.38516353,
0.02136,-3.008404897,0.02136,4.38516353,
0.02138,-1.181253426,0.02138,3.654302942,
0.0214,-3.008404897,0.0214,4.019733236,
0.02142,-2.642974603,0.02142,4.38516353,
0.02144,-4.470126073,0.02144,4.019733236,
0.02146,-2.642974603,0.02146,4.38516353,
0.02148,-2.642974603,0.02148,3.654302942,
0.0215,-2.277544308,0.0215,4.019733236,
0.02152,-2.642974603,0.02152,4.38516353,
0.02154,-4.104695779,0.02154,4.38516353,
0.02156,-2.642974603,0.02156,4.019733236,
0.02158,-0.4503928376,0.02158,4.019733236,
0.0216,-0.4503928376,0.0216,4.019733236,
0.02162,-1.181253426,0.02162,4.38516353,
0.02164,1.011328339,0.02164,4.38516353,
0.02166,0.2804677508,0.02166,4.019733236,
0.02168,0.6458980449,0.02168,3.654302942,
0.0217,1.742188927,0.0217,5.116024118,
0.02172,1.376758633,0.02172,4.019733236,
0.02174,2.107619222,0.02174,4.38516353,
0.02176,3.203910104,0.02176,4.750593824,
0.02178,3.203910104,0.02178,4.750593824,
0.0218,3.203910104,0.0218,4.019733236,
0.02182,2.473049516,0.02182,4.38516353,
0.02184,3.203910104,0.02184,4.38516353,
0.02186,3.203910104,0.02186,4.38516353,
0.02188,5.031061575,0.02188,5.116024118,
0.0219,2.83847981,0.0219,4.750593824,
0.02192,3.569340398,0.02192,4.019733236,
0.02194,3.203910104,0.02194,5.116024118,
0.02196,2.473049516,0.02196,4.38516353,
0.02198,3.203910104,0.02198,4.38516353,
0.022,1.376758633,0.022,4.750593824,
0.02202,1.742188927,0.02202,4.38516353,
0.02204,0.6458980449,0.02204,4.019733236,
0.02206,2.473049516,0.02206,5.116024118,
0.02208,-0.08496254339,0.02208,4.38516353,
0.0221,1.376758633,0.0221,4.019733236,
0.02212,-0.4503928376,0.02212,4.38516353,
0.02214,-1.54668372,0.02214,4.019733236,
0.02216,-1.54668372,0.02216,4.38516353,
0.02218,-2.277544308,0.02218,5.116024118,
0.0222,-2.277544308,0.0222,4.019733236,
0.02222,-3.373835191,0.02222,4.38516353,
0.02224,-3.008404897,0.02224,5.116024118,
0.02226,-4.470126073,0.02226,4.38516353,
0.02228,-3.373835191,0.02228,4.019733236,
0.0223,-4.470126073,0.0223,5.116024118,
0.02232,-4.104695779,0.02232,4.750593824,
0.02234,-3.008404897,0.02234,4.38516353,
0.02236,-3.373835191,0.02236,4.750593824,
0.02238,-3.008404897,0.02238,4.750593824,
0.0224,-4.835556368,0.0224,4.750593824,
0.02242,-3.008404897,0.02242,4.750593824,
0.02244,-3.373835191,0.02244,4.38516353,
0.02246,-3.739265485,0.02246,4.38516353,
0.02248,-2.277544308,0.02248,5.116024118,
0.0225,-2.642974603,0.0225,4.750593824,
0.02252,-1.181253426,0.02252,4.019733236,
0.02254,-1.181253426,0.02254,5.116024118,
0.02256,0.2804677508,0.02256,4.38516353,
0.02258,0.6458980449,0.02258,4.38516353,
0.0226,0.2804677508,0.0226,4.750593824,
0.02262,1.011328339,0.02262,4.38516353,
0.02264,1.376758633,0.02264,4.019733236,
0.02266,2.107619222,0.02266,5.116024118,
0.02268,2.473049516,0.02268,4.38516353,
0.0227,2.473049516,0.0227,3.654302942,
0.02272,2.473049516,0.02272,4.750593824,
0.02274,3.203910104,0.02274,4.38516353,
0.02276,3.203910104,0.02276,4.019733236,
0.02278,1.742188927,0.02278,4.750593824,
0.0228,2.83847981,0.0228,3.654302942,
0.02282,2.83847981,0.02282,5.116024118,
0.02284,2.107619222,0.02284,4.750593824,
0.02286,3.203910104,0.02286,4.019733236,
0.02288,2.107619222,0.02288,4.019733236,
0.0229,3.203910104,0.0229,4.019733236,
0.02292,2.107619222,0.02292,4.019733236,
0.02294,2.107619222,0.02294,3.654302942,
0.02296,0.6458980449,0.02296,4.750593824,
0.02298,-0.4503928376,0.02298,4.38516353,
0.023,0.6458980449,0.023,4.019733236,
0.02302,-0.08496254339,0.02302,4.750593824,
0.02304,-0.4503928376,0.02304,4.019733236,
0.02306,-0.8158231317,0.02306,4.750593824,
0.02308,-0.8158231317,0.02308,4.38516353,
0.0231,-1.181253426,0.0231,5.116024118,
0.02312,-1.912114014,0.02312,4.019733236,
0.02314,-2.642974603,0.02314,5.116024118,
0.02316,-1.912114014,0.02316,4.750593824,
0.02318,-2.642974603,0.02318,4.019733236,
0.0232,-4.104695779,0.0232,5.481454413,
0.02322,-4.470126073,0.02322,4.750593824,
0.02324,-3.739265485,0.02324,4.38516353,
0.02326,-3.373835191,0.02326,5.116024118,
0.02328,-3.373835191,0.02328,4.750593824,
0.0233,-3.739265485,0.0233,2.923442353,
0.02332,-4.470126073,0.02332,4.750593824,
0.02334,-4.470126073,0.02334,4.38516353,
0.02336,-3.739265485,0.02336,4.019733236,
0.02338,-3.008404897,0.02338,4.750593824,
0.0234,-2.277544308,0.0234,3.654302942,
0.02342,-2.642974603,0.02342,4.38516353,
0.02344,-2.277544308,0.02344,4.750593824,
0.02346,-0.8158231317,0.02346,4.38516353,
0.02348,-1.54668372,0.02348,4.019733236,
0.0235,-0.8158231317,0.0235,5.481454413,
0.02352,1.011328339,0.02352,4.750593824,
0.02354,1.011328339,0.02354,4.38516353,
0.02356,1.011328339,0.02356,4.38516353,
0.02358,2.107619222,0.02358,5.481454413,
0.0236,2.107619222,0.0236,4.38516353,
0.02362,1.742188927,0.02362,5.116024118,
0.02364,3.203910104,0.02364,4.019733236,
0.02366,3.569340398,0.02366,4.750593824,
0.02368,1.742188927,0.02368,4.38516353,
0.0237,4.300200987,0.0237,4.019733236,
0.02372,3.203910104,0.02372,4.750593824,
0.02374,2.83847981,0.02374,4.750593824,
0.02376,4.300200987,0.02376,4.38516353,
0.02378,3.934770692,0.02378,4.38516353,
0.0238,3.203910104,0.0238,5.481454413,
0.02382,3.569340398,0.02382,4.38516353,
0.02384,3.569340398,0.02384,4.750593824,
0.02386,2.107619222,0.02386,4.38516353,
0.02388,1.742188927,0.02388,4.38516353,
0.0239,1.376758633,0.0239,4.750593824,
0.02392,1.742188927,0.02392,4.38516353,
0.02394,0.6458980449,0.02394,4.38516353,
0.02396,-0.4503928376,0.02396,4.38516353,
0.02398,0.2804677508,0.02398,4.750593824,
0.024,-0.8158231317,0.024,3.654302942,
0.02402,-5.200986662,0.02402,4.38516353,
0.02404,-2.277544308,0.02404,4.38516353,
0.02406,-3.373835191,0.02406,4.38516353,
0.02408,-1.912114014,0.02408,4.750593824,
0.0241,-3.008404897,0.0241,4.750593824,
0.02412,-5.566416956,0.02412,4.38516353,
0.02414,-3.008404897,0.02414,4.38516353,
0.02416,-2.642974603,0.02416,4.750593824,
0.02418,-2.642974603,0.02418,4.38516353,
0.0242,-3.373835191,0.0242,5.116024118,
0.02422,-3.739265485,0.02422,4.38516353,
0.02424,-3.373835191,0.02424,4.750593824,
0.02426,-3.008404897,0.02426,4.019733236,
0.02428,-3.739265485,0.02428,4.019733236,
0.0243,-3.008404897,0.0243,4.750593824,
0.02432,-0.08496254339,0.02432,4.38516353,
0.02434,-1.912114014,0.02434,4.019733236,
0.02436,-1.912114014,0.02436,4.38516353,
0.02438,-1.54668372,0.02438,4.019733236,
0.0244,-0.08496254339,0.0244,3.654302942,
0.02442,1.742188927,0.02442,4.019733236,
0.02444,-0.4503928376,0.02444,4.750593824,
0.02446,-0.8158231317,0.02446,4.38516353,
0.02448,0.2804677508,0.02448,4.38516353,
0.0245,2.107619222,0.0245,3.654302942,
0.02452,2.473049516,0.02452,4.750593824,
0.02454,4.665631281,0.02454,4.750593824,
0.02456,2.83847981,0.02456,4.38516353,
0.02458,2.473049516,0.02458,4.750593824,
0.0246,2.107619222,0.0246,4.38516353,
0.02462,2.107619222,0.02462,4.38516353,
0.02464,2.83847981,0.02464,4.38516353,
0.02466,3.203910104,0.02466,4.750593824,
0.02468,4.300200987,0.02468,4.019733236,
0.0247,5.031061575,0.0247,5.116024118,
0.02472,3.569340398,0.02472,4.750593824,
0.02474,3.569340398,0.02474,4.38516353,
0.02476,3.203910104,0.02476,4.750593824,
0.02478,1.376758633,0.02478,4.38516353,
0.0248,2.473049516,0.0248,4.38516353,
0.02482,2.83847981,0.02482,4.750593824,
0.02484,-0.8158231317,0.02484,4.38516353,
0.02486,1.011328339,0.02486,4.38516353,
0.02488,1.011328339,0.02488,3.654302942,
0.0249,0.2804677508,0.0249,4.38516353,
0.02492,-0.4503928376,0.02492,4.019733236,
0.02494,-1.181253426,0.02494,4.750593824,
0.02496,-2.642974603,0.02496,4.750593824,
0.02498,-1.912114014,0.02498,4.019733236,
0.025,-1.54668372,0.025,4.38516353,
0.02502,-3.373835191,0.02502,4.750593824,
0.02504,-2.277544308,0.02504,4.019733236,
0.02506,-3.008404897,0.02506,4.38516353,
0.02508,-3.739265485,0.02508,4.38516353,
0.0251,-2.642974603,0.0251,4.019733236,
0.02512,-3.373835191,0.02512,4.38516353,
0.02514,-3.739265485,0.02514,4.750593824,
0.02516,-3.373835191,0.02516,4.38516353,
0.02518,-3.008404897,0.02518,4.38516353,
0.0252,-3.373835191,0.0252,4.750593824,
0.02522,-2.277544308,0.02522,4.019733236,
0.02524,-2.642974603,0.02524,3.654302942,
0.02526,-3.008404897,0.02526,4.38516353,
0.02528,-4.104695779,0.02528,4.38516353,
0.0253,-0.8158231317,0.0253,4.38516353,
0.02532,-1.181253426,0.02532,4.38516353,
0.02534,-2.642974603,0.02534,4.019733236,
0.02536,1.011328339,0.02536,4.750593824,
0.02538,1.011328339,0.02538,4.750593824,
0.0254,0.2804677508,0.0254,4.38516353,
0.02542,-0.4503928376,0.02542,4.750593824,
0.02544,1.376758633,0.02544,4.38516353,
0.02546,2.107619222,0.02546,4.38516353,
0.02548,2.107619222,0.02548,4.019733236,
0.0255,2.473049516,0.0255,4.019733236,
0.02552,3.569340398,0.02552,4.38516353,
0.02554,3.569340398,0.02554,4.38516353,
0.02556,4.300200987,0.02556,3.654302942,
0.02558,4.665631281,0.02558,4.38516353,
0.0256,3.934770692,0.0256,4.38516353,
0.02562,5.031061575,0.02562,4.38516353,
0.02564,5.396491869,0.02564,4.38516353,
0.02566,4.300200987,0.02566,4.38516353,
0.02568,3.203910104,0.02568,4.019733236,
0.0257,2.83847981,0.0257,4.019733236,
0.02572,4.300200987,0.02572,4.38516353,
0.02574,1.376758633,0.02574,4.019733236,
0.02576,1.376758633,0.02576,4.38516353,
0.02578,1.011328339,0.02578,4.38516353,
0.0258,0.2804677508,0.0258,3.654302942,
0.02582,1.011328339,0.02582,4.750593824,
0.02584,-0.08496254339,0.02584,4.38516353,
0.02586,-1.181253426,0.02586,4.750593824,
0.02588,-1.181253426,0.02588,4.38516353,
0.0259,-0.8158231317,0.0259,4.38516353,
0.02592,-3.373835191,0.02592,4.019733236,
0.02594,-3.373835191,0.02594,4.750593824,
0.02596,-1.912114014,0.02596,3.654302942,
0.02598,-3.008404897,0.02598,4.750593824,
0.026,-3.373835191,0.026,3.654302942,
0.02602,-5.566416956,0.02602,4.019733236,
0.02604,-4.104695779,0.02604,4.38516353,
0.02606,-3.373835191,0.02606,4.38516353,
0.02608,-3.008404897,0.02608,4.38516353,
0.0261,-3.739265485,0.0261,4.019733236,
0.02612,-1.912114014,0.02612,4.019733236,
0.02614,-3.008404897,0.02614,4.38516353,
0.02616,-3.373835191,0.02616,3.654302942,
0.02618,-3.739265485,0.02618,4.38516353,
0.0262,-1.54668372,0.0262,4.38516353,
0.02622,-0.4503928376,0.02622,4.019733236,
0.02624,-2.277544308,0.02624,4.019733236,
0.02626,-1.181253426,0.02626,4.38516353,
0.02628,-1.181253426,0.02628,3.654302942,
0.0263,0.2804677508,0.0263,4.38516353,
0.02632,1.742188927,0.02632,4.38516353,
0.02634,0.2804677508,0.02634,3.654302942,
0.02636,2.107619222,0.02636,4.38516353,
0.02638,2.473049516,0.02638,5.116024118,
0.0264,2.107619222,0.0264,3.654302942,
0.02642,2.107619222,0.02642,4.38516353,
0.02644,5.031061575,0.02644,4.38516353,
0.02646,2.83847981,0.02646,4.019733236,
0.02648,3.203910104,0.02648,4.750593824,
0.0265,3.934770692,0.0265,4.750593824,
0.02652,1.742188927,0.02652,4.019733236,
0.02654,3.569340398,0.02654,4.38516353,
0.02656,4.300200987,0.02656,4.38516353,
0.02658,4.300200987,0.02658,4.019733236,
0.0266,3.934770692,0.0266,4.750593824,
0.02662,2.83847981,0.02662,4.750593824,
0.02664,1.742188927,0.02664,4.019733236,
0.02666,2.83847981,0.02666,4.38516353,
0.02668,1.742188927,0.02668,4.38516353,
0.0267,1.376758633,0.0267,3.654302942,
0.02672,2.83847981,0.02672,4.38516353,
0.02674,0.6458980449,0.02674,4.38516353,
0.02676,-1.54668372,0.02676,3.654302942,
0.02678,-0.4503928376,0.02678,4.38516353,
0.0268,-0.4503928376,0.0268,4.38516353,
0.02682,-1.181253426,0.02682,4.019733236,
0.02684,-0.8158231317,0.02684,4.38516353,
0.02686,-1.912114014,0.02686,4.38516353,
0.02688,-4.835556368,0.02688,3.654302942,
0.0269,-2.642974603,0.0269,4.38516353,
0.02692,-2.277544308,0.02692,4.38516353,
0.02694,-3.373835191,0.02694,3.654302942,
0.02696,-1.912114014,0.02696,4.38516353,
0.02698,-5.566416956,0.02698,4.38516353,
0.027,-3.008404897,0.027,4.019733236,
0.02702,-4.835556368,0.02702,4.750593824,
0.02704,-3.008404897,0.02704,4.38516353,
0.02706,-3.373835191,0.02706,4.019733236,
0.02708,-3.008404897,0.02708,4.38516353,
0.0271,-2.642974603,0.0271,4.38516353,
0.02712,-5.200986662,0.02712,4.019733236,
0.02714,-2.277544308,0.02714,4.750593824,
0.02716,-1.181253426,0.02716,4.019733236,
0.02718,-2.277544308,0.02718,3.654302942,
0.0272,-0.4503928376,0.0272,4.38516353,
0.02722,-0.8158231317,0.02722,3.654302942,
0.02724,-0.4503928376,0.02724,3.654302942,
0.02726,0.6458980449,0.02726,4.38516353,
0.02728,2.473049516,0.02728,4.38516353,
0.0273,2.107619222,0.0273,3.654302942,
0.02732,2.473049516,0.02732,4.019733236,
0.02734,1.742188927,0.02734,4.019733236,
0.02736,2.83847981,0.02736,4.019733236,
0.02738,2.473049516,0.02738,4.750593824,
0.0274,2.473049516,0.0274,4.38516353,
0.02742,3.934770692,0.02742,5.481454413,
0.02744,3.934770692,0.02744,4.019733236,
0.02746,2.107619222,0.02746,4.38516353,
0.02748,3.569340398,0.02748,4.38516353,
0.0275,2.473049516,0.0275,4.750593824,
0.02752,2.83847981,0.02752,3.654302942,
0.02754,3.203910104,0.02754,3.654302942,
0.02756,3.569340398,0.02756,4.750593824,
0.02758,1.376758633,0.02758,4.38516353,
0.0276,1.376758633,0.0276,4.019733236,
0.02762,1.011328339,0.02762,3.654302942,
0.02764,1.011328339,0.02764,4.38516353,
0.02766,0.6458980449,0.02766,4.38516353,
0.02768,1.011328339,0.02768,4.38516353,
0.0277,-0.4503928376,0.0277,4.019733236,
0.02772,-1.181253426,0.02772,5.481454413,
0.02774,-1.181253426,0.02774,4.38516353,
0.02776,-2.277544308,0.02776,4.38516353,
0.02778,-2.277544308,0.02778,4.019733236,
0.0278,-3.739265485,0.0278,4.019733236,
0.02782,-3.739265485,0.02782,4.38516353,
0.02784,-3.739265485,0.02784,4.019733236,
0.02786,-2.277544308,0.02786,4.38516353,
0.02788,-3.739265485,0.02788,4.38516353,
0.0279,-3.739265485,0.0279,4.019733236,
0.02792,-3.008404897,0.02792,4.019733236,
0.02794,-4.835556368,0.02794,4.38516353,
0.02796,-3.008404897,0.02796,4.019733236,
0.02798,-3.373835191,0.02798,4.38516353,
0.028,-3.373835191,0.028,4.019733236,
0.02802,-3.008404897,0.02802,5.116024118,
0.02804,-1.54668372,0.02804,4.750593824,
0.02806,-2.277544308,0.02806,4.019733236,
0.02808,-1.912114014,0.02808,4.38516353,
0.0281,-0.8158231317,0.0281,5.116024118,
0.02812,-2.277544308,0.02812,4.38516353,
0.02814,-1.912114014,0.02814,4.38516353,
0.02816,-1.181253426,0.02816,4.750593824,
0.02818,1.376758633,0.02818,4.38516353,
0.0282,1.011328339,0.0282,4.38516353,
0.02822,1.376758633,0.02822,3.654302942,
0.02824,2.473049516,0.02824,4.019733236,
0.02826,5.031061575,0.02826,4.019733236,
0.02828,2.473049516,0.02828,4.38516353,
0.0283,3.569340398,0.0283,4.38516353,
0.02832,2.83847981,0.02832,4.38516353,
0.02834,3.569340398,0.02834,4.750593824,
0.02836,0.6458980449,0.02836,4.38516353,
0.02838,2.83847981,0.02838,4.019733236,
0.0284,3.203910104,0.0284,4.38516353,
0.02842,5.761922163,0.02842,5.481454413,
0.02844,2.107619222,0.02844,3.654302942,
0.02846,2.83847981,0.02846,4.38516353,
0.02848,2.473049516,0.02848,4.38516353,
0.0285,2.473049516,0.0285,3.654302942,
0.02852,2.83847981,0.02852,3.654302942,
0.02854,3.203910104,0.02854,4.38516353,
0.02856,1.376758633,0.02856,3.654302942,
0.02858,3.569340398,0.02858,4.750593824,
0.0286,1.011328339,0.0286,4.38516353,
0.02862,-0.8158231317,0.02862,4.019733236,
0.02864,-0.4503928376,0.02864,4.750593824,
0.02866,-0.08496254339,0.02866,4.750593824,
0.02868,-2.277544308,0.02868,4.019733236,
0.0287,-1.912114014,0.0287,4.019733236,
0.02872,-2.277544308,0.02872,4.750593824,
0.02874,-3.008404897,0.02874,4.38516353,
0.02876,-3.008404897,0.02876,4.750593824,
0.02878,-3.008404897,0.02878,4.38516353,
0.0288,-3.373835191,0.0288,4.019733236,
0.02882,-2.642974603,0.02882,4.750593824,
0.02884,-4.104695779,0.02884,4.38516353,
0.02886,-3.373835191,0.02886,4.38516353,
0.02888,-4.470126073,0.02888,4.750593824,
0.0289,-3.008404897,0.0289,4.38516353,
0.02892,-1.54668372,0.02892,3.654302942,
0.02894,-2.642974603,0.02894,4.750593824,
0.02896,-3.373835191,0.02896,4.019733236,
0.02898,-4.104695779,0.02898,4.38516353,
0.029,-0.4503928376,0.029,4.38516353,
0.02902,-1.54668372,0.02902,4.38516353,
0.02904,-0.4503928376,0.02904,4.38516353,
0.02906,-0.8158231317,0.02906,4.750593824,
0.02908,-0.8158231317,0.02908,4.38516353,
0.0291,0.2804677508,0.0291,4.019733236,
0.02912,-0.4503928376,0.02912,5.116024118,
0.02914,1.376758633,0.02914,4.38516353,
0.02916,1.742188927,0.02916,4.019733236,
0.02918,3.934770692,0.02918,4.750593824,
0.0292,1.742188927,0.0292,4.38516353,
0.02922,2.107619222,0.02922,4.019733236,
0.02924,3.934770692,0.02924,4.750593824,
0.02926,3.203910104,0.02926,4.38516353,
0.02928,3.934770692,0.02928,4.019733236,
0.0293,3.569340398,0.0293,4.38516353,
0.02932,3.934770692,0.02932,4.019733236,
0.02934,3.934770692,0.02934,4.38516353,
0.02936,4.665631281,0.02936,4.38516353,
0.02938,5.031061575,0.02938,4.38516353,
0.0294,3.569340398,0.0294,4.750593824,
0.02942,3.203910104,0.02942,4.750593824,
0.02944,2.83847981,0.02944,4.019733236,
0.02946,2.83847981,0.02946,4.38516353,
0.02948,2.107619222,0.02948,4.38516353,
0.0295,2.473049516,0.0295,4.38516353,
0.02952,2.107619222,0.02952,4.38516353,
0.02954,0.6458980449,0.02954,4.38516353,
0.02956,-0.08496254339,0.02956,4.019733236,
0.02958,-0.4503928376,0.02958,4.750593824,
0.0296,1.011328339,0.0296,4.38516353,
0.02962,-1.54668372,0.02962,4.38516353,
0.02964,-3.373835191,0.02964,4.750593824,
0.02966,-1.54668372,0.02966,4.750593824,
0.02968,-1.912114014,0.02968,4.38516353,
0.0297,-4.470126073,0.0297,4.750593824,
0.02972,-3.373835191,0.02972,4.019733236,
0.02974,-2.277544308,0.02974,4.38516353,
0.02976,-4.470126073,0.02976,4.38516353,
0.02978,-3.373835191,0.02978,4.750593824,
0.0298,-2.642974603,0.0298,4.750593824,
0.02982,-4.470126073,0.02982,4.750593824,
0.02984,-3.373835191,0.02984,4.019733236,
0.02986,-4.104695779,0.02986,4.750593824,
0.02988,-4.470126073,0.02988,4.38516353,
0.0299,-3.373835191,0.0299,4.38516353,
0.02992,-2.642974603,0.02992,4.750593824,
0.02994,-1.54668372,0.02994,4.38516353,
0.02996,-0.8158231317,0.02996,4.750593824,
0.02998,-1.181253426,0.02998,5.116024118,
0.03,-0.8158231317,0.03,4.750593824,
0.03002,-0.4503928376,0.03002,4.750593824,
0.03004,0.2804677508,0.03004,4.38516353,
0.03006,-0.08496254339,0.03006,4.750593824,
0.03008,-0.4503928376,0.03008,4.38516353,
0.0301,1.376758633,0.0301,4.750593824,
0.03012,2.107619222,0.03012,4.38516353,
0.03014,2.473049516,0.03014,4.38516353,
0.03016,3.203910104,0.03016,4.38516353,
0.03018,2.107619222,0.03018,4.38516353,
0.0302,3.203910104,0.0302,4.019733236,
0.03022,5.031061575,0.03022,4.750593824,
0.03024,3.203910104,0.03024,4.750593824,
0.03026,3.203910104,0.03026,4.019733236,
0.03028,3.203910104,0.03028,4.38516353,
0.0303,2.473049516,0.0303,4.38516353,
0.03032,3.203910104,0.03032,4.38516353,
0.03034,3.934770692,0.03034,4.750593824,
0.03036,3.203910104,0.03036,4.38516353,
0.03038,3.203910104,0.03038,4.38516353,
0.0304,-0.08496254339,0.0304,4.750593824,
0.03042,1.011328339,0.03042,5.116024118,
0.03044,0.6458980449,0.03044,4.38516353,
0.03046,1.376758633,0.03046,4.750593824,
0.03048,-0.8158231317,0.03048,4.38516353,
0.0305,0.6458980449,0.0305,4.750593824,
0.03052,-0.8158231317,0.03052,4.750593824,
0.03054,-1.912114014,0.03054,4.38516353,
0.03056,-1.181253426,0.03056,4.38516353,
0.03058,-1.54668372,0.03058,4.750593824,
0.0306,-2.277544308,0.0306,4.38516353,
0.03062,-1.54668372,0.03062,4.38516353,
0.03064,-1.912114014,0.03064,4.38516353,
0.03066,-4.104695779,0.03066,4.38516353,
0.03068,-3.739265485,0.03068,4.019733236,
0.0307,-4.470126073,0.0307,4.750593824,
0.03072,-3.373835191,0.03072,4.019733236,
0.03074,-3.008404897,0.03074,4.750593824,
0.03076,-3.373835191,0.03076,4.38516353,
0.03078,-3.373835191,0.03078,4.019733236,
0.0308,-3.008404897,0.0308,4.750593824,
0.03082,-3.373835191,0.03082,4.38516353,
0.03084,-3.739265485,0.03084,4.38516353,
0.03086,-3.739265485,0.03086,4.38516353,
0.03088,-4.104695779,0.03088,4.750593824,
0.0309,-2.277544308,0.0309,4.750593824,
0.03092,0.2804677508,0.03092,4.38516353,
0.03094,-1.181253426,0.03094,4.38516353,
0.03096,-0.4503928376,0.03096,4.38516353,
0.03098,-0.08496254339,0.03098,4.38516353,
0.031,0.6458980449,0.031,4.750593824,
0.03102,1.376758633,0.03102,4.38516353,
0.03104,1.742188927,0.03104,4.019733236,
0.03106,2.473049516,0.03106,4.750593824,
0.03108,2.473049516,0.03108,4.750593824,
0.0311,4.300200987,0.0311,4.38516353,
0.03112,3.569340398,0.03112,4.750593824,
0.03114,2.83847981,0.03114,4.38516353,
0.03116,3.934770692,0.03116,4.019733236,
0.03118,4.300200987,0.03118,4.019733236,
0.0312,5.031061575,0.0312,4.019733236,
0.03122,2.107619222,0.03122,4.38516353,
0.03124,3.934770692,0.03124,5.481454413,
0.03126,1.376758633,0.03126,4.019733236,
0.03128,3.569340398,0.03128,3.654302942,
0.0313,3.203910104,0.0313,4.38516353,
0.03132,3.203910104,0.03132,4.38516353,
0.03134,2.83847981,0.03134,3.654302942,
0.03136,2.107619222,0.03136,4.38516353,
0.03138,2.107619222,0.03138,4.019733236,
0.0314,1.742188927,0.0314,4.750593824,
0.03142,1.011328339,0.03142,4.019733236,
0.03144,-0.4503928376,0.03144,3.654302942,
0.03146,-0.4503928376,0.03146,4.019733236,
0.03148,-0.4503928376,0.03148,3.654302942,
0.0315,-1.912114014,0.0315,3.654302942,
0.03152,-2.642974603,0.03152,4.750593824,
0.03154,-0.8158231317,0.03154,4.750593824,
0.03156,-2.642974603,0.03156,3.654302942,
0.03158,-3.739265485,0.03158,4.019733236,
0.0316,-4.104695779,0.0316,4.019733236,
0.03162,-3.373835191,0.03162,4.019733236,
0.03164,-3.373835191,0.03164,5.116024118,
0.03166,-3.008404897,0.03166,4.019733236,
0.03168,-4.104695779,0.03168,4.019733236,
0.0317,-3.373835191,0.0317,4.38516353,
0.03172,-4.104695779,0.03172,3.654302942,
0.03174,-3.008404897,0.03174,2.923442353,
0.03176,-3.739265485,0.03176,4.019733236,
0.03178,-2.277544308,0.03178,4.38516353,
0.0318,-1.912114014,0.0318,4.019733236,
0.03182,-1.54668372,0.03182,4.38516353,
0.03184,-1.54668372,0.03184,3.288872648,
0.03186,-0.08496254339,0.03186,3.654302942,
0.03188,0.2804677508,0.03188,4.38516353,
0.0319,1.376758633,0.0319,4.750593824,
0.03192,0.2804677508,0.03192,3.654302942,
0.03194,1.011328339,0.03194,5.116024118,
0.03196,1.742188927,0.03196,4.019733236,
0.03198,2.107619222,0.03198,3.288872648,
0.032,2.473049516,0.032,4.38516353,
0.03202,3.203910104,0.03202,4.38516353,
0.03204,1.742188927,0.03204,4.38516353,
0.03206,3.934770692,0.03206,4.38516353,
0.03208,3.203910104,0.03208,4.019733236,
0.0321,3.203910104,0.0321,4.019733236,
0.03212,2.83847981,0.03212,4.019733236,
0.03214,4.300200987,0.03214,4.750593824,
0.03216,3.934770692,0.03216,3.654302942,
0.03218,3.569340398,0.03218,4.38516353,
0.0322,3.934770692,0.0322,4.38516353,
0.03222,3.569340398,0.03222,3.654302942,
0.03224,2.83847981,0.03224,3.654302942,
0.03226,2.473049516,0.03226,4.38516353,
0.03228,1.376758633,0.03228,3.654302942,
0.0323,1.742188927,0.0323,4.38516353,
0.03232,2.83847981,0.03232,4.750593824,
0.03234,0.6458980449,0.03234,4.019733236,
0.03236,-0.8158231317,0.03236,4.38516353,
0.03238,0.2804677508,0.03238,4.38516353,
0.0324,-0.08496254339,0.0324,3.288872648,
0.03242,-0.8158231317,0.03242,4.38516353,
0.03244,-0.4503928376,0.03244,4.38516353,
0.03246,-1.54668372,0.03246,4.019733236,
0.03248,-2.277544308,0.03248,4.38516353,
0.0325,-3.008404897,0.0325,4.38516353,
0.03252,-3.008404897,0.03252,4.019733236,
0.03254,-2.642974603,0.03254,4.019733236,
0.03256,-1.912114014,0.03256,4.38516353,
0.03258,-3.373835191,0.03258,3.654302942,
0.0326,-4.104695779,0.0326,4.38516353,
0.03262,-4.104695779,0.03262,4.019733236,
0.03264,-4.104695779,0.03264,4.019733236,
0.03266,-2.277544308,0.03266,4.38516353,
0.03268,-2.642974603,0.03268,3.654302942,
0.0327,-3.739265485,0.0327,4.019733236,
0.03272,-3.373835191,0.03272,4.38516353,
0.03274,-2.277544308,0.03274,4.38516353,
0.03276,-3.008404897,0.03276,4.019733236,
0.03278,-0.08496254339,0.03278,4.38516353,
0.0328,-0.08496254339,0.0328,4.38516353,
0.03282,-0.4503928376,0.03282,3.654302942,
0.03284,-1.54668372,0.03284,4.750593824,
0.03286,1.376758633,0.03286,4.019733236,
0.03288,1.011328339,0.03288,4.019733236,
0.0329,2.107619222,0.0329,4.750593824,
0.03292,2.107619222,0.03292,4.019733236,
0.03294,3.203910104,0.03294,4.019733236,
0.03296,2.83847981,0.03296,4.38516353,
0.03298,3.203910104,0.03298,4.38516353,
0.033,3.569340398,0.033,4.019733236,
0.03302,3.569340398,0.03302,4.38516353,
0.03304,3.203910104,0.03304,4.019733236,
0.03306,2.473049516,0.03306,5.116024118,
0.03308,2.473049516,0.03308,4.019733236,
0.0331,2.83847981,0.0331,4.38516353,
0.03312,2.107619222,0.03312,4.750593824,
0.03314,3.569340398,0.03314,4.38516353,
0.03316,6.492782752,0.03316,4.019733236,
0.03318,2.473049516,0.03318,4.750593824,
0.0332,2.83847981,0.0332,4.38516353,
0.03322,1.376758633,0.03322,3.654302942,
0.03324,1.376758633,0.03324,4.750593824,
0.03326,2.473049516,0.03326,4.019733236,
0.03328,-0.4503928376,0.03328,3.654302942,
0.0333,-1.181253426,0.0333,4.750593824,
0.03332,-1.181253426,0.03332,4.38516353,
0.03334,-1.54668372,0.03334,4.38516353,
0.03336,0.2804677508,0.03336,4.750593824,
0.03338,-2.277544308,0.03338,4.019733236,
0.0334,-3.739265485,0.0334,4.019733236,
0.03342,-4.470126073,0.03342,4.38516353,
0.03344,-4.835556368,0.03344,4.019733236,
0.03346,-2.642974603,0.03346,4.019733236,
0.03348,-3.373835191,0.03348,4.750593824,
0.0335,-3.739265485,0.0335,4.38516353,
0.03352,-3.008404897,0.03352,4.38516353,
0.03354,-3.373835191,0.03354,4.38516353,
0.03356,-5.566416956,0.03356,4.38516353,
0.03358,-3.373835191,0.03358,4.019733236,
0.0336,-3.739265485,0.0336,4.750593824,
0.03362,-5.200986662,0.03362,4.750593824,
0.03364,-3.008404897,0.03364,4.019733236,
0.03366,-1.912114014,0.03366,4.750593824,
0.03368,-3.008404897,0.03368,4.38516353,
0.0337,-1.181253426,0.0337,4.019733236,
0.03372,-0.08496254339,0.03372,4.750593824,
0.03374,-2.277544308,0.03374,4.38516353,
0.03376,0.2804677508,0.03376,4.019733236,
0.03378,0.2804677508,0.03378,4.38516353,
0.0338,-0.08496254339,0.0338,4.019733236,
0.03382,1.376758633,0.03382,4.019733236,
0.03384,1.742188927,0.03384,4.38516353,
0.03386,3.203910104,0.03386,4.38516353,
0.03388,2.473049516,0.03388,4.019733236,
0.0339,2.83847981,0.0339,5.116024118,
0.03392,1.742188927,0.03392,4.38516353,
0.03394,3.203910104,0.03394,4.019733236,
0.03396,5.031061575,0.03396,4.38516353,
0.03398,3.934770692,0.03398,4.38516353,
0.034,3.569340398,0.034,4.38516353,
0.03402,3.203910104,0.03402,4.750593824,
0.03404,3.569340398,0.03404,4.38516353,
0.03406,2.83847981,0.03406,4.019733236,
0.03408,1.376758633,0.03408,4.750593824,
0.0341,1.742188927,0.0341,4.38516353,
0.03412,0.2804677508,0.03412,4.019733236,
0.03414,3.934770692,0.03414,4.750593824,
0.03416,1.011328339,0.03416,4.38516353,
0.03418,1.011328339,0.03418,4.38516353,
0.0342,1.376758633,0.0342,5.116024118,
0.03422,-0.08496254339,0.03422,4.38516353,
0.03424,-0.8158231317,0.03424,4.019733236,
0.03426,-0.08496254339,0.03426,5.116024118,
0.03428,-1.912114014,0.03428,4.38516353,
0.0343,-4.470126073,0.0343,4.019733236,
0.03432,-2.277544308,0.03432,5.116024118,
0.03434,-2.642974603,0.03434,4.38516353,
0.03436,-2.277544308,0.03436,4.38516353,
0.03438,-3.373835191,0.03438,4.750593824,
0.0344,-4.835556368,0.0344,4.38516353,
0.03442,-2.642974603,0.03442,4.019733236,
0.03444,-3.008404897,0.03444,4.019733236,
0.03446,-4.104695779,0.03446,4.750593824,
0.03448,-4.104695779,0.03448,4.38516353,
0.0345,-3.739265485,0.0345,4.750593824,
0.03452,-3.008404897,0.03452,4.38516353,
0.03454,-3.373835191,0.03454,4.38516353,
0.03456,-1.912114014,0.03456,4.38516353,
0.03458,-2.642974603,0.03458,4.38516353,
0.0346,-2.642974603,0.0346,4.38516353,
0.03462,-1.54668372,0.03462,4.38516353,
0.03464,-2.642974603,0.03464,4.38516353,
0.03466,-1.54668372,0.03466,4.38516353,
0.03468,-0.8158231317,0.03468,4.38516353,
0.0347,1.742188927,0.0347,4.38516353,
0.03472,-0.08496254339,0.03472,4.38516353,
0.03474,2.107619222,0.03474,4.38516353,
0.03476,-3.008404897,0.03476,4.019733236,
0.03478,0.6458980449,0.03478,4.019733236,
0.0348,1.742188927,0.0348,4.750593824,
0.03482,3.203910104,0.03482,4.38516353,
0.03484,3.203910104,0.03484,4.38516353,
0.03486,4.300200987,0.03486,4.38516353,
0.03488,2.83847981,0.03488,4.750593824,
0.0349,2.473049516,0.0349,4.38516353,
0.03492,3.203910104,0.03492,4.750593824,
0.03494,3.934770692,0.03494,4.38516353,
0.03496,5.396491869,0.03496,4.38516353,
0.03498,6.492782752,0.03498,4.38516353,
0.035,3.569340398,0.035,4.750593824,
0.03502,3.569340398,0.03502,4.38516353,
0.03504,2.473049516,0.03504,4.750593824,
0.03506,3.203910104,0.03506,4.019733236,
0.03508,2.107619222,0.03508,4.019733236,
0.0351,1.376758633,0.0351,4.38516353,
0.03512,1.011328339,0.03512,4.38516353,
0.03514,1.011328339,0.03514,4.750593824,
0.03516,-0.08496254339,0.03516,5.116024118,
0.03518,1.011328339,0.03518,4.38516353,
0.0352,-0.4503928376,0.0352,4.019733236,
0.03522,-1.181253426,0.03522,5.116024118,
0.03524,-0.8158231317,0.03524,4.019733236,
0.03526,-1.912114014,0.03526,4.38516353,
0.03528,-2.277544308,0.03528,4.750593824,
0.0353,-1.912114014,0.0353,4.38516353,
0.03532,-2.277544308,0.03532,4.38516353,
0.03534,-2.642974603,0.03534,4.38516353,
0.03536,-4.104695779,0.03536,4.38516353,
0.03538,-2.642974603,0.03538,4.38516353,
0.0354,-3.373835191,0.0354,4.38516353,
0.03542,-3.739265485,0.03542,4.38516353,
0.03544,-2.277544308,0.03544,4.38516353,
0.03546,-4.104695779,0.03546,5.116024118,
0.03548,-2.642974603,0.03548,4.38516353,
0.0355,-3.008404897,0.0355,4.38516353,
0.03552,-3.739265485,0.03552,4.019733236,
0.03554,-1.912114014,0.03554,4.750593824,
0.03556,-1.181253426,0.03556,5.481454413,
0.03558,-0.8158231317,0.03558,4.38516353,
0.0356,-0.4503928376,0.0356,4.38516353,
0.03562,-0.08496254339,0.03562,4.38516353,
0.03564,0.6458980449,0.03564,4.38516353,
0.03566,1.011328339,0.03566,2.923442353,
0.03568,2.107619222,0.03568,4.38516353,
0.0357,2.473049516,0.0357,4.38516353,
0.03572,2.473049516,0.03572,4.750593824,
0.03574,2.107619222,0.03574,4.38516353,
0.03576,2.107619222,0.03576,4.38516353,
0.03578,3.934770692,0.03578,4.750593824,
0.0358,4.665631281,0.0358,4.38516353,
0.03582,3.934770692,0.03582,4.38516353,
0.03584,3.569340398,0.03584,4.750593824,
0.03586,2.107619222,0.03586,6.212315001,
0.03588,3.934770692,0.03588,4.38516353,
0.0359,4.665631281,0.0359,4.019733236,
0.03592,3.203910104,0.03592,4.019733236,
0.03594,-0.08496254339,0.03594,5.116024118,
0.03596,2.107619222,0.03596,4.750593824,
0.03598,1.742188927,0.03598,4.019733236,
0.036,2.473049516,0.036,4.750593824,
0.03602,0.6458980449,0.03602,4.019733236,
0.03604,1.742188927,0.03604,4.019733236,
0.03606,1.742188927,0.03606,2.923442353,
0.03608,-1.54668372,0.03608,4.019733236,
0.0361,-0.08496254339,0.0361,4.019733236,
0.03612,0.6458980449,0.03612,4.750593824,
0.03614,-1.912114014,0.03614,4.38516353,
0.03616,-2.277544308,0.03616,5.116024118,
0.03618,-3.739265485,0.03618,4.750593824,
0.0362,-2.642974603,0.0362,4.38516353,
0.03622,-4.835556368,0.03622,4.019733236,
0.03624,-2.642974603,0.03624,4.750593824,
0.03626,-3.373835191,0.03626,2.923442353,
0.03628,-3.739265485,0.03628,4.38516353,
0.0363,-3.008404897,0.0363,4.750593824,
0.03632,-4.470126073,0.03632,4.38516353,
0.03634,-3.739265485,0.03634,4.019733236,
0.03636,-3.739265485,0.03636,4.019733236,
0.03638,-3.739265485,0.03638,4.019733236,
0.0364,-4.104695779,0.0364,3.288872648,
0.03642,-2.277544308,0.03642,4.019733236,
0.03644,-2.642974603,0.03644,5.116024118,
0.03646,-1.181253426,0.03646,4.750593824,
0.03648,-2.642974603,0.03648,4.750593824,
0.0365,-1.912114014,0.0365,4.38516353,
0.03652,-0.8158231317,0.03652,4.38516353,
0.03654,-0.8158231317,0.03654,4.38516353,
0.03656,-0.08496254339,0.03656,3.288872648,
0.03658,1.011328339,0.03658,4.019733236,
0.0366,1.376758633,0.0366,5.116024118,
0.03662,-0.8158231317,0.03662,4.38516353,
0.03664,1.376758633,0.03664,4.38516353,
0.03666,0.2804677508,0.03666,4.38516353,
0.03668,3.569340398,0.03668,4.38516353,
0.0367,2.473049516,0.0367,4.019733236,
0.03672,3.203910104,0.03672,4.750593824,
0.03674,2.83847981,0.03674,4.019733236,
0.03676,3.569340398,0.03676,5.116024118,
0.03678,4.300200987,0.03678,4.38516353,
0.0368,2.107619222,0.0368,4.019733236,
0.03682,3.569340398,0.03682,4.38516353,
0.03684,4.300200987,0.03684,5.116024118,
0.03686,2.83847981,0.03686,4.38516353,
0.03688,0.2804677508,0.03688,4.019733236,
0.0369,2.83847981,0.0369,4.38516353,
0.03692,2.107619222,0.03692,4.019733236,
0.03694,1.011328339,0.03694,4.38516353,
0.03696,2.473049516,0.03696,4.38516353,
0.03698,0.2804677508,0.03698,4.019733236,
0.037,-0.8158231317,0.037,4.019733236,
0.03702,1.011328339,0.03702,4.750593824,
0.03704,-0.4503928376,0.03704,4.750593824,
0.03706,-1.54668372,0.03706,4.019733236,
0.03708,1.011328339,0.03708,4.38516353,
0.0371,-3.008404897,0.0371,5.116024118,
0.03712,-3.739265485,0.03712,4.019733236,
0.03714,-3.008404897,0.03714,4.38516353,
0.03716,-3.008404897,0.03716,4.750593824,
0.03718,-3.373835191,0.03718,4.019733236,
0.0372,-3.739265485,0.0372,4.750593824,
0.03722,-3.739265485,0.03722,3.654302942,
0.03724,-2.642974603,0.03724,4.38516353,
0.03726,-5.200986662,0.03726,4.019733236,
0.03728,-4.470126073,0.03728,4.38516353,
0.0373,-3.373835191,0.0373,4.019733236,
0.03732,-1.912114014,0.03732,4.38516353,
0.03734,-3.373835191,0.03734,4.38516353,
0.03736,-3.008404897,0.03736,4.019733236,
0.03738,-3.008404897,0.03738,4.750593824,
0.0374,-3.008404897,0.0374,3.654302942,
0.03742,-5.200986662,0.03742,4.019733236,
0.03744,-1.54668372,0.03744,4.019733236,
0.03746,-0.4503928376,0.03746,4.019733236,
0.03748,0.2804677508,0.03748,4.38516353,
0.0375,-0.8158231317,0.0375,5.116024118,
0.03752,1.011328339,0.03752,4.019733236,
0.03754,1.011328339,0.03754,4.38516353,
0.03756,1.376758633,0.03756,4.38516353,
0.03758,3.569340398,0.03758,4.38516353,
0.0376,2.473049516,0.0376,4.019733236,
0.03762,2.473049516,0.03762,4.750593824,
0.03764,3.203910104,0.03764,4.38516353,
0.03766,1.011328339,0.03766,4.750593824,
0.03768,2.83847981,0.03768,5.116024118,
0.0377,1.742188927,0.0377,4.019733236,
0.03772,2.83847981,0.03772,4.019733236,
0.03774,2.83847981,0.03774,4.750593824,
0.03776,2.83847981,0.03776,4.38516353,
0.03778,4.665631281,0.03778,4.38516353,
0.0378,4.665631281,0.0378,4.750593824,
0.03782,1.376758633,0.03782,4.38516353,
0.03784,2.473049516,0.03784,4.019733236,
0.03786,2.107619222,0.03786,4.38516353,
0.03788,1.011328339,0.03788,4.38516353,
0.0379,0.2804677508,0.0379,4.019733236,
0.03792,2.473049516,0.03792,4.38516353,
0.03794,-0.8158231317,0.03794,4.38516353,
0.03796,0.2804677508,0.03796,4.019733236,
0.03798,-0.08496254339,0.03798,4.38516353,
0.038,-1.181253426,0.038,4.750593824,
0.03802,-1.181253426,0.03802,4.38516353,
0.03804,-3.008404897,0.03804,4.019733236,
0.03806,-2.642974603,0.03806,4.019733236,
0.03808,-3.008404897,0.03808,4.750593824,
0.0381,-4.104695779,0.0381,4.38516353,
0.03812,-3.373835191,0.03812,4.38516353,
0.03814,-1.181253426,0.03814,4.38516353,
0.03816,-3.008404897,0.03816,4.750593824,
0.03818,-3.739265485,0.03818,4.38516353,
0.0382,-3.008404897,0.0382,4.019733236,
0.03822,-2.277544308,0.03822,5.116024118,
0.03824,-3.739265485,0.03824,4.38516353,
0.03826,-3.008404897,0.03826,4.750593824,
0.03828,-3.739265485,0.03828,4.750593824,
0.0383,-3.739265485,0.0383,4.019733236,
0.03832,-2.277544308,0.03832,4.38516353,
0.03834,-1.54668372,0.03834,4.38516353,
0.03836,-2.642974603,0.03836,4.38516353,
0.03838,-0.08496254339,0.03838,4.38516353,
0.0384,-1.181253426,0.0384,5.116024118,
0.03842,-0.08496254339,0.03842,4.38516353,
0.03844,3.203910104,0.03844,4.38516353,
0.03846,1.011328339,0.03846,4.750593824,
0.03848,2.473049516,0.03848,4.019733236,
0.0385,1.011328339,0.0385,4.750593824,
0.03852,1.742188927,0.03852,4.750593824,
0.03854,0.2804677508,0.03854,4.38516353,
0.03856,2.107619222,0.03856,4.38516353,
0.03858,2.473049516,0.03858,4.750593824,
0.0386,2.473049516,0.0386,4.019733236,
0.03862,4.665631281,0.03862,4.38516353,
0.03864,4.300200987,0.03864,4.38516353,
0.03866,3.569340398,0.03866,4.750593824,
0.03868,3.934770692,0.03868,3.654302942,
0.0387,3.569340398,0.0387,4.750593824,
0.03872,3.569340398,0.03872,4.38516353,
0.03874,3.934770692,0.03874,4.019733236,
0.03876,2.83847981,0.03876,4.750593824,
0.03878,2.83847981,0.03878,5.116024118,
0.0388,2.83847981,0.0388,3.654302942,
0.03882,2.107619222,0.03882,4.750593824,
0.03884,1.011328339,0.03884,4.38516353,
0.03886,1.376758633,0.03886,4.38516353,
0.03888,0.6458980449,0.03888,5.481454413,
0.0389,-1.181253426,0.0389,4.38516353,
0.03892,0.6458980449,0.03892,4.019733236,
0.03894,-1.181253426,0.03894,4.750593824,
0.03896,-2.277544308,0.03896,4.38516353,
0.03898,1.011328339,0.03898,4.38516353,
0.039,-1.912114014,0.039,4.750593824,
0.03902,-3.739265485,0.03902,4.38516353,
0.03904,-2.277544308,0.03904,4.38516353,
0.03906,-3.008404897,0.03906,4.750593824,
0.03908,-3.373835191,0.03908,4.019733236,
0.0391,-1.912114014,0.0391,4.38516353,
0.03912,-4.104695779,0.03912,4.38516353,
0.03914,-1.912114014,0.03914,4.750593824,
0.03916,-2.642974603,0.03916,4.38516353,
0.03918,-4.104695779,0.03918,4.750593824,
0.0392,-3.008404897,0.0392,4.38516353,
0.03922,-1.181253426,0.03922,4.38516353,
0.03924,-1.54668372,0.03924,4.38516353,
0.03926,-2.277544308,0.03926,4.38516353,
0.03928,-2.642974603,0.03928,5.116024118,
0.0393,-0.8158231317,0.0393,4.750593824,
0.03932,-2.277544308,0.03932,4.38516353,
0.03934,-1.54668372,0.03934,4.019733236,
0.03936,0.2804677508,0.03936,4.750593824,
0.03938,-0.4503928376,0.03938,5.116024118,
0.0394,1.376758633,0.0394,4.019733236,
0.03942,1.742188927,0.03942,4.750593824,
0.03944,-0.08496254339,0.03944,4.38516353,
0.03946,2.473049516,0.03946,4.38516353,
0.03948,2.83847981,0.03948,5.116024118,
0.0395,2.473049516,0.0395,4.38516353,
0.03952,2.473049516,0.03952,4.019733236,
0.03954,3.569340398,0.03954,3.654302942,
0.03956,3.569340398,0.03956,4.38516353,
0.03958,3.203910104,0.03958,3.288872648,
0.0396,2.83847981,0.0396,4.38516353,
0.03962,3.203910104,0.03962,4.019733236,
0.03964,3.203910104,0.03964,4.38516353,
0.03966,2.83847981,0.03966,4.38516353,
0.03968,3.203910104,0.03968,5.116024118,
0.0397,3.569340398,0.0397,4.38516353,
0.03972,3.569340398,0.03972,4.750593824,
0.03974,1.742188927,0.03974,4.019733236,
0.03976,1.376758633,0.03976,4.38516353,
0.03978,-0.08496254339,0.03978,5.846884707,
0.0398,1.742188927,0.0398,4.019733236,
0.03982,0.2804677508,0.03982,4.750593824,
0.03984,-0.08496254339,0.03984,4.019733236,
0.03986,-0.8158231317,0.03986,4.019733236,
0.03988,-3.373835191,0.03988,4.019733236,
0.0399,-1.181253426,0.0399,4.38516353,
0.03992,-1.181253426,0.03992,4.38516353,
0.03994,-1.912114014,0.03994,4.019733236,
0.03996,-2.277544308,0.03996,4.38516353,
0.03998,-3.008404897,0.03998,3.288872648,
0.04,-4.104695779,0.04,4.019733236,
0.04002,-1.912114014,0.04002,4.38516353,
0.04004,-3.008404897,0.04004,4.019733236,
0.04006,-2.642974603,0.04006,4.019733236,
0.04008,-2.642974603,0.04008,4.019733236,
0.0401,-4.470126073,0.0401,4.38516353,
0.04012,-2.642974603,0.04012,3.654302942,
0.04014,-3.008404897,0.04014,4.38516353,
0.04016,-2.277544308,0.04016,4.38516353,
0.04018,-2.642974603,0.04018,4.38516353,
0.0402,-2.642974603,0.0402,4.019733236,
0.04022,-1.181253426,0.04022,4.38516353,
0.04024,-1.54668372,0.04024,3.654302942,
0.04026,-0.08496254339,0.04026,4.38516353,
0.04028,0.2804677508,0.04028,3.654302942,
0.0403,1.742188927,0.0403,3.654302942,
0.04032,-0.4503928376,0.04032,5.116024118,
0.04034,1.011328339,0.04034,4.38516353,
0.04036,1.376758633,0.04036,4.019733236,
0.04038,1.742188927,0.04038,3.654302942,
0.0404,1.011328339,0.0404,4.38516353,
0.04042,2.83847981,0.04042,4.019733236,
0.04044,3.934770692,0.04044,4.38516353,
0.04046,4.300200987,0.04046,4.019733236,
0.04048,2.83847981,0.04048,4.019733236,
0.0405,3.203910104,0.0405,4.750593824,
0.04052,2.83847981,0.04052,4.38516353,
0.04054,2.107619222,0.04054,3.654302942,
0.04056,3.203910104,0.04056,4.019733236,
0.04058,4.300200987,0.04058,4.38516353,
0.0406,3.934770692,0.0406,4.019733236,
0.04062,3.569340398,0.04062,4.38516353,
0.04064,3.934770692,0.04064,4.019733236,
0.04066,2.473049516,0.04066,4.019733236,
0.04068,-0.08496254339,0.04068,4.019733236,
0.0407,1.376758633,0.0407,4.38516353,
0.04072,-1.181253426,0.04072,4.019733236,
0.04074,-0.8158231317,0.04074,4.019733236,
0.04076,0.2804677508,0.04076,4.38516353,
0.04078,-1.54668372,0.04078,3.654302942,
0.0408,-0.8158231317,0.0408,4.38516353,
0.04082,-1.181253426,0.04082,4.750593824,
0.04084,-2.642974603,0.04084,4.019733236,
0.04086,-1.54668372,0.04086,4.38516353,
0.04088,-1.54668372,0.04088,4.38516353,
0.0409,-1.54668372,0.0409,3.654302942,
0.04092,-2.642974603,0.04092,4.38516353,
0.04094,-3.373835191,0.04094,4.38516353,
0.04096,-3.739265485,0.04096,4.019733236,
0.04098,-2.642974603,0.04098,4.750593824,
0.041,-1.54668372,0.041,4.019733236,
0.04102,-3.373835191,0.04102,3.654302942,
0.04104,-3.373835191,0.04104,3.654302942,
0.04106,-1.912114014,0.04106,4.019733236,
0.04108,-2.277544308,0.04108,3.654302942,
0.0411,-2.277544308,0.0411,4.38516353,
0.04112,-5.200986662,0.04112,4.019733236,
0.04114,-2.642974603,0.04114,4.019733236,
0.04116,-1.181253426,0.04116,4.38516353,
0.04118,-0.8158231317,0.04118,4.38516353,
0.0412,-2.277544308,0.0412,4.019733236,
0.04122,1.011328339,0.04122,4.38516353,
0.04124,-0.4503928376,0.04124,4.38516353,
0.04126,-0.4503928376,0.04126,4.019733236,
0.04128,1.376758633,0.04128,4.019733236,
0.0413,1.376758633,0.0413,4.38516353,
0.04132,3.569340398,0.04132,3.654302942,
0.04134,3.569340398,0.04134,4.019733236,
0.04136,2.83847981,0.04136,4.019733236,
0.04138,0.6458980449,0.04138,4.019733236,
0.0414,3.569340398,0.0414,4.38516353,
0.04142,4.665631281,0.04142,4.38516353,
0.04144,2.83847981,0.04144,4.019733236,
0.04146,2.83847981,0.04146,4.019733236,
0.04148,3.934770692,0.04148,4.38516353,
0.0415,4.665631281,0.0415,4.019733236,
0.04152,3.569340398,0.04152,4.38516353,
0.04154,3.569340398,0.04154,3.654302942,
0.04156,2.107619222,0.04156,3.654302942,
0.04158,2.83847981,0.04158,4.750593824,
0.0416,2.473049516,0.0416,4.38516353,
0.04162,1.011328339,0.04162,4.019733236,
0.04164,1.376758633,0.04164,4.38516353,
0.04166,0.2804677508,0.04166,4.38516353,
0.04168,1.742188927,0.04168,4.019733236,
0.0417,0.6458980449,0.0417,4.750593824,
0.04172,-0.4503928376,0.04172,4.38516353,
0.04174,-1.912114014,0.04174,3.654302942,
0.04176,-1.181253426,0.04176,4.750593824,
0.04178,-1.912114014,0.04178,4.38516353,
0.0418,-3.373835191,0.0418,4.019733236,
0.04182,-3.373835191,0.04182,4.750593824,
0.04184,-3.008404897,0.04184,4.38516353,
0.04186,-3.008404897,0.04186,4.019733236,
0.04188,-3.739265485,0.04188,5.116024118,
0.0419,-4.470126073,0.0419,4.019733236,
0.04192,-3.739265485,0.04192,4.019733236,
0.04194,-4.104695779,0.04194,4.38516353,
0.04196,-4.470126073,0.04196,3.654302942,
0.04198,-4.470126073,0.04198,4.019733236,
0.042,-3.739265485,0.042,4.750593824,
0.04202,-3.373835191,0.04202,4.38516353,
0.04204,-2.642974603,0.04204,4.019733236,
0.04206,-2.277544308,0.04206,4.38516353,
0.04208,-2.277544308,0.04208,4.750593824,
0.0421,-1.181253426,0.0421,4.019733236,
0.04212,0.2804677508,0.04212,5.116024118,
0.04214,-0.4503928376,0.04214,4.38516353,
0.04216,-0.4503928376,0.04216,4.019733236,
0.04218,0.2804677508,0.04218,4.750593824,
0.0422,0.2804677508,0.0422,4.38516353,
0.04222,1.742188927,0.04222,4.019733236,
0.04224,2.107619222,0.04224,4.750593824,
0.04226,1.742188927,0.04226,4.019733236,
0.04228,2.473049516,0.04228,4.019733236,
0.0423,3.934770692,0.0423,4.750593824,
0.04232,2.473049516,0.04232,4.750593824,
0.04234,2.83847981,0.04234,4.019733236,
0.04236,4.300200987,0.04236,4.750593824,
0.04238,3.203910104,0.04238,4.38516353,
0.0424,1.376758633,0.0424,4.019733236,
0.04242,3.203910104,0.04242,4.38516353,
0.04244,3.203910104,0.04244,4.38516353,
0.04246,2.83847981,0.04246,4.019733236,
0.04248,2.83847981,0.04248,5.116024118,
0.0425,0.6458980449,0.0425,4.019733236,
0.04252,2.107619222,0.04252,4.38516353,
0.04254,1.742188927,0.04254,4.750593824,
0.04256,-0.08496254339,0.04256,4.38516353,
0.04258,1.011328339,0.04258,4.019733236,
0.0426,1.011328339,0.0426,4.750593824,
0.04262,-0.08496254339,0.04262,4.019733236,
0.04264,0.2804677508,0.04264,4.019733236,
0.04266,-0.8158231317,0.04266,4.38516353,
0.04268,-4.470126073,0.04268,4.38516353,
0.0427,-2.277544308,0.0427,4.019733236,
0.04272,-1.912114014,0.04272,4.750593824,
0.04274,-2.277544308,0.04274,4.019733236,
0.04276,-4.470126073,0.04276,4.019733236,
0.04278,-2.277544308,0.04278,4.750593824,
0.0428,-2.642974603,0.0428,4.38516353,
0.04282,-3.008404897,0.04282,3.288872648,
0.04284,-2.277544308,0.04284,4.750593824,
0.04286,-3.373835191,0.04286,3.654302942,
0.04288,-3.373835191,0.04288,4.38516353,
0.0429,-3.008404897,0.0429,4.38516353,
0.04292,-3.373835191,0.04292,4.38516353,
0.04294,-3.373835191,0.04294,4.019733236,
0.04296,-3.373835191,0.04296,4.750593824,
0.04298,-2.277544308,0.04298,4.38516353,
0.043,-3.739265485,0.043,4.750593824,
0.04302,-1.54668372,0.04302,4.750593824,
0.04304,-1.54668372,0.04304,4.38516353,
0.04306,-1.181253426,0.04306,4.019733236,
0.04308,-1.181253426,0.04308,4.750593824,
0.0431,-1.181253426,0.0431,4.019733236,
0.04312,0.2804677508,0.04312,4.750593824,
0.04314,0.6458980449,0.04314,4.750593824,
0.04316,1.376758633,0.04316,4.750593824,
0.04318,0.2804677508,0.04318,4.019733236,
0.0432,2.107619222,0.0432,4.019733236,
0.04322,2.107619222,0.04322,4.019733236,
0.04324,2.473049516,0.04324,4.019733236,
0.04326,3.203910104,0.04326,4.750593824,
0.04328,1.742188927,0.04328,4.38516353,
0.0433,4.300200987,0.0433,3.654302942,
0.04332,3.569340398,0.04332,4.750593824,
0.04334,3.569340398,0.04334,3.654302942,
0.04336,1.376758633,0.04336,4.019733236,
0.04338,3.569340398,0.04338,4.750593824,
0.0434,2.83847981,0.0434,5.116024118,
0.04342,2.473049516,0.04342,4.019733236,
0.04344,2.107619222,0.04344,4.750593824,
0.04346,2.107619222,0.04346,4.019733236,
0.04348,1.742188927,0.04348,4.38516353,
0.0435,1.742188927,0.0435,5.481454413,
0.04352,0.6458980449,0.04352,4.38516353,
0.04354,1.011328339,0.04354,5.116024118,
0.04356,-0.4503928376,0.04356,4.750593824,
0.04358,-0.4503928376,0.04358,4.38516353,
0.0436,-0.8158231317,0.0436,2.923442353,
0.04362,-1.54668372,0.04362,4.38516353,
0.04364,-1.181253426,0.04364,4.38516353,
0.04366,-1.54668372,0.04366,4.750593824,
0.04368,-1.54668372,0.04368,4.750593824,
0.0437,-3.008404897,0.0437,4.019733236,
0.04372,-2.642974603,0.04372,4.750593824,
0.04374,-4.470126073,0.04374,4.38516353,
0.04376,-4.104695779,0.04376,4.38516353,
0.04378,-4.104695779,0.04378,4.750593824,
0.0438,-5.566416956,0.0438,6.212315001,
0.04382,-3.008404897,0.04382,4.019733236,
0.04384,-1.912114014,0.04384,5.116024118,
0.04386,-3.008404897,0.04386,4.750593824,
0.04388,-2.277544308,0.04388,4.38516353,
0.0439,-1.54668372,0.0439,3.654302942,
0.04392,-2.642974603,0.04392,5.116024118,
0.04394,-1.54668372,0.04394,4.38516353,
0.04396,-1.181253426,0.04396,4.750593824,
0.04398,-1.181253426,0.04398,4.750593824,
0.044,0.6458980449,0.044,3.288872648,
0.04402,-0.4503928376,0.04402,4.750593824,
0.04404,-0.4503928376,0.04404,4.750593824,
0.04406,1.376758633,0.04406,4.019733236,
0.04408,1.376758633,0.04408,4.38516353,
0.0441,2.473049516,0.0441,2.923442353,
0.04412,2.83847981,0.04412,4.019733236,
0.04414,2.107619222,0.04414,4.38516353,
0.04416,2.83847981,0.04416,4.750593824,
0.04418,3.934770692,0.04418,4.38516353,
0.0442,2.473049516,0.0442,4.019733236,
0.04422,3.569340398,0.04422,4.38516353,
0.04424,3.203910104,0.04424,4.38516353,
0.04426,3.569340398,0.04426,4.38516353,
0.04428,2.83847981,0.04428,4.38516353,
0.0443,3.569340398,0.0443,5.116024118,
0.04432,4.665631281,0.04432,4.38516353,
0.04434,3.203910104,0.04434,4.38516353,
0.04436,3.203910104,0.04436,4.750593824,
0.04438,2.83847981,0.04438,5.116024118,
0.0444,-2.277544308,0.0444,4.750593824,
0.04442,1.011328339,0.04442,4.019733236,
0.04444,1.376758633,0.04444,4.38516353,
0.04446,-0.08496254339,0.04446,4.38516353,
0.04448,-0.08496254339,0.04448,4.38516353,
0.0445,0.2804677508,0.0445,3.288872648,
0.04452,-0.8158231317,0.04452,4.38516353,
0.04454,-1.54668372,0.04454,4.019733236,
0.04456,-1.912114014,0.04456,4.38516353,
0.04458,-0.4503928376,0.04458,4.38516353,
0.0446,-2.277544308,0.0446,4.019733236,
0.04462,-1.912114014,0.04462,4.750593824,
0.04464,-1.54668372,0.04464,4.38516353,
0.04466,-3.739265485,0.04466,4.750593824,
0.04468,-3.008404897,0.04468,4.750593824,
0.0447,-1.54668372,0.0447,5.481454413,
0.04472,-4.470126073,0.04472,4.38516353,
0.04474,-4.470126073,0.04474,4.750593824,
0.04476,-3.373835191,0.04476,4.38516353,
0.04478,-2.642974603,0.04478,4.38516353,
0.0448,-2.642974603,0.0448,4.019733236,
0.04482,-5.566416956,0.04482,4.750593824,
0.04484,-1.912114014,0.04484,4.750593824,
0.04486,-2.277544308,0.04486,4.38516353,
0.04488,-1.181253426,0.04488,4.019733236,
0.0449,-0.8158231317,0.0449,3.288872648,
0.04492,-0.4503928376,0.04492,4.750593824,
0.04494,0.2804677508,0.04494,4.38516353,
0.04496,-2.277544308,0.04496,4.019733236,
0.04498,2.473049516,0.04498,4.38516353,
0.045,0.6458980449,0.045,4.38516353,
0.04502,1.376758633,0.04502,4.750593824,
0.04504,1.011328339,0.04504,4.38516353,
0.04506,1.742188927,0.04506,3.654302942,
0.04508,1.742188927,0.04508,4.750593824,
0.0451,2.107619222,0.0451,5.116024118,
0.04512,4.665631281,0.04512,4.019733236,
0.04514,4.300200987,0.04514,4.750593824,
0.04516,3.203910104,0.04516,4.019733236,
0.04518,2.83847981,0.04518,4.019733236,
0.0452,3.569340398,0.0452,5.116024118,
0.04522,3.203910104,0.04522,4.38516353,
0.04524,2.83847981,0.04524,4.38516353,
0.04526,2.83847981,0.04526,4.750593824,
0.04528,2.83847981,0.04528,4.38516353,
0.0453,2.83847981,0.0453,3.654302942,
0.04532,1.011328339,0.04532,4.750593824,
0.04534,1.376758633,0.04534,4.38516353,
0.04536,0.6458980449,0.04536,4.019733236,
0.04538,1.376758633,0.04538,4.750593824,
0.0454,1.011328339,0.0454,4.38516353,
0.04542,1.376758633,0.04542,4.019733236,
0.04544,0.6458980449,0.04544,5.116024118,
0.04546,1.376758633,0.04546,4.38516353,
0.04548,-2.642974603,0.04548,4.019733236,
0.0455,-1.54668372,0.0455,4.750593824,
0.04552,-0.4503928376,0.04552,4.38516353,
0.04554,-2.642974603,0.04554,4.38516353,
0.04556,-3.373835191,0.04556,5.116024118,
0.04558,-3.739265485,0.04558,4.019733236,
0.0456,-3.008404897,0.0456,4.019733236,
0.04562,-2.642974603,0.04562,4.38516353,
0.04564,-4.104695779,0.04564,4.38516353,
0.04566,-5.200986662,0.04566,4.019733236,
0.04568,-4.470126073,0.04568,4.750593824,
0.0457,-4.835556368,0.0457,4.38516353,
0.04572,-3.739265485,0.04572,4.019733236,
0.04574,-3.008404897,0.04574,4.750593824,
0.04576,-2.642974603,0.04576,4.38516353,
0.04578,-3.008404897,0.04578,4.019733236,
0.0458,-2.277544308,0.0458,4.750593824,
0.04582,-0.8158231317,0.04582,4.38516353,
0.04584,-2.277544308,0.04584,3.654302942,
0.04586,-1.181253426,0.04586,4.750593824,
0.04588,-0.8158231317,0.04588,3.654302942,
0.0459,-0.4503928376,0.0459,4.019733236,
0.04592,-0.08496254339,0.04592,5.116024118,
0.04594,0.6458980449,0.04594,4.019733236,
0.04596,1.376758633,0.04596,4.38516353,
0.04598,1.742188927,0.04598,4.750593824,
0.046,2.107619222,0.046,4.38516353,
0.04602,2.83847981,0.04602,4.019733236,
0.04604,3.203910104,0.04604,4.750593824,
0.04606,2.473049516,0.04606,4.38516353,
0.04608,3.569340398,0.04608,4.019733236,
0.0461,4.300200987,0.0461,5.116024118,
0.04612,3.569340398,0.04612,4.38516353,
0.04614,3.934770692,0.04614,4.019733236,
0.04616,3.934770692,0.04616,4.750593824,
0.04618,1.742188927,0.04618,4.38516353,
0.0462,2.83847981,0.0462,4.38516353,
0.04622,4.665631281,0.04622,5.116024118,
0.04624,2.107619222,0.04624,4.38516353,
0.04626,2.107619222,0.04626,3.654302942,
0.04628,0.6458980449,0.04628,4.750593824,
0.0463,0.2804677508,0.0463,4.019733236,
0.04632,-0.08496254339,0.04632,4.019733236,
0.04634,-0.4503928376,0.04634,4.750593824,
0.04636,-0.08496254339,0.04636,4.38516353,
0.04638,-1.181253426,0.04638,4.019733236,
0.0464,-1.181253426,0.0464,4.38516353,
0.04642,-1.54668372,0.04642,4.38516353,
0.04644,-1.912114014,0.04644,4.750593824,
0.04646,-3.008404897,0.04646,4.750593824,
0.04648,-1.912114014,0.04648,4.750593824,
0.0465,-3.008404897,0.0465,4.750593824,
0.04652,-3.373835191,0.04652,4.38516353,
0.04654,-2.642974603,0.04654,4.019733236,
0.04656,-3.373835191,0.04656,4.38516353,
0.04658,-3.373835191,0.04658,4.38516353,
0.0466,-3.739265485,0.0466,4.38516353,
0.04662,-2.642974603,0.04662,4.38516353,
0.04664,-3.373835191,0.04664,4.38516353,
0.04666,-3.008404897,0.04666,4.750593824,
0.04668,-2.277544308,0.04668,4.750593824,
0.0467,-4.470126073,0.0467,4.019733236,
0.04672,-0.8158231317,0.04672,4.38516353,
0.04674,-1.54668372,0.04674,4.38516353,
0.04676,-1.54668372,0.04676,4.38516353,
0.04678,-0.4503928376,0.04678,4.019733236,
0.0468,-0.4503928376,0.0468,4.38516353,
0.04682,-0.8158231317,0.04682,4.750593824,
0.04684,0.6458980449,0.04684,4.750593824,
0.04686,0.6458980449,0.04686,4.38516353,
0.04688,2.473049516,0.04688,4.750593824,
0.0469,1.742188927,0.0469,4.38516353,
0.04692,3.203910104,0.04692,4.750593824,
0.04694,2.107619222,0.04694,4.750593824,
0.04696,4.300200987,0.04696,4.38516353,
0.04698,3.569340398,0.04698,4.750593824,
0.047,3.569340398,0.047,4.38516353,
0.04702,3.934770692,0.04702,4.38516353,
0.04704,3.569340398,0.04704,4.750593824,
0.04706,3.569340398,0.04706,4.750593824,
0.04708,2.83847981,0.04708,4.38516353,
0.0471,3.569340398,0.0471,4.750593824,
0.04712,2.473049516,0.04712,4.38516353,
0.04714,3.934770692,0.04714,4.38516353,
0.04716,3.203910104,0.04716,4.750593824,
0.04718,2.473049516,0.04718,5.116024118,
0.0472,1.742188927,0.0472,4.019733236,
0.04722,1.742188927,0.04722,3.654302942,
0.04724,0.6458980449,0.04724,4.38516353,
0.04726,1.376758633,0.04726,4.38516353,
0.04728,0.2804677508,0.04728,4.38516353,
0.0473,-0.08496254339,0.0473,4.38516353,
0.04732,-1.54668372,0.04732,4.019733236,
0.04734,-1.54668372,0.04734,4.38516353,
0.04736,-1.54668372,0.04736,4.38516353,
0.04738,-1.912114014,0.04738,4.38516353,
0.0474,-2.277544308,0.0474,5.116024118,
0.04742,-3.739265485,0.04742,4.38516353,
0.04744,-2.277544308,0.04744,4.019733236,
0.04746,-3.373835191,0.04746,4.750593824,
0.04748,-4.104695779,0.04748,4.38516353,
0.0475,-2.642974603,0.0475,4.38516353,
0.04752,-3.739265485,0.04752,4.38516353,
0.04754,-4.470126073,0.04754,4.38516353,
0.04756,-3.008404897,0.04756,4.750593824,
0.04758,-4.470126073,0.04758,5.481454413,
0.0476,-1.54668372,0.0476,4.38516353,
0.04762,-2.277544308,0.04762,4.38516353,
0.04764,-2.642974603,0.04764,4.38516353,
0.04766,-2.277544308,0.04766,4.38516353,
0.04768,-1.54668372,0.04768,4.38516353,
0.0477,-0.8158231317,0.0477,4.750593824,
0.04772,-1.912114014,0.04772,4.750593824,
0.04774,-0.08496254339,0.04774,4.38516353,
0.04776,0.2804677508,0.04776,4.750593824,
0.04778,-0.4503928376,0.04778,4.38516353,
0.0478,1.742188927,0.0478,4.38516353,
0.04782,0.6458980449,0.04782,5.116024118,
0.04784,1.011328339,0.04784,4.38516353,
0.04786,2.107619222,0.04786,4.38516353,
0.04788,3.569340398,0.04788,5.116024118,
0.0479,2.473049516,0.0479,4.750593824,
0.04792,3.203910104,0.04792,3.654302942,
0.04794,2.83847981,0.04794,5.481454413,
0.04796,2.107619222,0.04796,4.38516353,
0.04798,2.83847981,0.04798,4.38516353,
0.048,7.589073634,0.048,5.116024118,
0.04802,4.300200987,0.04802,4.750593824,
0.04804,2.107619222,0.04804,4.38516353,
0.04806,4.665631281,0.04806,4.750593824,
0.04808,2.473049516,0.04808,4.38516353,
0.0481,3.934770692,0.0481,4.019733236,
0.04812,2.83847981,0.04812,5.846884707,
0.04814,2.107619222,0.04814,4.750593824,
0.04816,2.107619222,0.04816,4.38516353,
0.04818,1.376758633,0.04818,4.750593824,
0.0482,0.6458980449,0.0482,4.38516353,
0.04822,0.2804677508,0.04822,4.750593824,
0.04824,0.2804677508,0.04824,4.38516353,
0.04826,-0.8158231317,0.04826,4.750593824,
0.04828,-1.54668372,0.04828,5.116024118,
0.0483,-2.277544308,0.0483,3.654302942,
0.04832,-2.642974603,0.04832,3.288872648,
0.04834,-1.912114014,0.04834,4.38516353,
0.04836,-3.008404897,0.04836,3.654302942,
0.04838,-1.54668372,0.04838,4.38516353,
0.0484,-3.739265485,0.0484,4.019733236,
0.04842,-3.008404897,0.04842,3.288872648,
0.04844,-2.277544308,0.04844,4.750593824,
0.04846,-3.373835191,0.04846,4.38516353,
0.04848,-1.181253426,0.04848,4.019733236,
0.0485,-2.642974603,0.0485,4.38516353,
0.04852,-2.642974603,0.04852,5.116024118,
0.04854,-3.373835191,0.04854,4.019733236,
0.04856,-2.277544308,0.04856,4.38516353,
0.04858,-2.277544308,0.04858,4.019733236,
0.0486,-1.54668372,0.0486,4.019733236,
0.04862,-2.642974603,0.04862,3.654302942,
0.04864,-1.181253426,0.04864,4.38516353,
0.04866,-0.4503928376,0.04866,4.019733236,
0.04868,0.6458980449,0.04868,4.38516353,
0.0487,1.011328339,0.0487,4.38516353,
0.04872,1.011328339,0.04872,3.654302942,
0.04874,1.011328339,0.04874,4.019733236,
0.04876,2.107619222,0.04876,4.38516353,
0.04878,1.376758633,0.04878,4.38516353,
0.0488,4.665631281,0.0488,4.019733236,
0.04882,3.203910104,0.04882,5.116024118,
0.04884,2.473049516,0.04884,4.38516353,
0.04886,4.300200987,0.04886,4.38516353,
0.04888,3.934770692,0.04888,4.38516353,
0.0489,3.569340398,0.0489,3.288872648,
0.04892,5.031061575,0.04892,4.750593824,
0.04894,2.83847981,0.04894,4.38516353,
0.04896,2.83847981,0.04896,4.019733236,
0.04898,4.300200987,0.04898,4.38516353,
0.049,2.473049516,0.049,4.019733236,
0.04902,3.203910104,0.04902,3.288872648,
0.04904,1.376758633,0.04904,4.019733236,
0.04906,2.83847981,0.04906,4.019733236,
0.04908,0.6458980449,0.04908,3.654302942,
0.0491,1.011328339,0.0491,4.38516353,
0.04912,1.011328339,0.04912,3.654302942,
0.04914,-0.8158231317,0.04914,4.38516353,
0.04916,-0.8158231317,0.04916,4.750593824,
0.04918,-0.4503928376,0.04918,3.654302942,
0.0492,-1.181253426,0.0492,4.38516353,
0.04922,-1.54668372,0.04922,5.116024118,
0.04924,-1.181253426,0.04924,4.019733236,
0.04926,-2.642974603,0.04926,4.750593824,
0.04928,-1.912114014,0.04928,4.38516353,
0.0493,-4.104695779,0.0493,4.38516353,
0.04932,-3.373835191,0.04932,4.38516353,
0.04934,-0.4503928376,0.04934,4.750593824,
0.04936,-2.642974603,0.04936,4.38516353,
0.04938,-3.373835191,0.04938,3.654302942,
0.0494,-3.373835191,0.0494,4.019733236,
0.04942,-3.739265485,0.04942,4.019733236,
0.04944,-3.008404897,0.04944,3.654302942,
0.04946,-2.642974603,0.04946,4.019733236,
0.04948,-3.373835191,0.04948,4.38516353,
0.0495,-1.912114014,0.0495,4.019733236,
0.04952,-1.54668372,0.04952,4.38516353,
0.04954,-3.008404897,0.04954,4.019733236,
0.04956,-1.181253426,0.04956,4.019733236,
0.04958,-0.4503928376,0.04958,4.38516353,
0.0496,-0.8158231317,0.0496,4.019733236,
0.04962,0.2804677508,0.04962,4.019733236,
0.04964,1.376758633,0.04964,4.750593824,
0.04966,2.473049516,0.04966,4.019733236,
0.04968,0.6458980449,0.04968,4.38516353,
0.0497,1.376758633,0.0497,4.750593824,
0.04972,2.83847981,0.04972,4.38516353,
0.04974,2.107619222,0.04974,3.654302942,
0.04976,2.107619222,0.04976,4.38516353,
0.04978,4.665631281,0.04978,4.38516353,
0.0498,2.473049516,0.0498,4.38516353,
0.04982,2.473049516,0.04982,4.38516353,
0.04984,2.473049516,0.04984,4.750593824,
0.04986,3.569340398,0.04986,4.019733236,
0.04988,3.934770692,0.04988,4.38516353,
0.0499,3.569340398,0.0499,4.750593824,
0.04992,3.569340398,0.04992,3.654302942,
0.04994,3.203910104,0.04994,4.38516353,
0.04996,0.2804677508,0.04996,4.38516353,
0.04998,4.300200987,0.04998,4.38516353,
0.05,2.83847981,0.05,4.38516353,
0.05002,2.473049516,0.05002,4.38516353,
0.05004,2.83847981,0.05004,4.38516353,
0.05006,-0.4503928376,0.05006,4.750593824,
0.05008,0.2804677508,0.05008,4.38516353,
0.0501,-4.104695779,0.0501,4.750593824,
0.05012,-0.4503928376,0.05012,4.38516353,
0.05014,-3.008404897,0.05014,4.019733236,
0.05016,-1.912114014,0.05016,4.750593824,
0.05018,-3.373835191,0.05018,4.38516353,
0.0502,-0.08496254339,0.0502,4.019733236,
0.05022,-2.642974603,0.05022,4.019733236,
0.05024,-5.93184725,0.05024,4.38516353,
0.05026,-3.008404897,0.05026,5.116024118,
0.05028,-4.470126073,0.05028,4.750593824,
0.0503,-3.373835191,0.0503,4.019733236,
0.05032,-3.739265485,0.05032,4.750593824,
0.05034,-3.739265485,0.05034,4.38516353,
0.05036,-4.470126073,0.05036,4.019733236,
0.05038,-3.008404897,0.05038,4.750593824,
0.0504,-2.642974603,0.0504,4.019733236,
0.05042,-3.008404897,0.05042,4.38516353,
0.05044,-0.8158231317,0.05044,4.750593824,
0.05046,-0.4503928376,0.05046,4.38516353,
0.05048,-1.54668372,0.05048,4.38516353,
0.0505,-1.181253426,0.0505,4.750593824,
0.05052,-1.181253426,0.05052,4.38516353,
0.05054,-1.181253426,0.05054,5.116024118,
0.05056,-2.642974603,0.05056,5.116024118,
0.05058,0.6458980449,0.05058,4.38516353,
0.0506,0.6458980449,0.0506,4.019733236,
0.05062,1.376758633,0.05062,5.481454413,
0.05064,-0.4503928376,0.05064,4.38516353,
0.05066,1.742188927,0.05066,4.019733236,
0.05068,2.473049516,0.05068,4.750593824,
0.0507,2.83847981,0.0507,4.019733236,
0.05072,3.203910104,0.05072,4.38516353,
0.05074,2.83847981,0.05074,5.481454413,
0.05076,3.569340398,0.05076,4.019733236,
0.05078,2.473049516,0.05078,4.38516353,
0.0508,3.934770692,0.0508,4.750593824,
0.05082,2.473049516,0.05082,4.019733236,
0.05084,2.83847981,0.05084,3.654302942,
0.05086,3.569340398,0.05086,4.750593824,
0.05088,2.473049516,0.05088,4.38516353,
0.0509,3.569340398,0.0509,4.38516353,
0.05092,3.569340398,0.05092,5.116024118,
0.05094,2.107619222,0.05094,4.019733236,
0.05096,1.011328339,0.05096,4.38516353,
0.05098,1.742188927,0.05098,4.750593824,
0.051,-0.08496254339,0.051,4.750593824,
0.05102,-0.4503928376,0.05102,4.019733236,
0.05104,0.6458980449,0.05104,4.750593824,
0.05106,-1.912114014,0.05106,4.38516353,
0.05108,-1.912114014,0.05108,4.38516353,
0.0511,-1.912114014,0.0511,5.116024118,
0.05112,-2.277544308,0.05112,4.750593824,
0.05114,-1.54668372,0.05114,4.019733236,
0.05116,-3.739265485,0.05116,4.750593824,
0.05118,-6.662707838,0.05118,4.38516353,
0.0512,-4.104695779,0.0512,4.019733236,
0.05122,-4.104695779,0.05122,4.750593824,
0.05124,-3.739265485,0.05124,4.38516353,
0.05126,-3.739265485,0.05126,4.019733236,
0.05128,-1.912114014,0.05128,4.38516353,
0.0513,-3.373835191,0.0513,4.38516353,
0.05132,-3.373835191,0.05132,4.019733236,
0.05134,-3.739265485,0.05134,5.116024118,
0.05136,-5.200986662,0.05136,4.38516353,
0.05138,-1.181253426,0.05138,4.38516353,
0.0514,-1.912114014,0.0514,4.750593824,
0.05142,-2.642974603,0.05142,4.019733236,
0.05144,-1.912114014,0.05144,4.38516353,
0.05146,-0.4503928376,0.05146,4.750593824,
0.05148,-1.181253426,0.05148,4.019733236,
0.0515,-0.08496254339,0.0515,4.38516353,
0.05152,-0.08496254339,0.05152,4.750593824,
0.05154,1.011328339,0.05154,4.38516353,
0.05156,1.376758633,0.05156,4.38516353,
0.05158,2.107619222,0.05158,4.750593824,
0.0516,1.376758633,0.0516,3.654302942,
0.05162,2.473049516,0.05162,4.38516353,
0.05164,4.300200987,0.05164,4.750593824,
0.05166,2.107619222,0.05166,4.38516353,
0.05168,3.203910104,0.05168,4.38516353,
0.0517,4.665631281,0.0517,4.750593824,
0.05172,3.203910104,0.05172,4.38516353,
0.05174,5.031061575,0.05174,4.019733236,
0.05176,2.107619222,0.05176,4.750593824,
0.05178,3.203910104,0.05178,4.38516353,
0.0518,3.934770692,0.0518,4.38516353,
0.05182,2.83847981,0.05182,5.481454413,
0.05184,2.83847981,0.05184,3.654302942,
0.05186,2.473049516,0.05186,4.38516353,
0.05188,1.742188927,0.05188,5.116024118,
0.0519,1.011328339,0.0519,4.38516353,
0.05192,0.6458980449,0.05192,4.019733236,
0.05194,-0.08496254339,0.05194,5.481454413,
0.05196,-1.912114014,0.05196,4.38516353,
0.05198,-0.08496254339,0.05198,4.019733236,
0.052,-4.470126073,0.052,5.116024118,
0.05202,-1.181253426,0.05202,4.38516353,
0.05204,-3.008404897,0.05204,3.654302942,
0.05206,-3.008404897,0.05206,4.750593824,
0.05208,-3.739265485,0.05208,4.38516353,
0.0521,-2.277544308,0.0521,4.38516353,
0.05212,-1.912114014,0.05212,4.38516353,
0.05214,-3.008404897,0.05214,4.38516353,
0.05216,-2.277544308,0.05216,4.750593824,
0.05218,-3.373835191,0.05218,4.750593824,
0.0522,-4.835556368,0.0522,5.116024118,
0.05222,-2.642974603,0.05222,4.019733236,
0.05224,-2.642974603,0.05224,5.116024118,
0.05226,-3.008404897,0.05226,4.750593824,
0.05228,-3.008404897,0.05228,4.38516353,
0.0523,-2.642974603,0.0523,4.750593824,
0.05232,-4.104695779,0.05232,4.38516353,
0.05234,0.2804677508,0.05234,4.019733236,
0.05236,-0.8158231317,0.05236,4.750593824,
0.05238,-1.181253426,0.05238,4.750593824,
0.0524,-0.08496254339,0.0524,4.38516353,
0.05242,-0.08496254339,0.05242,4.38516353,
0.05244,2.473049516,0.05244,3.654302942,
0.05246,0.2804677508,0.05246,4.38516353,
0.05248,1.376758633,0.05248,4.750593824,
0.0525,1.376758633,0.0525,4.38516353,
0.05252,-0.8158231317,0.05252,4.019733236,
0.05254,2.83847981,0.05254,2.923442353,
0.05256,2.83847981,0.05256,4.750593824,
0.05258,5.761922163,0.05258,3.654302942,
0.0526,3.569340398,0.0526,4.750593824,
0.05262,2.107619222,0.05262,4.750593824,
0.05264,3.203910104,0.05264,4.750593824,
0.05266,3.934770692,0.05266,4.750593824,
0.05268,3.203910104,0.05268,4.750593824,
0.0527,2.83847981,0.0527,4.019733236,
0.05272,3.934770692,0.05272,4.750593824,
0.05274,2.83847981,0.05274,6.577745295,
0.05276,4.300200987,0.05276,4.38516353,
0.05278,2.107619222,0.05278,4.750593824,
0.0528,1.742188927,0.0528,4.750593824,
0.05282,2.83847981,0.05282,4.019733236,
0.05284,2.473049516,0.05284,5.481454413,
0.05286,0.2804677508,0.05286,4.38516353,
0.05288,0.2804677508,0.05288,4.38516353,
0.0529,-1.54668372,0.0529,4.38516353,
0.05292,-1.181253426,0.05292,4.38516353,
0.05294,0.2804677508,0.05294,2.558012059,
0.05296,0.6458980449,0.05296,4.38516353,
0.05298,-2.277544308,0.05298,4.38516353,
0.053,-1.54668372,0.053,4.38516353,
0.05302,-1.54668372,0.05302,4.38516353,
0.05304,-3.008404897,0.05304,5.481454413,
0.05306,-2.642974603,0.05306,4.019733236,
0.05308,-6.297277544,0.05308,4.38516353,
0.0531,-2.642974603,0.0531,5.116024118,
0.05312,-4.104695779,0.05312,4.750593824,
0.05314,-2.642974603,0.05314,5.116024118,
0.05316,-5.200986662,0.05316,5.116024118,
0.05318,-3.008404897,0.05318,4.38516353,
0.0532,-4.104695779,0.0532,4.750593824,
0.05322,-2.277544308,0.05322,4.38516353,
0.05324,-2.642974603,0.05324,3.288872648,
0.05326,-3.008404897,0.05326,4.750593824,
0.05328,-2.642974603,0.05328,4.750593824,
0.0533,-1.181253426,0.0533,4.750593824,
0.05332,-0.8158231317,0.05332,4.750593824,
0.05334,-1.912114014,0.05334,3.654302942,
0.05336,0.6458980449,0.05336,4.38516353,
0.05338,1.742188927,0.05338,4.750593824,
0.0534,0.2804677508,0.0534,4.38516353,
0.05342,1.742188927,0.05342,4.38516353,
0.05344,3.203910104,0.05344,5.116024118,
0.05346,3.934770692,0.05346,4.38516353,
0.05348,3.203910104,0.05348,4.019733236,
0.0535,2.473049516,0.0535,4.750593824,
0.05352,5.031061575,0.05352,4.38516353,
0.05354,3.934770692,0.05354,4.019733236,
0.05356,2.107619222,0.05356,4.750593824,
0.05358,3.203910104,0.05358,5.116024118,
0.0536,4.665631281,0.0536,4.019733236,
0.05362,3.569340398,0.05362,4.750593824,
0.05364,3.203910104,0.05364,3.654302942,
0.05366,3.934770692,0.05366,4.38516353,
0.05368,3.203910104,0.05368,4.750593824,
0.0537,1.742188927,0.0537,4.38516353,
0.05372,2.473049516,0.05372,4.38516353,
0.05374,3.569340398,0.05374,4.750593824,
0.05376,1.742188927,0.05376,4.38516353,
0.05378,1.011328339,0.05378,3.654302942,
0.0538,1.011328339,0.0538,4.750593824,
0.05382,-0.4503928376,0.05382,4.38516353,
0.05384,1.742188927,0.05384,4.019733236,
0.05386,-0.4503928376,0.05386,4.38516353,
0.05388,-1.181253426,0.05388,5.116024118,
0.0539,-1.54668372,0.0539,4.019733236,
0.05392,-3.008404897,0.05392,4.750593824,
0.05394,-2.642974603,0.05394,4.38516353,
0.05396,-2.642974603,0.05396,4.019733236,
0.05398,-1.912114014,0.05398,4.38516353,
0.054,-4.104695779,0.054,4.38516353,
0.05402,-3.008404897,0.05402,4.38516353,
0.05404,-1.54668372,0.05404,4.38516353,
0.05406,-2.277544308,0.05406,4.38516353,
0.05408,-3.739265485,0.05408,4.38516353,
0.0541,-2.642974603,0.0541,4.019733236,
0.05412,-2.642974603,0.05412,4.750593824,
0.05414,-3.008404897,0.05414,4.019733236,
0.05416,-4.835556368,0.05416,3.654302942,
0.05418,-1.912114014,0.05418,4.019733236,
0.0542,1.011328339,0.0542,4.38516353,
0.05422,-2.277544308,0.05422,4.019733236,
0.05424,-1.912114014,0.05424,4.019733236,
0.05426,-0.4503928376,0.05426,4.019733236,
0.05428,-0.4503928376,0.05428,4.019733236,
0.0543,1.011328339,0.0543,4.38516353,
0.05432,2.107619222,0.05432,4.38516353,
0.05434,1.011328339,0.05434,4.019733236,
0.05436,1.742188927,0.05436,4.019733236,
0.05438,2.473049516,0.05438,4.38516353,
0.0544,2.83847981,0.0544,4.019733236,
0.05442,3.203910104,0.05442,4.019733236,
0.05444,3.569340398,0.05444,4.750593824,
0.05446,3.569340398,0.05446,4.019733236,
0.05448,6.127352458,0.05448,4.38516353,
0.0545,4.300200987,0.0545,4.019733236,
0.05452,4.300200987,0.05452,4.019733236,
0.05454,3.203910104,0.05454,4.019733236,
0.05456,3.934770692,0.05456,4.38516353,
0.05458,3.203910104,0.05458,4.019733236,
0.0546,3.569340398,0.0546,4.38516353,
0.05462,2.107619222,0.05462,4.019733236,
0.05464,4.300200987,0.05464,3.654302942,
0.05466,1.376758633,0.05466,4.750593824,
0.05468,2.473049516,0.05468,4.019733236,
0.0547,1.011328339,0.0547,3.654302942,
0.05472,0.6458980449,0.05472,5.116024118,
0.05474,0.6458980449,0.05474,4.750593824,
0.05476,-3.008404897,0.05476,4.019733236,
0.05478,-0.08496254339,0.05478,3.654302942,
0.0548,-1.912114014,0.0548,4.38516353,
0.05482,-2.642974603,0.05482,4.019733236,
0.05484,-1.181253426,0.05484,4.38516353,
0.05486,-2.277544308,0.05486,4.750593824,
0.05488,-3.373835191,0.05488,4.750593824,
0.0549,-3.008404897,0.0549,4.38516353,
0.05492,-3.373835191,0.05492,4.750593824,
0.05494,-3.008404897,0.05494,4.750593824,
0.05496,-3.739265485,0.05496,4.38516353,
0.05498,-3.008404897,0.05498,4.38516353,
0.055,-2.642974603,0.055,4.019733236,
0.05502,-3.008404897,0.05502,4.38516353,
0.05504,-3.739265485,0.05504,4.38516353,
0.05506,-3.008404897,0.05506,4.38516353,
0.05508,-2.277544308,0.05508,4.38516353,
0.0551,-1.912114014,0.0551,4.750593824,
0.05512,-2.277544308,0.05512,4.38516353,
0.05514,-3.008404897,0.05514,4.019733236,
0.05516,-1.54668372,0.05516,4.750593824,
0.05518,-1.181253426,0.05518,4.019733236,
0.0552,-0.08496254339,0.0552,4.750593824,
0.05522,0.2804677508,0.05522,4.750593824,
0.05524,-1.181253426,0.05524,4.38516353,
0.05526,1.376758633,0.05526,4.019733236,
0.05528,2.107619222,0.05528,4.38516353,
0.0553,1.011328339,0.0553,4.750593824,
0.05532,2.83847981,0.05532,4.38516353,
0.05534,3.569340398,0.05534,4.750593824,
0.05536,1.742188927,0.05536,4.38516353,
0.05538,3.569340398,0.05538,4.750593824,
0.0554,3.203910104,0.0554,4.750593824,
0.05542,3.203910104,0.05542,4.750593824,
0.05544,4.665631281,0.05544,4.38516353,
0.05546,3.569340398,0.05546,4.750593824,
0.05548,3.569340398,0.05548,5.116024118,
0.0555,3.934770692,0.0555,4.750593824,
0.05552,2.83847981,0.05552,4.38516353,
0.05554,3.569340398,0.05554,4.019733236,
0.05556,2.83847981,0.05556,4.019733236,
0.05558,2.473049516,0.05558,5.116024118,
0.0556,1.742188927,0.0556,4.38516353,
0.05562,2.107619222,0.05562,4.38516353,
0.05564,1.376758633,0.05564,4.019733236,
0.05566,1.011328339,0.05566,5.116024118,
0.05568,0.2804677508,0.05568,4.750593824,
0.0557,-0.8158231317,0.0557,4.750593824,
0.05572,-0.08496254339,0.05572,4.38516353,
0.05574,-0.8158231317,0.05574,4.38516353,
0.05576,-2.642974603,0.05576,4.38516353,
0.05578,-2.277544308,0.05578,4.750593824,
0.0558,-0.8158231317,0.0558,4.38516353,
0.05582,-3.373835191,0.05582,4.750593824,
0.05584,-2.642974603,0.05584,4.750593824,
0.05586,-3.739265485,0.05586,4.019733236,
0.05588,-5.93184725,0.05588,4.750593824,
0.0559,-1.54668372,0.0559,4.38516353,
0.05592,-3.739265485,0.05592,4.750593824,
0.05594,-3.008404897,0.05594,4.750593824,
0.05596,-3.373835191,0.05596,4.750593824,
0.05598,-4.104695779,0.05598,4.019733236,
0.056,-3.008404897,0.056,4.750593824,
0.05602,-3.373835191,0.05602,4.38516353,
0.05604,-2.642974603,0.05604,4.019733236,
0.05606,-1.912114014,0.05606,5.116024118,
0.05608,-1.54668372,0.05608,3.654302942,
0.0561,-2.642974603,0.0561,4.019733236,
0.05612,-0.4503928376,0.05612,5.116024118,
0.05614,-0.8158231317,0.05614,4.38516353,
0.05616,1.742188927,0.05616,2.923442353,
0.05618,-0.8158231317,0.05618,4.38516353,
0.0562,-0.8158231317,0.0562,4.38516353,
0.05622,2.107619222,0.05622,4.019733236,
0.05624,0.2804677508,0.05624,4.750593824,
0.05626,2.107619222,0.05626,5.116024118,
0.05628,1.376758633,0.05628,4.019733236,
0.0563,2.83847981,0.0563,4.750593824,
0.05632,2.473049516,0.05632,4.38516353,
0.05634,3.934770692,0.05634,4.38516353,
0.05636,3.934770692,0.05636,4.750593824,
0.05638,2.107619222,0.05638,4.38516353,
0.0564,3.203910104,0.0564,4.38516353,
0.05642,2.83847981,0.05642,4.750593824,
0.05644,2.83847981,0.05644,4.38516353,
0.05646,2.473049516,0.05646,2.923442353,
0.05648,3.934770692,0.05648,5.116024118,
0.0565,2.107619222,0.0565,4.750593824,
0.05652,2.107619222,0.05652,4.019733236,
0.05654,2.83847981,0.05654,4.750593824,
0.05656,1.011328339,0.05656,4.019733236,
0.05658,0.2804677508,0.05658,4.38516353,
0.0566,0.6458980449,0.0566,4.750593824,
0.05662,-0.08496254339,0.05662,4.38516353,
0.05664,-1.54668372,0.05664,4.019733236,
0.05666,-1.54668372,0.05666,5.481454413,
0.05668,-0.8158231317,0.05668,4.38516353,
0.0567,-3.373835191,0.0567,4.019733236,
0.05672,-3.008404897,0.05672,4.750593824,
0.05674,-4.104695779,0.05674,4.019733236,
0.05676,-4.470126073,0.05676,3.654302942,
0.05678,-3.008404897,0.05678,4.750593824,
0.0568,-3.373835191,0.0568,4.019733236,
0.05682,-3.373835191,0.05682,4.019733236,
0.05684,-3.373835191,0.05684,5.116024118,
0.05686,-1.912114014,0.05686,3.654302942,
0.05688,-5.200986662,0.05688,4.019733236,
0.0569,-3.739265485,0.0569,4.38516353,
0.05692,-3.373835191,0.05692,4.38516353,
0.05694,-1.54668372,0.05694,4.38516353,
0.05696,-2.277544308,0.05696,5.481454413,
0.05698,-0.8158231317,0.05698,4.38516353,
0.057,-2.277544308,0.057,4.019733236,
0.05702,-1.54668372,0.05702,4.750593824,
0.05704,-1.54668372,0.05704,4.38516353,
0.05706,-1.54668372,0.05706,3.288872648,
0.05708,2.107619222,0.05708,4.750593824,
0.0571,0.2804677508,0.0571,4.750593824,
0.05712,0.2804677508,0.05712,4.019733236,
0.05714,1.011328339,0.05714,4.750593824,
0.05716,1.742188927,0.05716,4.019733236,
0.05718,0.2804677508,0.05718,4.019733236,
0.0572,2.473049516,0.0572,5.481454413,
0.05722,2.107619222,0.05722,4.38516353,
0.05724,2.83847981,0.05724,4.38516353,
0.05726,2.83847981,0.05726,5.116024118,
0.05728,5.761922163,0.05728,4.38516353,
0.0573,3.569340398,0.0573,4.019733236,
0.05732,2.473049516,0.05732,4.750593824,
0.05734,3.203910104,0.05734,4.750593824,
0.05736,3.569340398,0.05736,3.654302942,
0.05738,2.83847981,0.05738,4.750593824,
0.0574,2.83847981,0.0574,4.38516353,
0.05742,3.203910104,0.05742,4.38516353,
0.05744,1.742188927,0.05744,4.38516353,
0.05746,0.6458980449,0.05746,4.019733236,
0.05748,1.011328339,0.05748,4.019733236,
0.0575,1.376758633,0.0575,4.750593824,
0.05752,0.6458980449,0.05752,4.750593824,
0.05754,0.6458980449,0.05754,4.019733236,
0.05756,-1.54668372,0.05756,4.38516353,
0.05758,-1.54668372,0.05758,4.38516353,
0.0576,-0.8158231317,0.0576,4.38516353,
0.05762,-2.277544308,0.05762,4.38516353,
0.05764,-3.739265485,0.05764,4.019733236,
0.05766,-2.642974603,0.05766,4.38516353,
0.05768,0.6458980449,0.05768,5.116024118,
0.0577,-1.54668372,0.0577,4.019733236,
0.05772,-3.008404897,0.05772,4.019733236,
0.05774,-4.104695779,0.05774,4.750593824,
0.05776,-4.104695779,0.05776,4.38516353,
0.05778,-3.373835191,0.05778,4.019733236,
0.0578,-2.642974603,0.0578,4.38516353,
0.05782,-3.739265485,0.05782,4.750593824,
0.05784,-3.739265485,0.05784,4.38516353,
0.05786,-3.008404897,0.05786,4.750593824,
0.05788,-5.566416956,0.05788,4.750593824,
0.0579,-1.912114014,0.0579,4.38516353,
0.05792,0.2804677508,0.05792,4.750593824,
0.05794,-2.277544308,0.05794,4.750593824,
0.05796,-0.8158231317,0.05796,4.750593824,
0.05798,-1.912114014,0.05798,4.750593824,
0.058,-0.8158231317,0.058,4.38516353,
0.05802,-0.08496254339,0.05802,4.750593824,
0.05804,0.6458980449,0.05804,4.750593824,
0.05806,1.011328339,0.05806,4.38516353,
0.05808,1.742188927,0.05808,4.38516353,
0.0581,2.107619222,0.0581,4.750593824,
0.05812,2.473049516,0.05812,4.38516353,
0.05814,2.83847981,0.05814,4.38516353,
0.05816,2.83847981,0.05816,4.750593824,
0.05818,-0.4503928376,0.05818,4.750593824,
0.0582,4.300200987,0.0582,4.019733236,
0.05822,1.742188927,0.05822,4.38516353,
0.05824,3.569340398,0.05824,4.019733236,
0.05826,3.934770692,0.05826,4.38516353,
0.05828,2.83847981,0.05828,4.750593824,
0.0583,3.569340398,0.0583,4.750593824,
0.05832,3.569340398,0.05832,4.38516353,
0.05834,2.83847981,0.05834,4.750593824,
0.05836,2.83847981,0.05836,4.750593824,
0.05838,-0.08496254339,0.05838,4.38516353,
0.0584,2.107619222,0.0584,4.38516353,
0.05842,2.107619222,0.05842,4.38516353,
0.05844,1.742188927,0.05844,4.38516353,
0.05846,1.742188927,0.05846,4.38516353,
0.05848,-1.54668372,0.05848,4.019733236,
0.0585,0.6458980449,0.0585,4.38516353,
0.05852,-1.912114014,0.05852,4.750593824,
0.05854,-1.181253426,0.05854,4.38516353,
0.05856,-1.912114014,0.05856,4.019733236,
0.05858,-0.8158231317,0.05858,5.116024118,
0.0586,-3.373835191,0.0586,4.38516353,
0.05862,-2.642974603,0.05862,4.38516353,
0.05864,-2.277544308,0.05864,5.116024118,
0.05866,-3.739265485,0.05866,4.38516353,
0.05868,-2.277544308,0.05868,4.38516353,
0.0587,-2.642974603,0.0587,5.116024118,
0.05872,-3.739265485,0.05872,4.750593824,
0.05874,-3.008404897,0.05874,4.38516353,
0.05876,-3.008404897,0.05876,4.019733236,
0.05878,-3.373835191,0.05878,4.38516353,
0.0588,-1.912114014,0.0588,4.750593824,
0.05882,-2.642974603,0.05882,4.38516353,
