"A0_accX_x","A0_accX_y","A1_rmsX_x","A1_rmsX_y"
0,2.853506304,0,4.38516353,
2e-05,1.757215421,2e-05,4.750593824,
4e-05,-0.800796638,4e-05,4.38516353,
6e-05,1.757215421,6e-05,4.38516353,
8e-05,0.6609245386,8e-05,4.750593824,
0.0001,-1.166226932,0.0001,4.750593824,
0.00012,-0.4353663439,0.00012,4.38516353,
0.00014,-3.358808697,0.00014,4.750593824,
0.00016,-1.897087521,0.00016,4.38516353,
0.00018,-2.627948109,0.00018,4.019733236,
0.0002,-3.358808697,0.0002,4.750593824,
0.00022,-4.820529874,0.00022,4.38516353,
0.00024,-0.4353663439,0.00024,4.38516353,
0.00026,-4.820529874,0.00026,4.38516353,
0.00028,-3.358808697,0.00028,4.38516353,
0.0003,-3.358808697,0.0003,4.019733236,
0.00032,-2.627948109,0.00032,4.38516353,
0.00034,-2.993378403,0.00034,4.38516353,
0.00036,-3.724238991,0.00036,4.38516353,
0.00038,-3.358808697,0.00038,4.750593824,
0.0004,-2.993378403,0.0004,4.38516353,
0.00042,-3.724238991,0.00042,4.019733236,
0.00044,-1.531657226,0.00044,5.116024118,
0.00046,-2.262517815,0.00046,4.38516353,
0.00048,-1.166226932,0.00048,4.019733236,
0.0005,-1.166226932,0.0005,5.116024118,
0.00052,-0.800796638,0.00052,4.019733236,
0.00054,1.026354833,0.00054,4.019733236,
0.00056,-1.166226932,0.00056,4.38516353,
0.00058,0.6609245386,0.00058,4.750593824,
0.0006,3.584366892,0.0006,4.019733236,
0.00062,1.026354833,0.00062,4.750593824,
0.00064,1.391785127,0.00064,4.019733236,
0.00066,2.122645715,0.00066,4.38516353,
0.00068,2.853506304,0.00068,4.750593824,
0.0007,4.680657775,0.0007,4.38516353,
0.00072,2.853506304,0.00072,4.38516353,
0.00074,3.584366892,0.00074,4.750593824,
0.00076,3.584366892,0.00076,5.116024118,
0.00078,3.218936598,0.00078,4.38516353,
0.0008,3.218936598,0.0008,4.38516353,
0.00082,3.218936598,0.00082,4.38516353,
0.00084,3.218936598,0.00084,4.38516353,
0.00086,2.122645715,0.00086,4.38516353,
0.00088,2.853506304,0.00088,4.38516353,
0.0009,2.48807601,0.0009,4.38516353,
0.00092,2.122645715,0.00092,4.750593824,
0.00094,0.6609245386,0.00094,4.750593824,
0.00096,0.6609245386,0.00096,3.654302942,
0.00098,1.026354833,0.00098,5.116024118,
0.001,0.2954942445,0.001,4.38516353,
0.00102,0.6609245386,0.00102,4.750593824,
0.00104,-0.4353663439,0.00104,4.750593824,
0.00106,-1.531657226,0.00106,4.019733236,
0.00108,-0.800796638,0.00108,4.38516353,
0.0011,-1.897087521,0.0011,5.116024118,
0.00112,-2.627948109,0.00112,4.750593824,
0.00114,-2.627948109,0.00114,4.38516353,
0.00116,-2.627948109,0.00116,4.750593824,
0.00118,-2.993378403,0.00118,4.38516353,
0.0012,-4.089669286,0.0012,4.019733236,
0.00122,-3.724238991,0.00122,4.750593824,
0.00124,-2.627948109,0.00124,4.750593824,
0.00126,-2.993378403,0.00126,5.116024118,
0.00128,-2.993378403,0.00128,4.750593824,
0.0013,-2.627948109,0.0013,4.38516353,
0.00132,-2.262517815,0.00132,4.38516353,
0.00134,-2.993378403,0.00134,4.38516353,
0.00136,-3.724238991,0.00136,3.288872648,
0.00138,-1.897087521,0.00138,4.019733236,
0.0014,-1.531657226,0.0014,5.481454413,
0.00142,-2.262517815,0.00142,4.750593824,
0.00144,-1.531657226,0.00144,4.019733236,
0.00146,-0.800796638,0.00146,5.846884707,
0.00148,-0.800796638,0.00148,4.750593824,
0.0015,1.026354833,0.0015,4.38516353,
0.00152,1.026354833,0.00152,4.38516353,
0.00154,0.6609245386,0.00154,4.38516353,
0.00156,2.122645715,0.00156,4.019733236,
0.00158,4.680657775,0.00158,4.750593824,
0.0016,1.757215421,0.0016,4.019733236,
0.00162,2.853506304,0.00162,4.38516353,
0.00164,3.949797186,0.00164,4.750593824,
0.00166,2.48807601,0.00166,3.654302942,
0.00168,3.218936598,0.00168,4.38516353,
0.0017,3.584366892,0.0017,4.38516353,
0.00172,4.31522748,0.00172,4.38516353,
0.00174,3.949797186,0.00174,4.750593824,
0.00176,3.218936598,0.00176,3.654302942,
0.00178,2.122645715,0.00178,4.38516353,
0.0018,3.584366892,0.0018,4.019733236,
0.00182,2.853506304,0.00182,4.750593824,
0.00184,1.757215421,0.00184,4.019733236,
0.00186,4.31522748,0.00186,5.481454413,
0.00188,2.122645715,0.00188,4.019733236,
0.0019,0.6609245386,0.0019,3.654302942,
0.00192,2.122645715,0.00192,4.38516353,
0.00194,0.6609245386,0.00194,4.750593824,
0.00196,-0.4353663439,0.00196,4.38516353,
0.00198,-0.800796638,0.00198,4.750593824,
0.002,-0.4353663439,0.002,4.38516353,
0.00202,-1.166226932,0.00202,4.019733236,
0.00204,-0.4353663439,0.00204,4.38516353,
0.00206,-1.531657226,0.00206,3.654302942,
0.00208,-4.45509958,0.00208,3.288872648,
0.0021,-2.993378403,0.0021,4.019733236,
0.00212,-2.993378403,0.00212,4.38516353,
0.00214,-4.089669286,0.00214,3.654302942,
0.00216,-2.993378403,0.00216,2.923442353,
0.00218,-5.916820756,0.00218,4.38516353,
0.0022,-3.358808697,0.0022,4.019733236,
0.00222,-3.724238991,0.00222,4.38516353,
0.00224,-2.993378403,0.00224,4.38516353,
0.00226,-2.262517815,0.00226,4.019733236,
0.00228,-2.627948109,0.00228,4.38516353,
0.0023,-1.897087521,0.0023,4.38516353,
0.00232,-1.897087521,0.00232,3.654302942,
0.00234,-2.993378403,0.00234,4.019733236,
0.00236,-0.800796638,0.00236,3.654302942,
0.00238,0.2954942445,0.00238,4.019733236,
0.0024,-0.4353663439,0.0024,4.019733236,
0.00242,0.6609245386,0.00242,4.38516353,
0.00244,0.6609245386,0.00244,3.654302942,
0.00246,1.391785127,0.00246,4.38516353,
0.00248,-0.0699360497,0.00248,4.38516353,
0.0025,2.853506304,0.0025,4.019733236,
0.00252,2.122645715,0.00252,4.019733236,
0.00254,3.218936598,0.00254,4.38516353,
0.00256,2.48807601,0.00256,4.38516353,
0.00258,4.680657775,0.00258,4.38516353,
0.0026,4.31522748,0.0026,4.019733236,
0.00262,2.48807601,0.00262,3.654302942,
0.00264,4.31522748,0.00264,4.38516353,
0.00266,3.584366892,0.00266,4.019733236,
0.00268,3.949797186,0.00268,3.654302942,
0.0027,4.31522748,0.0027,4.38516353,
0.00272,2.853506304,0.00272,4.38516353,
0.00274,3.949797186,0.00274,4.019733236,
0.00276,2.48807601,0.00276,4.019733236,
0.00278,2.122645715,0.00278,4.750593824,
0.0028,2.48807601,0.0028,4.019733236,
0.00282,1.026354833,0.00282,4.38516353,
0.00284,0.6609245386,0.00284,4.019733236,
0.00286,-0.4353663439,0.00286,4.019733236,
0.00288,0.6609245386,0.00288,4.019733236,
0.0029,-1.531657226,0.0029,4.38516353,
0.00292,-0.800796638,0.00292,4.019733236,
0.00294,-1.166226932,0.00294,4.38516353,
0.00296,-3.724238991,0.00296,4.38516353,
0.00298,-1.166226932,0.00298,4.019733236,
0.003,-1.531657226,0.003,4.019733236,
0.00302,-4.089669286,0.00302,4.38516353,
0.00304,-2.262517815,0.00304,4.38516353,
0.00306,-2.993378403,0.00306,3.654302942,
0.00308,-4.089669286,0.00308,4.38516353,
0.0031,-3.724238991,0.0031,4.019733236,
0.00312,-4.089669286,0.00312,4.019733236,
0.00314,-2.993378403,0.00314,4.019733236,
0.00316,-3.724238991,0.00316,4.019733236,
0.00318,-3.358808697,0.00318,4.38516353,
0.0032,-1.166226932,0.0032,4.38516353,
0.00322,-2.993378403,0.00322,3.654302942,
0.00324,-4.089669286,0.00324,4.38516353,
0.00326,-0.4353663439,0.00326,4.38516353,
0.00328,-0.0699360497,0.00328,4.019733236,
0.0033,-0.4353663439,0.0033,4.38516353,
0.00332,-0.0699360497,0.00332,4.019733236,
0.00334,-0.4353663439,0.00334,4.019733236,
0.00336,-0.0699360497,0.00336,4.019733236,
0.00338,2.122645715,0.00338,4.019733236,
0.0034,-0.4353663439,0.0034,3.654302942,
0.00342,2.122645715,0.00342,4.38516353,
0.00344,2.122645715,0.00344,4.019733236,
0.00346,2.48807601,0.00346,4.38516353,
0.00348,3.218936598,0.00348,4.38516353,
0.0035,3.218936598,0.0035,4.38516353,
0.00352,1.757215421,0.00352,4.38516353,
0.00354,1.026354833,0.00354,4.38516353,
0.00356,1.757215421,0.00356,4.019733236,
0.00358,2.122645715,0.00358,4.019733236,
0.0036,4.680657775,0.0036,4.38516353,
0.00362,3.584366892,0.00362,3.654302942,
0.00364,2.853506304,0.00364,4.019733236,
0.00366,3.584366892,0.00366,4.38516353,
0.00368,2.853506304,0.00368,4.019733236,
0.0037,2.48807601,0.0037,4.019733236,
0.00372,2.48807601,0.00372,4.019733236,
0.00374,2.48807601,0.00374,4.019733236,
0.00376,1.026354833,0.00376,4.019733236,
0.00378,1.391785127,0.00378,4.38516353,
0.0038,0.6609245386,0.0038,4.019733236,
0.00382,0.6609245386,0.00382,4.38516353,
0.00384,-1.531657226,0.00384,4.38516353,
0.00386,-0.0699360497,0.00386,4.38516353,
0.00388,-1.531657226,0.00388,4.38516353,
0.0039,-2.993378403,0.0039,4.019733236,
0.00392,-2.627948109,0.00392,4.38516353,
0.00394,-2.627948109,0.00394,4.750593824,
0.00396,-2.627948109,0.00396,4.38516353,
0.00398,-3.724238991,0.00398,4.019733236,
0.004,-2.993378403,0.004,4.38516353,
0.00402,-4.45509958,0.00402,4.38516353,
0.00404,-4.820529874,0.00404,4.019733236,
0.00406,-3.724238991,0.00406,4.750593824,
0.00408,-3.724238991,0.00408,4.019733236,
0.0041,-1.166226932,0.0041,4.019733236,
0.00412,-3.724238991,0.00412,4.38516353,
0.00414,-3.358808697,0.00414,4.750593824,
0.00416,-3.724238991,0.00416,4.750593824,
0.00418,-3.358808697,0.00418,4.38516353,
0.0042,-2.627948109,0.0042,4.38516353,
0.00422,-1.531657226,0.00422,4.750593824,
0.00424,-1.166226932,0.00424,4.38516353,
0.00426,-0.0699360497,0.00426,4.750593824,
0.00428,0.6609245386,0.00428,5.481454413,
0.0043,1.391785127,0.0043,4.750593824,
0.00432,1.391785127,0.00432,5.116024118,
0.00434,2.122645715,0.00434,4.750593824,
0.00436,2.122645715,0.00436,4.38516353,
0.00438,1.757215421,0.00438,4.38516353,
0.0044,2.122645715,0.0044,4.38516353,
0.00442,2.48807601,0.00442,4.019733236,
0.00444,2.48807601,0.00444,4.750593824,
0.00446,3.584366892,0.00446,4.750593824,
0.00448,3.584366892,0.00448,4.019733236,
0.0045,3.218936598,0.0045,4.38516353,
0.00452,2.122645715,0.00452,4.019733236,
0.00454,2.853506304,0.00454,4.750593824,
0.00456,3.218936598,0.00456,4.38516353,
0.00458,3.218936598,0.00458,4.38516353,
0.0046,3.584366892,0.0046,4.750593824,
0.00462,2.122645715,0.00462,4.38516353,
0.00464,1.757215421,0.00464,4.38516353,
0.00466,1.391785127,0.00466,4.750593824,
0.00468,1.757215421,0.00468,4.750593824,
0.0047,-0.0699360497,0.0047,4.38516353,
0.00472,-0.4353663439,0.00472,4.750593824,
0.00474,-1.897087521,0.00474,4.019733236,
0.00476,-0.800796638,0.00476,4.019733236,
0.00478,-1.531657226,0.00478,5.116024118,
0.0048,-1.531657226,0.0048,4.38516353,
0.00482,-1.897087521,0.00482,4.019733236,
0.00484,-1.531657226,0.00484,4.750593824,
0.00486,-3.358808697,0.00486,4.019733236,
0.00488,-3.724238991,0.00488,3.654302942,
0.0049,-2.993378403,0.0049,4.750593824,
0.00492,-3.358808697,0.00492,4.019733236,
0.00494,-3.358808697,0.00494,3.654302942,
0.00496,-3.724238991,0.00496,4.750593824,
0.00498,-3.358808697,0.00498,4.750593824,
0.005,-3.358808697,0.005,4.38516353,
0.00502,-4.45509958,0.00502,4.750593824,
0.00504,-2.627948109,0.00504,4.019733236,
0.00506,-2.993378403,0.00506,4.019733236,
0.00508,-2.262517815,0.00508,5.846884707,
0.0051,-3.358808697,0.0051,4.38516353,
0.00512,-1.531657226,0.00512,4.019733236,
0.00514,-2.262517815,0.00514,5.116024118,
0.00516,-1.166226932,0.00516,4.38516353,
0.00518,1.391785127,0.00518,3.654302942,
0.0052,0.2954942445,0.0052,4.750593824,
0.00522,-0.800796638,0.00522,4.38516353,
0.00524,-0.4353663439,0.00524,4.38516353,
0.00526,1.026354833,0.00526,4.750593824,
0.00528,0.2954942445,0.00528,4.019733236,
0.0053,1.391785127,0.0053,3.654302942,
0.00532,3.218936598,0.00532,4.750593824,
0.00534,2.48807601,0.00534,4.38516353,
0.00536,2.853506304,0.00536,4.019733236,
0.00538,3.584366892,0.00538,6.212315001,
0.0054,3.218936598,0.0054,4.38516353,
0.00542,1.026354833,0.00542,4.019733236,
0.00544,3.584366892,0.00544,4.750593824,
0.00546,3.218936598,0.00546,4.750593824,
0.00548,3.218936598,0.00548,5.481454413,
0.0055,1.757215421,0.0055,4.750593824,
0.00552,2.48807601,0.00552,4.750593824,
0.00554,2.122645715,0.00554,4.019733236,
0.00556,2.853506304,0.00556,4.38516353,
0.00558,2.48807601,0.00558,2.558012059,
0.0056,0.6609245386,0.0056,4.38516353,
0.00562,1.391785127,0.00562,4.750593824,
0.00564,2.48807601,0.00564,4.019733236,
0.00566,0.2954942445,0.00566,4.019733236,
0.00568,1.391785127,0.00568,2.923442353,
0.0057,-1.166226932,0.0057,4.750593824,
0.00572,-0.800796638,0.00572,4.38516353,
0.00574,-1.897087521,0.00574,4.38516353,
0.00576,-2.262517815,0.00576,4.750593824,
0.00578,-2.262517815,0.00578,5.116024118,
0.0058,-2.993378403,0.0058,4.019733236,
0.00582,-2.627948109,0.00582,4.38516353,
0.00584,-2.993378403,0.00584,4.750593824,
0.00586,-3.724238991,0.00586,4.38516353,
0.00588,-3.358808697,0.00588,5.846884707,
0.0059,-3.358808697,0.0059,4.750593824,
0.00592,-3.724238991,0.00592,4.750593824,
0.00594,-3.358808697,0.00594,4.019733236,
0.00596,-3.724238991,0.00596,5.116024118,
0.00598,-3.724238991,0.00598,3.654302942,
0.006,-3.724238991,0.006,4.38516353,
0.00602,-2.627948109,0.00602,4.750593824,
0.00604,-2.262517815,0.00604,4.019733236,
0.00606,-2.993378403,0.00606,4.38516353,
0.00608,-1.166226932,0.00608,3.654302942,
0.0061,-1.897087521,0.0061,4.019733236,
0.00612,-0.4353663439,0.00612,4.38516353,
0.00614,-1.166226932,0.00614,4.38516353,
0.00616,0.2954942445,0.00616,4.750593824,
0.00618,2.48807601,0.00618,4.019733236,
0.0062,2.48807601,0.0062,4.38516353,
0.00622,2.122645715,0.00622,4.38516353,
0.00624,2.122645715,0.00624,4.019733236,
0.00626,3.584366892,0.00626,4.38516353,
0.00628,2.853506304,0.00628,4.750593824,
0.0063,3.949797186,0.0063,4.38516353,
0.00632,3.218936598,0.00632,4.38516353,
0.00634,2.853506304,0.00634,4.019733236,
0.00636,3.584366892,0.00636,4.38516353,
0.00638,2.122645715,0.00638,5.481454413,
0.0064,3.949797186,0.0064,4.38516353,
0.00642,2.853506304,0.00642,4.750593824,
0.00644,3.218936598,0.00644,4.750593824,
0.00646,2.853506304,0.00646,4.38516353,
0.00648,3.949797186,0.00648,3.654302942,
0.0065,2.122645715,0.0065,4.750593824,
0.00652,2.122645715,0.00652,4.38516353,
0.00654,2.48807601,0.00654,4.38516353,
0.00656,0.6609245386,0.00656,4.38516353,
0.00658,-0.0699360497,0.00658,3.288872648,
0.0066,1.391785127,0.0066,4.38516353,
0.00662,-0.0699360497,0.00662,4.750593824,
0.00664,-1.531657226,0.00664,4.019733236,
0.00666,-0.800796638,0.00666,4.38516353,
0.00668,-1.166226932,0.00668,4.750593824,
0.0067,-1.531657226,0.0067,4.019733236,
0.00672,-1.897087521,0.00672,4.38516353,
0.00674,-2.627948109,0.00674,4.750593824,
0.00676,-2.993378403,0.00676,4.38516353,
0.00678,-3.724238991,0.00678,4.019733236,
0.0068,-2.262517815,0.0068,4.38516353,
0.00682,-4.45509958,0.00682,5.116024118,
0.00684,-2.262517815,0.00684,4.019733236,
0.00686,-2.993378403,0.00686,4.750593824,
0.00688,-1.166226932,0.00688,4.750593824,
0.0069,-4.45509958,0.0069,4.38516353,
0.00692,-3.358808697,0.00692,4.750593824,
0.00694,-3.358808697,0.00694,4.38516353,
0.00696,-2.993378403,0.00696,4.019733236,
0.00698,-1.531657226,0.00698,4.019733236,
0.007,-3.358808697,0.007,4.38516353,
0.00702,1.026354833,0.00702,4.019733236,
0.00704,-0.0699360497,0.00704,4.019733236,
0.00706,0.2954942445,0.00706,4.38516353,
0.00708,-1.531657226,0.00708,4.019733236,
0.0071,1.391785127,0.0071,4.38516353,
0.00712,1.026354833,0.00712,4.38516353,
0.00714,1.391785127,0.00714,4.019733236,
0.00716,1.026354833,0.00716,4.38516353,
0.00718,2.122645715,0.00718,5.116024118,
0.0072,3.218936598,0.0072,4.019733236,
0.00722,5.046088069,0.00722,5.116024118,
0.00724,3.949797186,0.00724,4.750593824,
0.00726,3.949797186,0.00726,4.019733236,
0.00728,3.584366892,0.00728,4.750593824,
0.0073,1.391785127,0.0073,4.38516353,
0.00732,3.584366892,0.00732,4.38516353,
0.00734,4.31522748,0.00734,4.750593824,
0.00736,3.218936598,0.00736,4.750593824,
0.00738,3.218936598,0.00738,4.38516353,
0.0074,3.584366892,0.0074,5.116024118,
0.00742,1.026354833,0.00742,3.654302942,
0.00744,3.218936598,0.00744,4.38516353,
0.00746,1.026354833,0.00746,4.750593824,
0.00748,1.757215421,0.00748,4.019733236,
0.0075,2.122645715,0.0075,4.38516353,
0.00752,0.6609245386,0.00752,4.750593824,
0.00754,-0.0699360497,0.00754,4.38516353,
0.00756,0.2954942445,0.00756,4.019733236,
0.00758,-0.4353663439,0.00758,4.750593824,
0.0076,-0.0699360497,0.0076,4.019733236,
0.00762,-1.897087521,0.00762,4.38516353,
0.00764,-3.724238991,0.00764,4.019733236,
0.00766,-2.627948109,0.00766,4.38516353,
0.00768,-2.262517815,0.00768,4.019733236,
0.0077,-3.358808697,0.0077,4.019733236,
0.00772,-2.993378403,0.00772,4.38516353,
0.00774,-2.627948109,0.00774,4.019733236,
0.00776,-3.724238991,0.00776,4.019733236,
0.00778,-3.358808697,0.00778,4.019733236,
0.0078,-2.993378403,0.0078,4.38516353,
0.00782,-3.358808697,0.00782,4.019733236,
0.00784,-2.993378403,0.00784,4.38516353,
0.00786,-2.627948109,0.00786,4.019733236,
0.00788,-3.358808697,0.00788,3.288872648,
0.0079,-2.993378403,0.0079,4.38516353,
0.00792,-1.897087521,0.00792,4.38516353,
0.00794,-1.897087521,0.00794,3.654302942,
0.00796,-0.800796638,0.00796,4.38516353,
0.00798,-0.800796638,0.00798,4.019733236,
0.008,-0.0699360497,0.008,4.019733236,
0.00802,1.026354833,0.00802,4.750593824,
0.00804,1.026354833,0.00804,3.288872648,
0.00806,0.2954942445,0.00806,3.288872648,
0.00808,2.122645715,0.00808,4.38516353,
0.0081,2.48807601,0.0081,4.019733236,
0.00812,2.122645715,0.00812,3.654302942,
0.00814,3.218936598,0.00814,4.019733236,
0.00816,3.584366892,0.00816,4.019733236,
0.00818,2.853506304,0.00818,4.019733236,
0.0082,3.949797186,0.0082,4.38516353,
0.00822,3.949797186,0.00822,4.019733236,
0.00824,3.949797186,0.00824,4.019733236,
0.00826,3.218936598,0.00826,4.750593824,
0.00828,4.31522748,0.00828,4.750593824,
0.0083,2.122645715,0.0083,4.019733236,
0.00832,3.584366892,0.00832,4.38516353,
0.00834,3.218936598,0.00834,4.019733236,
0.00836,2.48807601,0.00836,4.019733236,
0.00838,2.122645715,0.00838,4.38516353,
0.0084,2.853506304,0.0084,4.019733236,
0.00842,0.6609245386,0.00842,3.654302942,
0.00844,1.391785127,0.00844,4.38516353,
0.00846,0.2954942445,0.00846,4.38516353,
0.00848,-0.0699360497,0.00848,4.38516353,
0.0085,-0.0699360497,0.0085,4.019733236,
0.00852,-1.897087521,0.00852,4.38516353,
0.00854,-2.262517815,0.00854,4.019733236,
0.00856,-1.897087521,0.00856,4.38516353,
0.00858,-2.993378403,0.00858,3.654302942,
0.0086,-1.897087521,0.0086,3.654302942,
0.00862,-2.627948109,0.00862,4.38516353,
0.00864,-2.993378403,0.00864,4.019733236,
0.00866,-3.358808697,0.00866,3.654302942,
0.00868,-2.993378403,0.00868,4.750593824,
0.0087,-4.089669286,0.0087,4.019733236,
0.00872,-3.358808697,0.00872,4.019733236,
0.00874,-2.993378403,0.00874,4.750593824,
0.00876,-1.531657226,0.00876,4.38516353,
0.00878,-2.262517815,0.00878,4.019733236,
0.0088,-2.262517815,0.0088,4.38516353,
0.00882,-2.993378403,0.00882,4.38516353,
0.00884,-1.166226932,0.00884,4.38516353,
0.00886,-1.531657226,0.00886,4.750593824,
0.00888,-1.897087521,0.00888,4.019733236,
0.0089,-1.531657226,0.0089,3.288872648,
0.00892,-0.4353663439,0.00892,4.38516353,
0.00894,-0.800796638,0.00894,4.019733236,
0.00896,-0.0699360497,0.00896,4.019733236,
0.00898,1.026354833,0.00898,4.38516353,
0.009,1.391785127,0.009,5.116024118,
0.00902,1.026354833,0.00902,3.654302942,
0.00904,2.48807601,0.00904,4.38516353,
0.00906,3.218936598,0.00906,4.38516353,
0.00908,2.122645715,0.00908,4.019733236,
0.0091,2.48807601,0.0091,4.38516353,
0.00912,3.949797186,0.00912,4.750593824,
0.00914,3.949797186,0.00914,4.019733236,
0.00916,3.584366892,0.00916,4.750593824,
0.00918,3.584366892,0.00918,4.750593824,
0.0092,2.853506304,0.0092,3.654302942,
0.00922,4.31522748,0.00922,3.654302942,
0.00924,2.853506304,0.00924,4.019733236,
0.00926,0.2954942445,0.00926,4.019733236,
0.00928,3.584366892,0.00928,4.750593824,
0.0093,2.48807601,0.0093,3.654302942,
0.00932,2.48807601,0.00932,3.654302942,
0.00934,1.757215421,0.00934,4.38516353,
0.00936,-0.0699360497,0.00936,4.38516353,
0.00938,0.2954942445,0.00938,4.019733236,
0.0094,0.6609245386,0.0094,4.019733236,
0.00942,0.6609245386,0.00942,4.38516353,
0.00944,-0.4353663439,0.00944,4.38516353,
0.00946,-0.0699360497,0.00946,4.750593824,
0.00948,-1.531657226,0.00948,4.38516353,
0.0095,-2.262517815,0.0095,5.116024118,
0.00952,-2.262517815,0.00952,4.38516353,
0.00954,-2.262517815,0.00954,4.019733236,
0.00956,-2.262517815,0.00956,4.38516353,
0.00958,-3.724238991,0.00958,4.019733236,
0.0096,-4.089669286,0.0096,4.019733236,
0.00962,-2.993378403,0.00962,4.38516353,
0.00964,-3.724238991,0.00964,4.38516353,
0.00966,-3.724238991,0.00966,4.750593824,
0.00968,-4.089669286,0.00968,4.019733236,
0.0097,-3.358808697,0.0097,2.923442353,
0.00972,-2.993378403,0.00972,4.750593824,
0.00974,-3.358808697,0.00974,4.019733236,
0.00976,-4.820529874,0.00976,4.019733236,
0.00978,-2.262517815,0.00978,4.750593824,
0.0098,-1.897087521,0.0098,5.116024118,
0.00982,-1.531657226,0.00982,4.019733236,
0.00984,-1.531657226,0.00984,4.750593824,
0.00986,-0.4353663439,0.00986,4.38516353,
0.00988,-0.0699360497,0.00988,4.38516353,
0.0099,0.2954942445,0.0099,5.846884707,
0.00992,0.6609245386,0.00992,4.019733236,
0.00994,1.757215421,0.00994,4.38516353,
0.00996,2.122645715,0.00996,4.750593824,
0.00998,2.122645715,0.00998,4.019733236,
0.01,1.391785127,0.01,3.288872648,
0.01002,3.584366892,0.01002,4.750593824,
0.01004,3.218936598,0.01004,4.38516353,
0.01006,3.584366892,0.01006,4.019733236,
0.01008,3.584366892,0.01008,4.38516353,
0.0101,3.584366892,0.0101,4.019733236,
0.01012,2.48807601,0.01012,4.019733236,
0.01014,3.218936598,0.01014,4.750593824,
0.01016,1.026354833,0.01016,4.019733236,
0.01018,3.218936598,0.01018,4.38516353,
0.0102,3.218936598,0.0102,5.846884707,
0.01022,2.122645715,0.01022,4.38516353,
0.01024,1.391785127,0.01024,4.019733236,
0.01026,3.218936598,0.01026,4.38516353,
0.01028,1.026354833,0.01028,4.38516353,
0.0103,0.6609245386,0.0103,4.750593824,
0.01032,1.757215421,0.01032,4.38516353,
0.01034,-0.0699360497,0.01034,4.38516353,
0.01036,0.2954942445,0.01036,4.019733236,
0.01038,-1.531657226,0.01038,4.750593824,
0.0104,-1.897087521,0.0104,5.116024118,
0.01042,-1.166226932,0.01042,4.019733236,
0.01044,-1.897087521,0.01044,5.116024118,
0.01046,-2.262517815,0.01046,4.019733236,
0.01048,-3.358808697,0.01048,4.019733236,
0.0105,-3.358808697,0.0105,4.38516353,
0.01052,-4.089669286,0.01052,3.654302942,
0.01054,-3.358808697,0.01054,4.019733236,
0.01056,-4.089669286,0.01056,5.116024118,
0.01058,-3.358808697,0.01058,4.019733236,
0.0106,-4.089669286,0.0106,4.019733236,
0.01062,-4.089669286,0.01062,4.019733236,
0.01064,-2.993378403,0.01064,4.38516353,
0.01066,-3.358808697,0.01066,4.38516353,
0.01068,-1.897087521,0.01068,4.750593824,
0.0107,-2.993378403,0.0107,4.38516353,
0.01072,-1.166226932,0.01072,4.019733236,
0.01074,-2.993378403,0.01074,4.750593824,
0.01076,-2.627948109,0.01076,4.019733236,
0.01078,-0.800796638,0.01078,4.019733236,
0.0108,-0.4353663439,0.0108,4.019733236,
0.01082,1.391785127,0.01082,4.019733236,
0.01084,0.6609245386,0.01084,4.38516353,
0.01086,1.026354833,0.01086,5.116024118,
0.01088,1.026354833,0.01088,4.019733236,
0.0109,4.31522748,0.0109,4.38516353,
0.01092,1.391785127,0.01092,4.38516353,
0.01094,2.122645715,0.01094,4.750593824,
0.01096,2.122645715,0.01096,4.019733236,
0.01098,3.218936598,0.01098,4.38516353,
0.011,2.853506304,0.011,4.38516353,
0.01102,4.680657775,0.01102,3.654302942,
0.01104,4.31522748,0.01104,4.750593824,
0.01106,3.218936598,0.01106,4.38516353,
0.01108,3.218936598,0.01108,3.654302942,
0.0111,3.584366892,0.0111,4.750593824,
0.01112,3.584366892,0.01112,4.38516353,
0.01114,2.853506304,0.01114,4.750593824,
0.01116,2.48807601,0.01116,5.116024118,
0.01118,1.757215421,0.01118,4.38516353,
0.0112,1.757215421,0.0112,3.654302942,
0.01122,1.026354833,0.01122,4.750593824,
0.01124,0.2954942445,0.01124,4.38516353,
0.01126,1.026354833,0.01126,4.38516353,
0.01128,-0.4353663439,0.01128,4.750593824,
0.0113,-2.627948109,0.0113,4.750593824,
0.01132,0.6609245386,0.01132,4.019733236,
0.01134,-1.531657226,0.01134,4.750593824,
0.01136,-1.897087521,0.01136,4.750593824,
0.01138,-2.627948109,0.01138,4.019733236,
0.0114,-2.262517815,0.0114,4.750593824,
0.01142,-3.724238991,0.01142,4.38516353,
0.01144,-5.185960168,0.01144,4.38516353,
0.01146,-4.089669286,0.01146,4.38516353,
0.01148,-3.358808697,0.01148,5.116024118,
0.0115,-3.358808697,0.0115,4.019733236,
0.01152,-5.185960168,0.01152,4.38516353,
0.01154,-4.089669286,0.01154,4.38516353,
0.01156,-2.993378403,0.01156,4.38516353,
0.01158,-2.627948109,0.01158,4.750593824,
0.0116,-2.262517815,0.0116,4.38516353,
0.01162,-0.800796638,0.01162,4.38516353,
0.01164,-2.262517815,0.01164,4.38516353,
0.01166,0.2954942445,0.01166,4.750593824,
0.01168,-1.166226932,0.01168,4.019733236,
0.0117,-1.166226932,0.0117,4.38516353,
0.01172,-0.4353663439,0.01172,4.750593824,
0.01174,-0.0699360497,0.01174,3.654302942,
0.01176,-1.531657226,0.01176,4.750593824,
0.01178,0.2954942445,0.01178,4.38516353,
0.0118,1.757215421,0.0118,4.019733236,
0.01182,3.218936598,0.01182,4.38516353,
0.01184,0.6609245386,0.01184,4.38516353,
0.01186,3.584366892,0.01186,4.019733236,
0.01188,3.218936598,0.01188,4.750593824,
0.0119,2.122645715,0.0119,5.481454413,
0.01192,3.218936598,0.01192,4.019733236,
0.01194,1.391785127,0.01194,4.750593824,
0.01196,3.949797186,0.01196,4.38516353,
0.01198,4.31522748,0.01198,4.38516353,
0.012,2.48807601,0.012,4.38516353,
0.01202,2.48807601,0.01202,4.750593824,
0.01204,5.776948657,0.01204,4.38516353,
0.01206,3.584366892,0.01206,4.750593824,
0.01208,2.853506304,0.01208,4.38516353,
0.0121,2.122645715,0.0121,4.019733236,
0.01212,1.757215421,0.01212,4.38516353,
0.01214,1.757215421,0.01214,4.38516353,
0.01216,1.391785127,0.01216,4.019733236,
0.01218,1.026354833,0.01218,4.38516353,
0.0122,0.6609245386,0.0122,4.019733236,
0.01222,-0.4353663439,0.01222,4.38516353,
0.01224,-0.800796638,0.01224,4.750593824,
0.01226,-1.531657226,0.01226,4.750593824,
0.01228,-1.166226932,0.01228,4.38516353,
0.0123,-2.262517815,0.0123,4.750593824,
0.01232,-2.262517815,0.01232,4.750593824,
0.01234,-2.627948109,0.01234,4.750593824,
0.01236,-2.993378403,0.01236,4.750593824,
0.01238,-2.993378403,0.01238,4.750593824,
0.0124,-3.358808697,0.0124,4.38516353,
0.01242,-1.897087521,0.01242,4.750593824,
0.01244,-2.627948109,0.01244,4.38516353,
0.01246,-3.358808697,0.01246,4.38516353,
0.01248,-4.45509958,0.01248,4.750593824,
0.0125,-3.358808697,0.0125,4.38516353,
0.01252,-1.897087521,0.01252,4.019733236,
0.01254,-3.358808697,0.01254,4.750593824,
0.01256,-3.358808697,0.01256,4.38516353,
0.01258,-2.262517815,0.01258,4.38516353,
0.0126,-2.262517815,0.0126,4.750593824,
0.01262,-2.262517815,0.01262,4.38516353,
0.01264,-1.531657226,0.01264,4.38516353,
0.01266,-0.4353663439,0.01266,5.116024118,
0.01268,-0.0699360497,0.01268,4.019733236,
0.0127,0.6609245386,0.0127,4.750593824,
0.01272,2.122645715,0.01272,4.38516353,
0.01274,3.584366892,0.01274,5.116024118,
0.01276,2.48807601,0.01276,4.38516353,
0.01278,2.122645715,0.01278,4.38516353,
0.0128,3.584366892,0.0128,4.38516353,
0.01282,3.218936598,0.01282,4.38516353,
0.01284,3.584366892,0.01284,4.38516353,
0.01286,3.584366892,0.01286,4.38516353,
0.01288,4.31522748,0.01288,4.38516353,
0.0129,3.584366892,0.0129,4.38516353,
0.01292,4.31522748,0.01292,4.38516353,
0.01294,3.218936598,0.01294,4.38516353,
0.01296,3.218936598,0.01296,4.750593824,
0.01298,3.584366892,0.01298,4.750593824,
0.013,2.48807601,0.013,4.38516353,
0.01302,6.142378951,0.01302,4.38516353,
0.01304,1.757215421,0.01304,4.38516353,
0.01306,1.391785127,0.01306,4.019733236,
0.01308,2.122645715,0.01308,4.38516353,
0.0131,0.6609245386,0.0131,4.750593824,
0.01312,0.6609245386,0.01312,4.750593824,
0.01314,-0.0699360497,0.01314,4.750593824,
0.01316,-0.800796638,0.01316,4.38516353,
0.01318,-0.4353663439,0.01318,4.38516353,
0.0132,-1.166226932,0.0132,4.750593824,
0.01322,-3.358808697,0.01322,4.750593824,
0.01324,-1.897087521,0.01324,4.38516353,
0.01326,-2.627948109,0.01326,4.750593824,
0.01328,-2.993378403,0.01328,4.38516353,
0.0133,-2.627948109,0.0133,4.38516353,
0.01332,-3.724238991,0.01332,2.558012059,
0.01334,-4.089669286,0.01334,4.38516353,
0.01336,-3.358808697,0.01336,4.019733236,
0.01338,-3.358808697,0.01338,3.654302942,
0.0134,-2.627948109,0.0134,4.38516353,
0.01342,-3.724238991,0.01342,4.750593824,
0.01344,-2.627948109,0.01344,4.38516353,
0.01346,-0.800796638,0.01346,4.750593824,
0.01348,-2.627948109,0.01348,4.019733236,
0.0135,-2.993378403,0.0135,3.654302942,
0.01352,-1.897087521,0.01352,5.116024118,
0.01354,-0.800796638,0.01354,4.019733236,
0.01356,-1.166226932,0.01356,4.019733236,
0.01358,-0.0699360497,0.01358,4.38516353,
0.0136,0.6609245386,0.0136,4.38516353,
0.01362,0.2954942445,0.01362,2.192581765,
0.01364,-1.897087521,0.01364,4.38516353,
0.01366,1.026354833,0.01366,4.38516353,
0.01368,1.391785127,0.01368,4.019733236,
0.0137,2.48807601,0.0137,5.116024118,
0.01372,3.218936598,0.01372,5.481454413,
0.01374,2.853506304,0.01374,4.019733236,
0.01376,2.48807601,0.01376,4.750593824,
0.01378,2.853506304,0.01378,4.38516353,
0.0138,4.31522748,0.0138,3.288872648,
0.01382,3.584366892,0.01382,5.846884707,
0.01384,2.853506304,0.01384,4.38516353,
0.01386,3.949797186,0.01386,3.654302942,
0.01388,3.584366892,0.01388,4.38516353,
0.0139,3.949797186,0.0139,4.38516353,
0.01392,4.31522748,0.01392,3.288872648,
0.01394,2.48807601,0.01394,4.750593824,
0.01396,2.853506304,0.01396,4.38516353,
0.01398,2.48807601,0.01398,4.38516353,
0.014,2.122645715,0.014,4.38516353,
0.01402,1.391785127,0.01402,2.923442353,
0.01404,1.757215421,0.01404,4.019733236,
0.01406,0.6609245386,0.01406,4.38516353,
0.01408,1.026354833,0.01408,4.019733236,
0.0141,-0.800796638,0.0141,3.654302942,
0.01412,-1.531657226,0.01412,5.116024118,
0.01414,-0.4353663439,0.01414,4.38516353,
0.01416,-2.262517815,0.01416,4.38516353,
0.01418,-1.897087521,0.01418,4.019733236,
0.0142,-3.358808697,0.0142,4.38516353,
0.01422,-4.45509958,0.01422,5.116024118,
0.01424,-3.358808697,0.01424,4.019733236,
0.01426,-0.0699360497,0.01426,4.38516353,
0.01428,-4.820529874,0.01428,3.654302942,
0.0143,-2.627948109,0.0143,4.019733236,
0.01432,-3.724238991,0.01432,3.654302942,
0.01434,-5.185960168,0.01434,4.019733236,
0.01436,-1.897087521,0.01436,4.38516353,
0.01438,-2.627948109,0.01438,3.654302942,
0.0144,-3.724238991,0.0144,4.38516353,
0.01442,-2.627948109,0.01442,3.288872648,
0.01444,-1.531657226,0.01444,4.750593824,
0.01446,-1.531657226,0.01446,4.38516353,
0.01448,-1.166226932,0.01448,4.38516353,
0.0145,0.2954942445,0.0145,4.019733236,
0.01452,-0.800796638,0.01452,4.38516353,
0.01454,1.026354833,0.01454,4.019733236,
0.01456,0.6609245386,0.01456,4.019733236,
0.01458,-1.531657226,0.01458,4.750593824,
0.0146,1.391785127,0.0146,4.38516353,
0.01462,2.853506304,0.01462,5.481454413,
0.01464,2.48807601,0.01464,4.750593824,
0.01466,2.48807601,0.01466,4.019733236,
0.01468,3.584366892,0.01468,4.019733236,
0.0147,3.584366892,0.0147,4.750593824,
0.01472,3.584366892,0.01472,2.923442353,
0.01474,7.969530422,0.01474,4.750593824,
0.01476,3.584366892,0.01476,4.019733236,
0.01478,3.584366892,0.01478,4.019733236,
0.0148,3.949797186,0.0148,4.750593824,
0.01482,2.853506304,0.01482,4.38516353,
0.01484,5.046088069,0.01484,3.654302942,
0.01486,2.853506304,0.01486,4.750593824,
0.01488,1.391785127,0.01488,4.38516353,
0.0149,2.48807601,0.0149,4.019733236,
0.01492,2.122645715,0.01492,5.481454413,
0.01494,1.757215421,0.01494,4.019733236,
0.01496,0.2954942445,0.01496,3.654302942,
0.01498,-0.0699360497,0.01498,4.750593824,
0.015,-0.0699360497,0.015,4.019733236,
0.01502,-1.897087521,0.01502,5.116024118,
0.01504,-1.531657226,0.01504,4.750593824,
0.01506,-1.531657226,0.01506,4.019733236,
0.01508,-2.627948109,0.01508,4.38516353,
0.0151,-2.262517815,0.0151,4.750593824,
0.01512,-1.531657226,0.01512,4.38516353,
0.01514,-3.724238991,0.01514,3.654302942,
0.01516,-3.358808697,0.01516,4.750593824,
0.01518,-4.089669286,0.01518,4.38516353,
0.0152,-3.358808697,0.0152,4.019733236,
0.01522,-3.724238991,0.01522,3.654302942,
0.01524,-2.627948109,0.01524,4.38516353,
0.01526,-3.358808697,0.01526,4.019733236,
0.01528,-3.358808697,0.01528,4.38516353,
0.0153,-4.089669286,0.0153,4.38516353,
0.01532,-3.358808697,0.01532,4.38516353,
0.01534,-2.627948109,0.01534,4.750593824,
0.01536,-3.358808697,0.01536,4.019733236,
0.01538,-3.724238991,0.01538,4.38516353,
0.0154,-1.531657226,0.0154,4.750593824,
0.01542,-1.531657226,0.01542,4.38516353,
0.01544,-1.531657226,0.01544,4.38516353,
0.01546,-0.4353663439,0.01546,4.750593824,
0.01548,0.2954942445,0.01548,4.38516353,
0.0155,0.2954942445,0.0155,4.38516353,
0.01552,0.6609245386,0.01552,4.750593824,
0.01554,1.026354833,0.01554,4.38516353,
0.01556,2.122645715,0.01556,4.019733236,
0.01558,2.48807601,0.01558,4.750593824,
0.0156,3.218936598,0.0156,4.38516353,
0.01562,2.122645715,0.01562,4.019733236,
0.01564,2.853506304,0.01564,5.116024118,
0.01566,3.218936598,0.01566,5.116024118,
0.01568,2.853506304,0.01568,4.38516353,
0.0157,2.853506304,0.0157,5.116024118,
0.01572,3.949797186,0.01572,4.750593824,
0.01574,2.853506304,0.01574,4.019733236,
0.01576,2.48807601,0.01576,4.38516353,
0.01578,2.853506304,0.01578,4.38516353,
0.0158,3.218936598,0.0158,4.019733236,
0.01582,4.31522748,0.01582,4.750593824,
0.01584,1.026354833,0.01584,4.38516353,
0.01586,2.122645715,0.01586,4.38516353,
0.01588,1.026354833,0.01588,4.750593824,
0.0159,0.2954942445,0.0159,4.019733236,
0.01592,0.2954942445,0.01592,2.923442353,
0.01594,-0.4353663439,0.01594,4.750593824,
0.01596,-1.166226932,0.01596,4.38516353,
0.01598,-2.262517815,0.01598,4.38516353,
0.016,-1.531657226,0.016,4.750593824,
0.01602,-2.627948109,0.01602,4.019733236,
0.01604,-2.993378403,0.01604,4.019733236,
0.01606,-2.627948109,0.01606,4.750593824,
0.01608,-3.358808697,0.01608,4.38516353,
0.0161,-3.358808697,0.0161,4.38516353,
0.01612,-4.089669286,0.01612,4.750593824,
0.01614,-4.089669286,0.01614,4.019733236,
0.01616,-3.724238991,0.01616,4.019733236,
0.01618,-2.993378403,0.01618,4.750593824,
0.0162,-4.820529874,0.0162,4.38516353,
0.01622,-3.724238991,0.01622,4.019733236,
0.01624,-3.358808697,0.01624,4.750593824,
0.01626,-4.820529874,0.01626,4.750593824,
0.01628,-2.993378403,0.01628,4.019733236,
0.0163,-2.262517815,0.0163,4.750593824,
0.01632,-2.993378403,0.01632,4.750593824,
0.01634,-1.897087521,0.01634,4.38516353,
0.01636,-1.166226932,0.01636,4.38516353,
0.01638,-1.166226932,0.01638,4.019733236,
0.0164,-0.4353663439,0.0164,4.019733236,
0.01642,-0.800796638,0.01642,4.750593824,
0.01644,1.026354833,0.01644,4.38516353,
0.01646,1.026354833,0.01646,4.019733236,
0.01648,1.026354833,0.01648,4.38516353,
0.0165,2.48807601,0.0165,4.750593824,
0.01652,2.122645715,0.01652,4.019733236,
0.01654,2.48807601,0.01654,4.750593824,
0.01656,3.218936598,0.01656,4.750593824,
0.01658,3.218936598,0.01658,4.019733236,
0.0166,3.218936598,0.0166,4.750593824,
0.01662,4.31522748,0.01662,4.38516353,
0.01664,4.31522748,0.01664,4.019733236,
0.01666,4.31522748,0.01666,4.750593824,
0.01668,3.584366892,0.01668,4.38516353,
0.0167,5.776948657,0.0167,4.38516353,
0.01672,3.584366892,0.01672,4.750593824,
0.01674,4.31522748,0.01674,4.38516353,
0.01676,2.48807601,0.01676,4.38516353,
0.01678,2.122645715,0.01678,4.750593824,
0.0168,-0.0699360497,0.0168,4.38516353,
0.01682,1.026354833,0.01682,4.019733236,
0.01684,1.391785127,0.01684,4.750593824,
0.01686,-0.0699360497,0.01686,4.38516353,
0.01688,-0.0699360497,0.01688,4.019733236,
0.0169,-0.800796638,0.0169,4.750593824,
0.01692,-0.800796638,0.01692,4.019733236,
0.01694,-1.897087521,0.01694,4.38516353,
0.01696,-0.0699360497,0.01696,4.750593824,
0.01698,-3.358808697,0.01698,4.38516353,
0.017,-3.724238991,0.017,4.019733236,
0.01702,-3.358808697,0.01702,4.750593824,
0.01704,-0.4353663439,0.01704,3.654302942,
0.01706,-4.089669286,0.01706,4.019733236,
0.01708,-3.724238991,0.01708,4.750593824,
0.0171,-3.724238991,0.0171,4.019733236,
0.01712,-2.993378403,0.01712,4.019733236,
0.01714,-2.993378403,0.01714,4.38516353,
0.01716,-4.089669286,0.01716,4.750593824,
0.01718,-5.185960168,0.01718,4.38516353,
0.0172,-2.262517815,0.0172,4.750593824,
0.01722,-2.262517815,0.01722,4.750593824,
0.01724,-1.897087521,0.01724,4.750593824,
0.01726,-1.166226932,0.01726,4.750593824,
0.01728,-2.993378403,0.01728,4.38516353,
0.0173,-0.4353663439,0.0173,4.019733236,
0.01732,0.2954942445,0.01732,4.38516353,
0.01734,-0.0699360497,0.01734,3.654302942,
0.01736,0.6609245386,0.01736,4.38516353,
0.01738,1.391785127,0.01738,4.38516353,
0.0174,1.391785127,0.0174,4.019733236,
0.01742,1.391785127,0.01742,4.38516353,
0.01744,3.218936598,0.01744,5.481454413,
0.01746,2.122645715,0.01746,4.38516353,
0.01748,2.853506304,0.01748,4.019733236,
0.0175,3.584366892,0.0175,4.38516353,
0.01752,2.122645715,0.01752,4.750593824,
0.01754,2.48807601,0.01754,4.750593824,
0.01756,3.949797186,0.01756,4.750593824,
0.01758,3.584366892,0.01758,4.38516353,
0.0176,3.949797186,0.0176,4.019733236,
0.01762,3.584366892,0.01762,4.750593824,
0.01764,3.218936598,0.01764,3.288872648,
0.01766,3.584366892,0.01766,4.38516353,
0.01768,3.584366892,0.01768,4.38516353,
0.0177,1.026354833,0.0177,4.38516353,
0.01772,2.48807601,0.01772,4.019733236,
0.01774,1.757215421,0.01774,4.38516353,
0.01776,1.026354833,0.01776,4.019733236,
0.01778,2.122645715,0.01778,4.38516353,
0.0178,-1.531657226,0.0178,4.38516353,
0.01782,-2.262517815,0.01782,4.38516353,
0.01784,-0.0699360497,0.01784,4.750593824,
0.01786,-0.4353663439,0.01786,4.38516353,
0.01788,-2.627948109,0.01788,4.38516353,
0.0179,-1.531657226,0.0179,3.654302942,
0.01792,-2.262517815,0.01792,4.38516353,
0.01794,-2.993378403,0.01794,4.019733236,
0.01796,-2.993378403,0.01796,4.019733236,
0.01798,-2.993378403,0.01798,4.750593824,
0.018,-3.358808697,0.018,4.38516353,
0.01802,-3.358808697,0.01802,4.38516353,
0.01804,-2.993378403,0.01804,3.654302942,
0.01806,-7.743972227,0.01806,4.38516353,
0.01808,-3.358808697,0.01808,4.019733236,
0.0181,-2.627948109,0.0181,4.019733236,
0.01812,-3.724238991,0.01812,4.38516353,
0.01814,-2.993378403,0.01814,3.654302942,
0.01816,-2.627948109,0.01816,4.38516353,
0.01818,-2.262517815,0.01818,4.019733236,
0.0182,-1.531657226,0.0182,4.750593824,
0.01822,-0.800796638,0.01822,4.750593824,
0.01824,-1.897087521,0.01824,4.750593824,
0.01826,3.218936598,0.01826,4.019733236,
0.01828,-0.4353663439,0.01828,4.750593824,
0.0183,-0.0699360497,0.0183,4.38516353,
0.01832,0.6609245386,0.01832,4.38516353,
0.01834,2.122645715,0.01834,4.38516353,
0.01836,1.391785127,0.01836,4.38516353,
0.01838,3.218936598,0.01838,4.38516353,
0.0184,2.48807601,0.0184,4.750593824,
0.01842,3.218936598,0.01842,4.38516353,
0.01844,2.48807601,0.01844,4.38516353,
0.01846,2.853506304,0.01846,4.750593824,
0.01848,2.853506304,0.01848,4.750593824,
0.0185,5.411518363,0.0185,4.38516353,
0.01852,3.218936598,0.01852,4.750593824,
0.01854,3.584366892,0.01854,4.750593824,
0.01856,3.949797186,0.01856,4.38516353,
0.01858,3.218936598,0.01858,4.38516353,
0.0186,3.218936598,0.0186,4.38516353,
0.01862,3.949797186,0.01862,4.019733236,
0.01864,2.853506304,0.01864,4.750593824,
0.01866,1.026354833,0.01866,4.38516353,
0.01868,1.757215421,0.01868,4.019733236,
0.0187,0.2954942445,0.0187,4.750593824,
0.01872,-0.0699360497,0.01872,4.38516353,
0.01874,0.2954942445,0.01874,4.750593824,
0.01876,2.122645715,0.01876,4.38516353,
0.01878,0.6609245386,0.01878,4.38516353,
0.0188,-1.531657226,0.0188,3.654302942,
0.01882,-1.897087521,0.01882,5.116024118,
0.01884,-2.262517815,0.01884,4.750593824,
0.01886,-2.627948109,0.01886,4.019733236,
0.01888,-3.724238991,0.01888,4.750593824,
0.0189,-3.358808697,0.0189,4.38516353,
0.01892,-2.993378403,0.01892,4.38516353,
0.01894,-4.45509958,0.01894,4.750593824,
0.01896,-4.820529874,0.01896,4.750593824,
0.01898,-3.724238991,0.01898,4.38516353,
0.019,-3.358808697,0.019,4.750593824,
0.01902,-0.800796638,0.01902,4.38516353,
0.01904,-2.627948109,0.01904,4.019733236,
0.01906,-3.724238991,0.01906,3.654302942,
0.01908,-4.45509958,0.01908,4.019733236,
0.0191,-1.897087521,0.0191,4.019733236,
0.01912,-2.262517815,0.01912,4.019733236,
0.01914,-0.4353663439,0.01914,4.019733236,
0.01916,-1.531657226,0.01916,4.019733236,
0.01918,-1.531657226,0.01918,3.654302942,
0.0192,2.853506304,0.0192,4.38516353,
0.01922,-0.0699360497,0.01922,4.38516353,
0.01924,1.026354833,0.01924,3.654302942,
0.01926,3.584366892,0.01926,4.38516353,
0.01928,2.122645715,0.01928,4.38516353,
0.0193,2.48807601,0.0193,4.019733236,
0.01932,2.48807601,0.01932,4.019733236,
0.01934,3.584366892,0.01934,4.38516353,
0.01936,2.853506304,0.01936,4.019733236,
0.01938,3.949797186,0.01938,4.750593824,
0.0194,3.584366892,0.0194,4.019733236,
0.01942,2.853506304,0.01942,4.019733236,
0.01944,6.142378951,0.01944,4.38516353,
0.01946,4.31522748,0.01946,5.481454413,
0.01948,2.853506304,0.01948,4.38516353,
0.0195,3.949797186,0.0195,4.38516353,
0.01952,3.584366892,0.01952,3.654302942,
0.01954,3.218936598,0.01954,4.019733236,
0.01956,1.757215421,0.01956,4.019733236,
0.01958,1.757215421,0.01958,4.019733236,
0.0196,0.6609245386,0.0196,4.38516353,
0.01962,1.757215421,0.01962,3.654302942,
0.01964,1.026354833,0.01964,4.38516353,
0.01966,-1.897087521,0.01966,4.38516353,
0.01968,-0.0699360497,0.01968,4.38516353,
0.0197,1.026354833,0.0197,4.38516353,
0.01972,-1.166226932,0.01972,4.750593824,
0.01974,-1.531657226,0.01974,4.38516353,
0.01976,-2.262517815,0.01976,4.019733236,
0.01978,-2.627948109,0.01978,4.019733236,
0.0198,-2.993378403,0.0198,4.38516353,
0.01982,-3.724238991,0.01982,4.38516353,
0.01984,-4.089669286,0.01984,4.38516353,
0.01986,-2.993378403,0.01986,5.116024118,
0.01988,-4.089669286,0.01988,4.38516353,
0.0199,-3.724238991,0.0199,4.019733236,
0.01992,-3.358808697,0.01992,4.750593824,
0.01994,-4.45509958,0.01994,4.38516353,
0.01996,-2.262517815,0.01996,4.38516353,
0.01998,-2.993378403,0.01998,4.38516353,
0.02,-2.993378403,0.02,4.019733236,
0.02002,-1.897087521,0.02002,4.750593824,
0.02004,-2.627948109,0.02004,4.38516353,
0.02006,-1.531657226,0.02006,4.38516353,
0.02008,-1.897087521,0.02008,4.38516353,
0.0201,-1.531657226,0.0201,4.38516353,
0.02012,-0.0699360497,0.02012,4.750593824,
0.02014,0.6609245386,0.02014,4.38516353,
0.02016,-0.4353663439,0.02016,4.38516353,
0.02018,0.6609245386,0.02018,4.019733236,
0.0202,1.757215421,0.0202,4.750593824,
0.02022,1.757215421,0.02022,4.38516353,
0.02024,2.122645715,0.02024,4.38516353,
0.02026,1.757215421,0.02026,4.38516353,
0.02028,2.122645715,0.02028,4.38516353,
0.0203,2.122645715,0.0203,4.019733236,
0.02032,2.853506304,0.02032,4.750593824,
0.02034,3.218936598,0.02034,4.38516353,
0.02036,3.584366892,0.02036,4.019733236,
0.02038,5.411518363,0.02038,4.750593824,
0.0204,3.218936598,0.0204,4.38516353,
0.02042,4.31522748,0.02042,4.38516353,
0.02044,2.853506304,0.02044,4.38516353,
0.02046,4.31522748,0.02046,4.38516353,
0.02048,2.853506304,0.02048,4.38516353,
0.0205,3.218936598,0.0205,4.38516353,
0.02052,3.949797186,0.02052,4.38516353,
0.02054,1.391785127,0.02054,4.750593824,
0.02056,1.757215421,0.02056,4.019733236,
0.02058,-0.0699360497,0.02058,4.38516353,
0.0206,0.2954942445,0.0206,4.38516353,
0.02062,1.026354833,0.02062,4.38516353,
0.02064,-0.800796638,0.02064,4.750593824,
0.02066,-3.724238991,0.02066,4.38516353,
0.02068,-1.166226932,0.02068,4.750593824,
0.0207,-2.262517815,0.0207,4.019733236,
0.02072,-2.262517815,0.02072,4.38516353,
0.02074,-1.531657226,0.02074,4.019733236,
0.02076,-4.089669286,0.02076,4.750593824,
0.02078,-2.627948109,0.02078,4.750593824,
0.0208,-1.897087521,0.0208,4.38516353,
0.02082,-4.45509958,0.02082,4.38516353,
0.02084,-3.724238991,0.02084,5.846884707,
0.02086,-4.089669286,0.02086,4.750593824,
0.02088,-2.993378403,0.02088,4.38516353,
0.0209,-4.089669286,0.0209,4.38516353,
0.02092,-2.627948109,0.02092,4.38516353,
0.02094,-2.993378403,0.02094,4.38516353,
0.02096,-1.897087521,0.02096,4.38516353,
0.02098,-1.531657226,0.02098,4.38516353,
0.021,-2.262517815,0.021,4.38516353,
0.02102,-0.4353663439,0.02102,4.750593824,
0.02104,-1.166226932,0.02104,4.38516353,
0.02106,-0.0699360497,0.02106,5.116024118,
0.02108,1.391785127,0.02108,4.019733236,
0.0211,1.026354833,0.0211,4.38516353,
0.02112,3.584366892,0.02112,4.38516353,
0.02114,2.48807601,0.02114,4.019733236,
0.02116,1.757215421,0.02116,3.654302942,
0.02118,1.757215421,0.02118,4.019733236,
0.0212,1.757215421,0.0212,4.38516353,
0.02122,3.584366892,0.02122,4.750593824,
0.02124,-1.166226932,0.02124,4.38516353,
0.02126,3.218936598,0.02126,3.288872648,
0.02128,3.218936598,0.02128,4.750593824,
0.0213,3.218936598,0.0213,4.38516353,
0.02132,4.31522748,0.02132,4.019733236,
0.02134,2.853506304,0.02134,4.38516353,
0.02136,2.853506304,0.02136,5.846884707,
0.02138,6.87323954,0.02138,4.38516353,
0.0214,2.122645715,0.0214,4.38516353,
0.02142,2.122645715,0.02142,4.38516353,
0.02144,2.48807601,0.02144,4.38516353,
0.02146,2.122645715,0.02146,5.481454413,
0.02148,1.026354833,0.02148,4.019733236,
0.0215,1.026354833,0.0215,4.019733236,
0.02152,0.2954942445,0.02152,4.750593824,
0.02154,1.391785127,0.02154,4.019733236,
0.02156,-0.800796638,0.02156,3.654302942,
0.02158,-0.800796638,0.02158,5.116024118,
0.0216,-2.262517815,0.0216,4.38516353,
0.02162,-1.531657226,0.02162,4.38516353,
0.02164,-1.166226932,0.02164,4.750593824,
0.02166,-3.724238991,0.02166,3.654302942,
0.02168,-1.166226932,0.02168,4.38516353,
0.0217,-3.358808697,0.0217,4.38516353,
0.02172,-4.089669286,0.02172,4.38516353,
0.02174,-3.358808697,0.02174,4.38516353,
0.02176,-3.724238991,0.02176,5.481454413,
0.02178,-4.089669286,0.02178,4.38516353,
0.0218,-2.993378403,0.0218,4.38516353,
0.02182,-3.724238991,0.02182,4.38516353,
0.02184,-3.724238991,0.02184,4.38516353,
0.02186,-1.897087521,0.02186,3.654302942,
0.02188,-1.531657226,0.02188,3.654302942,
0.0219,-4.820529874,0.0219,3.654302942,
0.02192,-1.897087521,0.02192,4.019733236,
0.02194,-3.358808697,0.02194,4.019733236,
0.02196,1.391785127,0.02196,4.38516353,
0.02198,0.2954942445,0.02198,4.38516353,
0.022,-0.0699360497,0.022,4.38516353,
0.02202,0.6609245386,0.02202,4.38516353,
0.02204,1.026354833,0.02204,4.019733236,
0.02206,2.122645715,0.02206,5.116024118,
0.02208,1.391785127,0.02208,4.019733236,
0.0221,1.757215421,0.0221,3.654302942,
0.02212,2.853506304,0.02212,4.38516353,
0.02214,1.757215421,0.02214,3.654302942,
0.02216,3.584366892,0.02216,4.019733236,
0.02218,4.680657775,0.02218,4.019733236,
0.0222,3.584366892,0.0222,4.019733236,
0.02222,5.046088069,0.02222,4.38516353,
0.02224,4.31522748,0.02224,4.38516353,
0.02226,4.31522748,0.02226,3.288872648,
0.02228,3.584366892,0.02228,4.750593824,
0.0223,3.584366892,0.0223,4.38516353,
0.02232,3.218936598,0.02232,4.019733236,
0.02234,4.31522748,0.02234,4.38516353,
0.02236,0.6609245386,0.02236,4.019733236,
0.02238,2.48807601,0.02238,4.019733236,
0.0224,-1.166226932,0.0224,4.019733236,
0.02242,1.757215421,0.02242,4.38516353,
0.02244,0.2954942445,0.02244,3.654302942,
0.02246,0.2954942445,0.02246,5.116024118,
0.02248,-0.4353663439,0.02248,4.019733236,
0.0225,-1.166226932,0.0225,4.019733236,
0.02252,-0.800796638,0.02252,4.38516353,
0.02254,0.2954942445,0.02254,4.019733236,
0.02256,-2.262517815,0.02256,4.38516353,
0.02258,-2.993378403,0.02258,4.019733236,
0.0226,-1.897087521,0.0226,4.750593824,
0.02262,-3.358808697,0.02262,3.654302942,
0.02264,-2.993378403,0.02264,4.750593824,
0.02266,-3.358808697,0.02266,4.019733236,
0.02268,-2.262517815,0.02268,4.019733236,
0.0227,-3.358808697,0.0227,4.019733236,
0.02272,-3.358808697,0.02272,4.38516353,
0.02274,-3.358808697,0.02274,3.288872648,
0.02276,-2.627948109,0.02276,4.38516353,
0.02278,-2.993378403,0.02278,4.38516353,
0.0228,-3.724238991,0.0228,3.654302942,
0.02282,-2.993378403,0.02282,4.019733236,
0.02284,-1.166226932,0.02284,4.38516353,
0.02286,-2.627948109,0.02286,3.654302942,
0.02288,-1.166226932,0.02288,4.38516353,
0.0229,-0.4353663439,0.0229,4.019733236,
0.02292,-0.4353663439,0.02292,4.019733236,
0.02294,-0.0699360497,0.02294,4.750593824,
0.02296,0.2954942445,0.02296,4.38516353,
0.02298,0.2954942445,0.02298,3.654302942,
0.023,3.218936598,0.023,4.38516353,
0.02302,3.949797186,0.02302,4.38516353,
0.02304,3.218936598,0.02304,4.019733236,
0.02306,3.949797186,0.02306,4.019733236,
0.02308,3.218936598,0.02308,4.38516353,
0.0231,3.218936598,0.0231,3.654302942,
0.02312,3.584366892,0.02312,4.38516353,
0.02314,3.584366892,0.02314,4.38516353,
0.02316,2.48807601,0.02316,3.654302942,
0.02318,3.584366892,0.02318,4.019733236,
0.0232,3.584366892,0.0232,4.38516353,
0.02322,2.853506304,0.02322,4.019733236,
0.02324,3.584366892,0.02324,4.38516353,
0.02326,3.949797186,0.02326,2.923442353,
0.02328,2.48807601,0.02328,3.654302942,
0.0233,2.122645715,0.0233,4.38516353,
0.02332,2.48807601,0.02332,4.38516353,
0.02334,0.6609245386,0.02334,4.019733236,
0.02336,1.026354833,0.02336,4.38516353,
0.02338,-0.4353663439,0.02338,4.019733236,
0.0234,1.026354833,0.0234,3.654302942,
0.02342,-0.0699360497,0.02342,4.019733236,
0.02344,0.6609245386,0.02344,4.019733236,
0.02346,-0.800796638,0.02346,4.750593824,
0.02348,-3.358808697,0.02348,4.750593824,
0.0235,-1.531657226,0.0235,4.38516353,
0.02352,-3.358808697,0.02352,4.38516353,
0.02354,-1.897087521,0.02354,4.38516353,
0.02356,-3.358808697,0.02356,4.019733236,
0.02358,-5.551390462,0.02358,4.019733236,
0.0236,-3.724238991,0.0236,4.38516353,
0.02362,-3.358808697,0.02362,4.38516353,
0.02364,-2.627948109,0.02364,4.019733236,
0.02366,-2.993378403,0.02366,4.019733236,
0.02368,-2.993378403,0.02368,4.38516353,
0.0237,-2.262517815,0.0237,4.019733236,
0.02372,-2.627948109,0.02372,4.38516353,
0.02374,-2.262517815,0.02374,4.38516353,
0.02376,-3.724238991,0.02376,3.654302942,
0.02378,-1.897087521,0.02378,4.38516353,
0.0238,-2.262517815,0.0238,4.38516353,
0.02382,-0.800796638,0.02382,4.750593824,
0.02384,-1.166226932,0.02384,4.38516353,
0.02386,-2.262517815,0.02386,4.019733236,
0.02388,0.2954942445,0.02388,5.116024118,
0.0239,-0.0699360497,0.0239,4.38516353,
0.02392,-1.166226932,0.02392,4.019733236,
0.02394,1.757215421,0.02394,4.750593824,
0.02396,0.6609245386,0.02396,4.750593824,
0.02398,2.122645715,0.02398,4.019733236,
0.024,5.046088069,0.024,5.116024118,
0.02402,2.48807601,0.02402,4.38516353,
0.02404,3.218936598,0.02404,4.019733236,
0.02406,3.584366892,0.02406,5.116024118,
0.02408,3.584366892,0.02408,4.019733236,
0.0241,3.584366892,0.0241,4.019733236,
0.02412,1.757215421,0.02412,4.750593824,
0.02414,3.218936598,0.02414,4.019733236,
0.02416,2.853506304,0.02416,4.38516353,
0.02418,2.853506304,0.02418,4.750593824,
0.0242,2.48807601,0.0242,4.38516353,
0.02422,2.48807601,0.02422,4.019733236,
0.02424,2.48807601,0.02424,4.750593824,
0.02426,2.48807601,0.02426,4.38516353,
0.02428,-1.531657226,0.02428,4.019733236,
0.0243,0.6609245386,0.0243,4.019733236,
0.02432,-0.4353663439,0.02432,3.654302942,
0.02434,-0.800796638,0.02434,4.019733236,
0.02436,-0.800796638,0.02436,4.750593824,
0.02438,-0.800796638,0.02438,4.019733236,
0.0244,-1.897087521,0.0244,4.019733236,
0.02442,-1.897087521,0.02442,5.116024118,
0.02444,-1.897087521,0.02444,4.38516353,
0.02446,-2.993378403,0.02446,3.654302942,
0.02448,-2.627948109,0.02448,4.750593824,
0.0245,-2.993378403,0.0245,4.019733236,
0.02452,-3.358808697,0.02452,4.38516353,
0.02454,-4.089669286,0.02454,5.116024118,
0.02456,-4.089669286,0.02456,4.38516353,
0.02458,-3.724238991,0.02458,4.019733236,
0.0246,-4.089669286,0.0246,4.38516353,
0.02462,-3.358808697,0.02462,4.38516353,
0.02464,-2.993378403,0.02464,4.38516353,
0.02466,-2.262517815,0.02466,4.750593824,
0.02468,-2.627948109,0.02468,4.38516353,
0.0247,-2.262517815,0.0247,4.38516353,
0.02472,-1.897087521,0.02472,4.38516353,
0.02474,-1.897087521,0.02474,4.019733236,
0.02476,-0.4353663439,0.02476,4.38516353,
0.02478,0.6609245386,0.02478,4.019733236,
0.0248,-0.4353663439,0.0248,4.019733236,
0.02482,-1.897087521,0.02482,4.38516353,
0.02484,1.026354833,0.02484,4.38516353,
0.02486,2.48807601,0.02486,4.38516353,
0.02488,2.48807601,0.02488,4.38516353,
0.0249,2.48807601,0.0249,4.750593824,
0.02492,2.122645715,0.02492,4.019733236,
0.02494,5.411518363,0.02494,4.38516353,
0.02496,3.218936598,0.02496,4.750593824,
0.02498,4.31522748,0.02498,4.019733236,
0.025,4.31522748,0.025,4.38516353,
0.02502,3.584366892,0.02502,4.750593824,
0.02504,2.48807601,0.02504,4.019733236,
0.02506,3.949797186,0.02506,4.38516353,
0.02508,3.584366892,0.02508,4.750593824,
0.0251,2.48807601,0.0251,4.38516353,
0.02512,3.218936598,0.02512,4.019733236,
0.02514,3.218936598,0.02514,4.750593824,
0.02516,1.757215421,0.02516,4.750593824,
0.02518,2.122645715,0.02518,4.019733236,
0.0252,2.48807601,0.0252,4.38516353,
0.02522,0.6609245386,0.02522,4.019733236,
0.02524,1.757215421,0.02524,4.019733236,
0.02526,0.2954942445,0.02526,4.750593824,
0.02528,-2.627948109,0.02528,3.654302942,
0.0253,-0.4353663439,0.0253,4.019733236,
0.02532,-0.800796638,0.02532,4.38516353,
0.02534,-1.897087521,0.02534,4.750593824,
0.02536,-2.262517815,0.02536,4.019733236,
0.02538,-3.358808697,0.02538,4.38516353,
0.0254,-2.993378403,0.0254,4.750593824,
0.02542,-2.627948109,0.02542,4.019733236,
0.02544,-3.358808697,0.02544,4.38516353,
0.02546,-4.089669286,0.02546,4.019733236,
0.02548,-5.185960168,0.02548,5.481454413,
0.0255,-4.820529874,0.0255,5.116024118,
0.02552,-4.089669286,0.02552,4.38516353,
0.02554,-3.358808697,0.02554,4.38516353,
0.02556,-1.897087521,0.02556,4.750593824,
0.02558,-3.358808697,0.02558,4.019733236,
0.0256,-2.627948109,0.0256,4.019733236,
0.02562,-2.262517815,0.02562,4.019733236,
0.02564,-2.262517815,0.02564,4.38516353,
0.02566,-1.897087521,0.02566,4.019733236,
0.02568,-0.0699360497,0.02568,3.654302942,
0.0257,-0.0699360497,0.0257,4.38516353,
0.02572,-1.166226932,0.02572,4.38516353,
0.02574,1.026354833,0.02574,4.38516353,
0.02576,0.2954942445,0.02576,4.38516353,
0.02578,1.391785127,0.02578,3.288872648,
0.0258,1.757215421,0.0258,4.38516353,
0.02582,1.757215421,0.02582,4.750593824,
0.02584,2.122645715,0.02584,4.38516353,
0.02586,1.026354833,0.02586,4.019733236,
0.02588,3.584366892,0.02588,5.116024118,
0.0259,2.853506304,0.0259,4.38516353,
0.02592,3.584366892,0.02592,4.38516353,
0.02594,4.31522748,0.02594,4.38516353,
0.02596,3.949797186,0.02596,4.38516353,
0.02598,3.949797186,0.02598,4.750593824,
0.026,3.949797186,0.026,4.750593824,
0.02602,3.584366892,0.02602,4.38516353,
0.02604,3.949797186,0.02604,4.38516353,
0.02606,3.218936598,0.02606,4.38516353,
0.02608,3.584366892,0.02608,3.654302942,
0.0261,2.122645715,0.0261,4.38516353,
0.02612,1.391785127,0.02612,4.750593824,
0.02614,1.391785127,0.02614,4.019733236,
0.02616,2.48807601,0.02616,4.750593824,
0.02618,-0.4353663439,0.02618,5.846884707,
0.0262,-0.0699360497,0.0262,4.750593824,
0.02622,-0.800796638,0.02622,4.750593824,
0.02624,-1.166226932,0.02624,4.750593824,
0.02626,-1.531657226,0.02626,4.019733236,
0.02628,-1.897087521,0.02628,4.750593824,
0.0263,-0.800796638,0.0263,4.38516353,
0.02632,-3.358808697,0.02632,4.750593824,
0.02634,-2.627948109,0.02634,4.750593824,
0.02636,-3.724238991,0.02636,4.750593824,
0.02638,-4.45509958,0.02638,4.019733236,
0.0264,-2.627948109,0.0264,4.38516353,
0.02642,-2.993378403,0.02642,4.38516353,
0.02644,-3.724238991,0.02644,4.750593824,
0.02646,-5.185960168,0.02646,4.38516353,
0.02648,-2.993378403,0.02648,3.654302942,
0.0265,-4.45509958,0.0265,4.38516353,
0.02652,-2.627948109,0.02652,4.750593824,
0.02654,-2.627948109,0.02654,4.750593824,
0.02656,-1.166226932,0.02656,4.750593824,
0.02658,-1.531657226,0.02658,4.750593824,
0.0266,-3.724238991,0.0266,4.38516353,
0.02662,-1.166226932,0.02662,4.750593824,
0.02664,-1.166226932,0.02664,4.38516353,
0.02666,-0.4353663439,0.02666,4.38516353,
0.02668,1.026354833,0.02668,5.116024118,
0.0267,2.48807601,0.0267,4.750593824,
0.02672,1.391785127,0.02672,4.38516353,
0.02674,1.026354833,0.02674,4.38516353,
0.02676,1.391785127,0.02676,4.38516353,
0.02678,0.6609245386,0.02678,4.38516353,
0.0268,4.31522748,0.0268,4.019733236,
0.02682,3.218936598,0.02682,4.750593824,
0.02684,3.949797186,0.02684,4.38516353,
0.02686,2.48807601,0.02686,4.019733236,
0.02688,3.218936598,0.02688,3.654302942,
0.0269,1.391785127,0.0269,4.38516353,
0.02692,3.218936598,0.02692,4.019733236,
0.02694,3.218936598,0.02694,5.116024118,
0.02696,2.48807601,0.02696,4.38516353,
0.02698,4.680657775,0.02698,4.019733236,
0.027,1.026354833,0.027,5.116024118,
0.02702,2.122645715,0.02702,4.019733236,
0.02704,2.48807601,0.02704,3.654302942,
0.02706,-1.166226932,0.02706,5.481454413,
0.02708,0.6609245386,0.02708,3.654302942,
0.0271,1.026354833,0.0271,4.38516353,
0.02712,0.2954942445,0.02712,4.750593824,
0.02714,-0.4353663439,0.02714,4.750593824,
0.02716,-1.531657226,0.02716,4.019733236,
0.02718,-1.531657226,0.02718,4.750593824,
0.0272,-2.627948109,0.0272,4.38516353,
0.02722,-2.993378403,0.02722,3.654302942,
0.02724,-0.800796638,0.02724,4.750593824,
0.02726,-2.262517815,0.02726,3.288872648,
0.02728,-2.993378403,0.02728,4.38516353,
0.0273,-2.262517815,0.0273,4.750593824,
0.02732,-4.089669286,0.02732,4.38516353,
0.02734,-3.724238991,0.02734,4.019733236,
0.02736,-3.358808697,0.02736,4.750593824,
0.02738,-4.089669286,0.02738,5.116024118,
0.0274,-3.724238991,0.0274,4.019733236,
0.02742,-2.993378403,0.02742,4.750593824,
0.02744,-5.185960168,0.02744,5.116024118,
0.02746,-2.627948109,0.02746,4.019733236,
0.02748,-1.166226932,0.02748,4.750593824,
0.0275,-3.358808697,0.0275,4.38516353,
0.02752,-2.262517815,0.02752,4.019733236,
0.02754,-0.0699360497,0.02754,4.750593824,
0.02756,-2.262517815,0.02756,4.38516353,
0.02758,-1.897087521,0.02758,4.019733236,
0.0276,-0.4353663439,0.0276,5.116024118,
0.02762,-0.4353663439,0.02762,4.019733236,
0.02764,0.6609245386,0.02764,4.019733236,
0.02766,1.391785127,0.02766,4.750593824,
0.02768,2.122645715,0.02768,4.38516353,
0.0277,3.584366892,0.0277,4.38516353,
0.02772,2.48807601,0.02772,4.750593824,
0.02774,3.218936598,0.02774,4.38516353,
0.02776,2.853506304,0.02776,3.654302942,
0.02778,3.218936598,0.02778,4.38516353,
0.0278,1.391785127,0.0278,4.38516353,
0.02782,3.584366892,0.02782,4.38516353,
0.02784,4.31522748,0.02784,4.750593824,
0.02786,3.584366892,0.02786,4.38516353,
0.02788,3.218936598,0.02788,4.019733236,
0.0279,1.391785127,0.0279,5.116024118,
0.02792,3.218936598,0.02792,4.38516353,
0.02794,1.757215421,0.02794,4.38516353,
0.02796,3.584366892,0.02796,4.750593824,
0.02798,1.026354833,0.02798,4.38516353,
0.028,-0.0699360497,0.028,4.38516353,
0.02802,1.026354833,0.02802,4.750593824,
0.02804,-0.0699360497,0.02804,4.38516353,
0.02806,-0.800796638,0.02806,4.019733236,
0.02808,0.2954942445,0.02808,4.750593824,
0.0281,-0.800796638,0.0281,4.019733236,
0.02812,-1.531657226,0.02812,4.019733236,
0.02814,-1.897087521,0.02814,4.019733236,
0.02816,-2.627948109,0.02816,3.654302942,
0.02818,-1.531657226,0.02818,4.019733236,
0.0282,-2.627948109,0.0282,4.750593824,
0.02822,-2.993378403,0.02822,5.116024118,
0.02824,-3.358808697,0.02824,4.38516353,
0.02826,-4.089669286,0.02826,4.750593824,
0.02828,-3.358808697,0.02828,4.38516353,
0.0283,-2.627948109,0.0283,4.38516353,
0.02832,-3.724238991,0.02832,5.116024118,
0.02834,-1.897087521,0.02834,4.019733236,
0.02836,-4.089669286,0.02836,4.019733236,
0.02838,-1.897087521,0.02838,4.750593824,
0.0284,-3.724238991,0.0284,4.019733236,
0.02842,-2.993378403,0.02842,4.019733236,
0.02844,-1.897087521,0.02844,4.38516353,
0.02846,-1.897087521,0.02846,4.019733236,
0.02848,-1.897087521,0.02848,4.019733236,
0.0285,0.6609245386,0.0285,4.750593824,
0.02852,-0.0699360497,0.02852,3.288872648,
0.02854,0.2954942445,0.02854,4.38516353,
0.02856,1.391785127,0.02856,4.750593824,
0.02858,1.026354833,0.02858,4.019733236,
0.0286,2.122645715,0.0286,4.38516353,
0.02862,2.122645715,0.02862,4.38516353,
0.02864,2.48807601,0.02864,4.750593824,
0.02866,3.218936598,0.02866,4.38516353,
0.02868,3.218936598,0.02868,4.750593824,
0.0287,5.046088069,0.0287,4.019733236,
0.02872,3.218936598,0.02872,4.38516353,
0.02874,3.949797186,0.02874,4.750593824,
0.02876,3.218936598,0.02876,4.38516353,
0.02878,3.218936598,0.02878,4.019733236,
0.0288,3.218936598,0.0288,5.116024118,
0.02882,4.31522748,0.02882,4.38516353,
0.02884,3.218936598,0.02884,4.38516353,
0.02886,3.218936598,0.02886,4.750593824,
0.02888,2.48807601,0.02888,4.38516353,
0.0289,1.026354833,0.0289,4.38516353,
0.02892,2.48807601,0.02892,4.750593824,
0.02894,1.391785127,0.02894,4.750593824,
0.02896,1.391785127,0.02896,4.019733236,
0.02898,-0.0699360497,0.02898,4.38516353,
0.029,-1.531657226,0.029,4.019733236,
0.02902,-0.4353663439,0.02902,4.019733236,
0.02904,-0.800796638,0.02904,4.38516353,
0.02906,-1.897087521,0.02906,4.38516353,
0.02908,-1.531657226,0.02908,4.019733236,
0.0291,-2.262517815,0.0291,5.116024118,
0.02912,-2.627948109,0.02912,4.750593824,
0.02914,-2.993378403,0.02914,4.019733236,
0.02916,-2.993378403,0.02916,4.750593824,
0.02918,-2.627948109,0.02918,4.38516353,
0.0292,-1.531657226,0.0292,4.019733236,
0.02922,-2.627948109,0.02922,4.38516353,
0.02924,-4.089669286,0.02924,4.750593824,
0.02926,-2.627948109,0.02926,4.38516353,
0.02928,-4.820529874,0.02928,4.750593824,
0.0293,-3.724238991,0.0293,5.846884707,
0.02932,-1.897087521,0.02932,4.38516353,
0.02934,-2.993378403,0.02934,4.750593824,
0.02936,-2.262517815,0.02936,4.38516353,
0.02938,-0.4353663439,0.02938,4.38516353,
0.0294,-1.897087521,0.0294,4.38516353,
0.02942,-1.531657226,0.02942,5.116024118,
0.02944,-0.4353663439,0.02944,4.019733236,
0.02946,-0.0699360497,0.02946,4.750593824,
0.02948,-0.0699360497,0.02948,4.38516353,
0.0295,2.48807601,0.0295,2.558012059,
0.02952,0.2954942445,0.02952,4.750593824,
0.02954,1.391785127,0.02954,4.38516353,
0.02956,2.48807601,0.02956,4.750593824,
0.02958,1.757215421,0.02958,4.750593824,
0.0296,2.48807601,0.0296,4.750593824,
0.02962,3.584366892,0.02962,4.38516353,
0.02964,2.48807601,0.02964,4.750593824,
0.02966,2.48807601,0.02966,4.750593824,
0.02968,3.949797186,0.02968,4.019733236,
0.0297,3.949797186,0.0297,5.846884707,
0.02972,2.122645715,0.02972,4.38516353,
0.02974,2.48807601,0.02974,4.38516353,
0.02976,2.122645715,0.02976,4.38516353,
0.02978,2.48807601,0.02978,4.750593824,
0.0298,1.026354833,0.0298,2.923442353,
0.02982,3.218936598,0.02982,4.019733236,
0.02984,3.218936598,0.02984,4.750593824,
0.02986,1.391785127,0.02986,4.38516353,
0.02988,1.757215421,0.02988,4.38516353,
0.0299,1.026354833,0.0299,5.481454413,
0.02992,1.757215421,0.02992,4.019733236,
0.02994,-0.800796638,0.02994,4.750593824,
0.02996,-0.800796638,0.02996,4.38516353,
0.02998,-1.531657226,0.02998,4.019733236,
0.03,-0.800796638,0.03,5.116024118,
0.03002,-2.262517815,0.03002,4.38516353,
0.03004,-2.993378403,0.03004,5.116024118,
0.03006,-2.627948109,0.03006,4.38516353,
0.03008,-2.993378403,0.03008,4.750593824,
0.0301,-2.993378403,0.0301,4.019733236,
0.03012,-3.724238991,0.03012,4.750593824,
0.03014,-5.551390462,0.03014,4.019733236,
0.03016,-3.358808697,0.03016,5.116024118,
0.03018,-3.724238991,0.03018,4.38516353,
0.0302,-3.358808697,0.0302,4.019733236,
0.03022,-2.262517815,0.03022,5.116024118,
0.03024,-4.089669286,0.03024,4.38516353,
0.03026,-3.724238991,0.03026,4.38516353,
0.03028,-2.993378403,0.03028,4.750593824,
0.0303,-0.4353663439,0.0303,5.116024118,
0.03032,-1.531657226,0.03032,4.38516353,
0.03034,-0.800796638,0.03034,4.750593824,
0.03036,-1.166226932,0.03036,4.38516353,
0.03038,-0.0699360497,0.03038,4.38516353,
0.0304,0.2954942445,0.0304,5.116024118,
0.03042,0.2954942445,0.03042,4.750593824,
0.03044,-0.4353663439,0.03044,4.38516353,
0.03046,2.853506304,0.03046,4.38516353,
0.03048,1.391785127,0.03048,4.019733236,
0.0305,4.31522748,0.0305,4.019733236,
0.03052,4.31522748,0.03052,4.019733236,
0.03054,3.218936598,0.03054,4.019733236,
0.03056,3.584366892,0.03056,4.38516353,
0.03058,3.949797186,0.03058,4.38516353,
0.0306,3.949797186,0.0306,3.654302942,
0.03062,5.411518363,0.03062,4.019733236,
0.03064,3.949797186,0.03064,4.38516353,
0.03066,3.218936598,0.03066,4.38516353,
0.03068,3.949797186,0.03068,4.750593824,
0.0307,3.218936598,0.0307,4.750593824,
0.03072,3.949797186,0.03072,4.019733236,
0.03074,1.391785127,0.03074,4.38516353,
0.03076,2.122645715,0.03076,4.019733236,
0.03078,2.48807601,0.03078,4.019733236,
0.0308,1.757215421,0.0308,4.019733236,
0.03082,1.391785127,0.03082,4.38516353,
0.03084,0.6609245386,0.03084,4.38516353,
0.03086,0.6609245386,0.03086,5.481454413,
0.03088,0.2954942445,0.03088,4.38516353,
0.0309,-1.531657226,0.0309,4.38516353,
0.03092,-0.0699360497,0.03092,4.38516353,
0.03094,-1.531657226,0.03094,4.019733236,
0.03096,-2.262517815,0.03096,4.019733236,
0.03098,-1.897087521,0.03098,4.750593824,
0.031,-2.627948109,0.031,5.116024118,
0.03102,-3.724238991,0.03102,4.019733236,
0.03104,-2.262517815,0.03104,4.750593824,
0.03106,-3.724238991,0.03106,4.38516353,
0.03108,-2.627948109,0.03108,4.019733236,
0.0311,-1.531657226,0.0311,3.654302942,
0.03112,-2.993378403,0.03112,4.38516353,
0.03114,-4.820529874,0.03114,4.38516353,
0.03116,-2.262517815,0.03116,4.38516353,
0.03118,-3.724238991,0.03118,4.38516353,
0.0312,-3.358808697,0.0312,4.019733236,
0.03122,-2.627948109,0.03122,4.38516353,
0.03124,-1.166226932,0.03124,4.38516353,
0.03126,-2.627948109,0.03126,4.38516353,
0.03128,-1.166226932,0.03128,4.38516353,
0.0313,-0.4353663439,0.0313,4.38516353,
0.03132,-0.0699360497,0.03132,4.019733236,
0.03134,-0.0699360497,0.03134,4.38516353,
0.03136,1.391785127,0.03136,4.38516353,
0.03138,0.2954942445,0.03138,3.654302942,
0.0314,2.122645715,0.0314,4.38516353,
0.03142,2.48807601,0.03142,4.38516353,
0.03144,2.853506304,0.03144,3.654302942,
0.03146,1.757215421,0.03146,4.38516353,
0.03148,4.31522748,0.03148,4.019733236,
0.0315,3.949797186,0.0315,4.019733236,
0.03152,3.218936598,0.03152,4.750593824,
0.03154,3.949797186,0.03154,4.38516353,
0.03156,3.584366892,0.03156,3.654302942,
0.03158,3.584366892,0.03158,4.38516353,
0.0316,3.949797186,0.0316,4.38516353,
0.03162,3.584366892,0.03162,3.654302942,
0.03164,3.218936598,0.03164,4.019733236,
0.03166,3.949797186,0.03166,4.019733236,
0.03168,2.48807601,0.03168,4.019733236,
0.0317,2.853506304,0.0317,4.019733236,
0.03172,1.391785127,0.03172,4.019733236,
0.03174,1.757215421,0.03174,3.654302942,
0.03176,3.218936598,0.03176,4.750593824,
0.03178,0.6609245386,0.03178,4.750593824,
0.0318,0.2954942445,0.0318,3.654302942,
0.03182,-0.800796638,0.03182,4.38516353,
0.03184,-1.531657226,0.03184,4.019733236,
0.03186,-1.531657226,0.03186,4.019733236,
0.03188,-1.531657226,0.03188,4.019733236,
0.0319,-2.627948109,0.0319,4.019733236,
0.03192,-0.800796638,0.03192,3.654302942,
0.03194,-0.0699360497,0.03194,4.38516353,
0.03196,-2.627948109,0.03196,4.38516353,
0.03198,-4.45509958,0.03198,3.654302942,
0.032,-1.166226932,0.032,4.38516353,
0.03202,-3.358808697,0.03202,4.38516353,
0.03204,-6.647681345,0.03204,3.654302942,
0.03206,-2.262517815,0.03206,4.38516353,
0.03208,-2.627948109,0.03208,4.019733236,
0.0321,-2.627948109,0.0321,4.750593824,
0.03212,-2.993378403,0.03212,4.019733236,
0.03214,-3.724238991,0.03214,3.288872648,
0.03216,-2.627948109,0.03216,4.019733236,
0.03218,-1.531657226,0.03218,3.654302942,
0.0322,-0.4353663439,0.0322,3.654302942,
0.03222,-1.531657226,0.03222,4.019733236,
0.03224,-0.4353663439,0.03224,4.019733236,
0.03226,-0.0699360497,0.03226,4.019733236,
0.03228,-0.0699360497,0.03228,4.019733236,
0.0323,2.122645715,0.0323,4.38516353,
0.03232,2.48807601,0.03232,4.019733236,
0.03234,2.122645715,0.03234,3.288872648,
0.03236,2.853506304,0.03236,4.38516353,
0.03238,1.391785127,0.03238,4.38516353,
0.0324,2.48807601,0.0324,4.750593824,
0.03242,3.218936598,0.03242,4.38516353,
0.03244,2.48807601,0.03244,4.38516353,
0.03246,3.949797186,0.03246,4.750593824,
0.03248,2.853506304,0.03248,4.38516353,
0.0325,3.584366892,0.0325,4.38516353,
0.03252,3.949797186,0.03252,5.116024118,
0.03254,3.218936598,0.03254,4.38516353,
0.03256,3.584366892,0.03256,4.019733236,
0.03258,3.218936598,0.03258,4.750593824,
0.0326,1.391785127,0.0326,4.38516353,
0.03262,1.391785127,0.03262,4.019733236,
0.03264,2.853506304,0.03264,4.750593824,
0.03266,-0.0699360497,0.03266,4.019733236,
0.03268,1.026354833,0.03268,4.38516353,
0.0327,0.2954942445,0.0327,4.750593824,
0.03272,0.6609245386,0.03272,4.019733236,
0.03274,0.2954942445,0.03274,4.38516353,
0.03276,-1.166226932,0.03276,4.750593824,
0.03278,-1.531657226,0.03278,4.38516353,
0.0328,-2.262517815,0.0328,4.019733236,
0.03282,-2.993378403,0.03282,4.38516353,
0.03284,-2.262517815,0.03284,4.38516353,
0.03286,-2.993378403,0.03286,4.019733236,
0.03288,-3.358808697,0.03288,4.750593824,
0.0329,-4.820529874,0.0329,4.38516353,
0.03292,-3.358808697,0.03292,4.38516353,
0.03294,-3.358808697,0.03294,4.38516353,
0.03296,-3.358808697,0.03296,4.38516353,
0.03298,-4.089669286,0.03298,4.019733236,
0.033,-2.627948109,0.033,4.38516353,
0.03302,-3.358808697,0.03302,4.750593824,
0.03304,-4.820529874,0.03304,4.019733236,
0.03306,-2.627948109,0.03306,4.750593824,
0.03308,-2.993378403,0.03308,4.38516353,
0.0331,-1.166226932,0.0331,4.38516353,
0.03312,-1.166226932,0.03312,5.481454413,
0.03314,-1.531657226,0.03314,4.019733236,
0.03316,-1.166226932,0.03316,4.38516353,
0.03318,-0.0699360497,0.03318,4.750593824,
0.0332,-0.4353663439,0.0332,4.38516353,
0.03322,0.6609245386,0.03322,4.750593824,
0.03324,0.6609245386,0.03324,4.750593824,
0.03326,1.026354833,0.03326,4.38516353,
0.03328,1.757215421,0.03328,4.019733236,
0.0333,2.853506304,0.0333,4.38516353,
0.03332,2.122645715,0.03332,3.288872648,
0.03334,3.218936598,0.03334,4.38516353,
0.03336,3.584366892,0.03336,4.750593824,
0.03338,1.391785127,0.03338,4.750593824,
0.0334,2.853506304,0.0334,4.019733236,
0.03342,3.218936598,0.03342,4.750593824,
0.03344,3.218936598,0.03344,4.38516353,
0.03346,2.853506304,0.03346,4.38516353,
0.03348,2.853506304,0.03348,4.750593824,
0.0335,3.949797186,0.0335,4.750593824,
0.03352,1.757215421,0.03352,5.116024118,
0.03354,2.853506304,0.03354,4.38516353,
0.03356,1.757215421,0.03356,4.019733236,
0.03358,2.853506304,0.03358,4.019733236,
0.0336,1.391785127,0.0336,4.750593824,
0.03362,0.2954942445,0.03362,2.923442353,
0.03364,-1.166226932,0.03364,4.019733236,
0.03366,-0.4353663439,0.03366,4.38516353,
0.03368,-0.800796638,0.03368,4.38516353,
0.0337,0.2954942445,0.0337,4.019733236,
0.03372,-1.166226932,0.03372,3.654302942,
0.03374,-2.627948109,0.03374,4.38516353,
0.03376,-1.166226932,0.03376,4.38516353,
0.03378,-5.916820756,0.03378,4.750593824,
0.0338,-2.993378403,0.0338,4.38516353,
0.03382,-5.185960168,0.03382,4.750593824,
0.03384,-5.185960168,0.03384,4.38516353,
0.03386,-2.262517815,0.03386,3.654302942,
0.03388,-4.089669286,0.03388,4.38516353,
0.0339,-3.358808697,0.0339,4.38516353,
0.03392,-4.089669286,0.03392,4.750593824,
0.03394,-2.993378403,0.03394,4.019733236,
0.03396,-3.724238991,0.03396,4.38516353,
0.03398,-3.724238991,0.03398,4.019733236,
0.034,-3.358808697,0.034,4.019733236,
0.03402,-2.627948109,0.03402,5.846884707,
0.03404,-1.897087521,0.03404,4.38516353,
0.03406,-2.262517815,0.03406,4.019733236,
0.03408,-1.531657226,0.03408,4.750593824,
0.0341,-2.627948109,0.0341,4.38516353,
0.03412,-0.0699360497,0.03412,3.654302942,
0.03414,0.6609245386,0.03414,5.481454413,
0.03416,0.2954942445,0.03416,4.019733236,
0.03418,1.391785127,0.03418,4.38516353,
0.0342,1.757215421,0.0342,4.750593824,
0.03422,1.391785127,0.03422,3.654302942,
0.03424,0.6609245386,0.03424,4.38516353,
0.03426,3.218936598,0.03426,4.750593824,
0.03428,2.853506304,0.03428,4.38516353,
0.0343,2.853506304,0.0343,4.38516353,
0.03432,2.48807601,0.03432,5.116024118,
0.03434,5.046088069,0.03434,4.019733236,
0.03436,3.949797186,0.03436,4.750593824,
0.03438,3.218936598,0.03438,4.38516353,
0.0344,5.046088069,0.0344,4.019733236,
0.03442,3.584366892,0.03442,4.750593824,
0.03444,3.949797186,0.03444,4.38516353,
0.03446,2.853506304,0.03446,4.38516353,
0.03448,2.853506304,0.03448,4.38516353,
0.0345,1.757215421,0.0345,4.750593824,
0.03452,1.391785127,0.03452,3.654302942,
0.03454,1.391785127,0.03454,4.38516353,
0.03456,-0.0699360497,0.03456,4.38516353,
0.03458,1.026354833,0.03458,4.38516353,
0.0346,-0.0699360497,0.0346,4.38516353,
0.03462,-1.897087521,0.03462,4.38516353,
0.03464,-2.627948109,0.03464,5.116024118,
0.03466,-3.358808697,0.03466,4.019733236,
0.03468,-2.262517815,0.03468,5.116024118,
0.0347,-1.166226932,0.0347,4.750593824,
0.03472,-3.358808697,0.03472,5.116024118,
0.03474,-2.993378403,0.03474,4.750593824,
0.03476,-2.993378403,0.03476,4.38516353,
0.03478,-3.358808697,0.03478,4.750593824,
0.0348,-4.820529874,0.0348,4.38516353,
0.03482,-2.993378403,0.03482,4.38516353,
0.03484,-2.627948109,0.03484,4.38516353,
0.03486,-0.4353663439,0.03486,4.750593824,
0.03488,-3.358808697,0.03488,4.38516353,
0.0349,-2.627948109,0.0349,4.019733236,
0.03492,-2.627948109,0.03492,4.019733236,
0.03494,-2.262517815,0.03494,4.38516353,
0.03496,-2.627948109,0.03496,4.019733236,
0.03498,-1.897087521,0.03498,4.38516353,
0.035,-1.897087521,0.035,4.38516353,
0.03502,-0.0699360497,0.03502,4.019733236,
0.03504,-1.166226932,0.03504,4.019733236,
0.03506,1.391785127,0.03506,4.019733236,
0.03508,0.2954942445,0.03508,4.38516353,
0.0351,-0.4353663439,0.0351,4.019733236,
0.03512,1.391785127,0.03512,4.38516353,
0.03514,3.949797186,0.03514,4.38516353,
0.03516,2.122645715,0.03516,4.38516353,
0.03518,1.757215421,0.03518,4.38516353,
0.0352,2.853506304,0.0352,4.750593824,
0.03522,4.680657775,0.03522,4.38516353,
0.03524,4.680657775,0.03524,4.38516353,
0.03526,3.218936598,0.03526,4.019733236,
0.03528,6.142378951,0.03528,4.750593824,
0.0353,3.949797186,0.0353,4.019733236,
0.03532,3.218936598,0.03532,4.38516353,
0.03534,1.757215421,0.03534,5.116024118,
0.03536,2.48807601,0.03536,4.019733236,
0.03538,3.218936598,0.03538,4.019733236,
0.0354,3.949797186,0.0354,4.38516353,
0.03542,1.757215421,0.03542,4.019733236,
0.03544,1.391785127,0.03544,4.019733236,
0.03546,2.122645715,0.03546,4.38516353,
0.03548,3.218936598,0.03548,4.019733236,
0.0355,2.122645715,0.0355,4.019733236,
0.03552,0.2954942445,0.03552,4.750593824,
0.03554,1.026354833,0.03554,4.38516353,
0.03556,-1.531657226,0.03556,4.019733236,
0.03558,-1.166226932,0.03558,5.116024118,
0.0356,-1.897087521,0.0356,4.019733236,
0.03562,-1.166226932,0.03562,4.019733236,
0.03564,-1.531657226,0.03564,4.750593824,
0.03566,-3.724238991,0.03566,4.019733236,
0.03568,-3.724238991,0.03568,4.38516353,
0.0357,-3.358808697,0.0357,5.116024118,
0.03572,-3.358808697,0.03572,4.019733236,
0.03574,-4.089669286,0.03574,4.019733236,
0.03576,-2.993378403,0.03576,4.38516353,
0.03578,-3.724238991,0.03578,4.019733236,
0.0358,-4.820529874,0.0358,4.019733236,
0.03582,-4.45509958,0.03582,4.750593824,
0.03584,-3.724238991,0.03584,4.38516353,
0.03586,-4.089669286,0.03586,4.019733236,
0.03588,-1.531657226,0.03588,4.750593824,
0.0359,-2.627948109,0.0359,4.38516353,
0.03592,-1.166226932,0.03592,3.654302942,
0.03594,-1.166226932,0.03594,3.654302942,
0.03596,-0.4353663439,0.03596,4.38516353,
0.03598,-1.531657226,0.03598,4.019733236,
0.036,1.391785127,0.036,4.750593824,
0.03602,-0.800796638,0.03602,4.38516353,
0.03604,1.026354833,0.03604,4.019733236,
0.03606,1.391785127,0.03606,4.019733236,
0.03608,1.391785127,0.03608,4.019733236,
0.0361,1.757215421,0.0361,4.019733236,
0.03612,3.949797186,0.03612,4.750593824,
0.03614,3.218936598,0.03614,4.019733236,
0.03616,2.48807601,0.03616,3.654302942,
0.03618,3.584366892,0.03618,4.750593824,
0.0362,3.949797186,0.0362,4.38516353,
0.03622,3.218936598,0.03622,3.654302942,
0.03624,2.853506304,0.03624,4.750593824,
0.03626,3.949797186,0.03626,4.38516353,
0.03628,2.48807601,0.03628,4.019733236,
0.0363,2.48807601,0.0363,5.481454413,
0.03632,2.853506304,0.03632,4.38516353,
0.03634,1.757215421,0.03634,4.019733236,
0.03636,2.48807601,0.03636,4.750593824,
0.03638,1.391785127,0.03638,4.38516353,
0.0364,1.391785127,0.0364,4.38516353,
0.03642,1.391785127,0.03642,4.38516353,
0.03644,0.6609245386,0.03644,4.38516353,
0.03646,0.2954942445,0.03646,4.38516353,
0.03648,-0.4353663439,0.03648,4.38516353,
0.0365,-1.531657226,0.0365,4.750593824,
0.03652,-1.531657226,0.03652,3.654302942,
0.03654,-1.166226932,0.03654,4.750593824,
0.03656,-2.627948109,0.03656,4.38516353,
0.03658,-4.089669286,0.03658,4.38516353,
0.0366,-2.993378403,0.0366,4.750593824,
0.03662,-1.897087521,0.03662,4.750593824,
0.03664,-2.627948109,0.03664,3.654302942,
0.03666,-3.358808697,0.03666,4.750593824,
0.03668,-3.358808697,0.03668,4.38516353,
0.0367,-4.45509958,0.0367,4.019733236,
0.03672,-3.724238991,0.03672,4.38516353,
0.03674,-5.551390462,0.03674,4.38516353,
0.03676,-4.089669286,0.03676,4.750593824,
0.03678,-4.089669286,0.03678,4.38516353,
0.0368,-6.282251051,0.0368,4.019733236,
0.03682,-0.800796638,0.03682,4.750593824,
0.03684,-2.993378403,0.03684,5.116024118,
0.03686,-2.993378403,0.03686,4.38516353,
0.03688,-1.531657226,0.03688,4.019733236,
0.0369,-0.4353663439,0.0369,4.750593824,
0.03692,-0.800796638,0.03692,4.750593824,
0.03694,1.026354833,0.03694,3.288872648,
0.03696,0.6609245386,0.03696,4.750593824,
0.03698,1.391785127,0.03698,4.019733236,
0.037,1.026354833,0.037,4.019733236,
0.03702,2.48807601,0.03702,4.750593824,
0.03704,4.31522748,0.03704,5.481454413,
0.03706,3.218936598,0.03706,4.019733236,
0.03708,2.853506304,0.03708,4.38516353,
0.0371,0.2954942445,0.0371,4.38516353,
0.03712,3.218936598,0.03712,4.38516353,
0.03714,3.949797186,0.03714,4.38516353,
0.03716,3.584366892,0.03716,4.750593824,
0.03718,3.584366892,0.03718,4.019733236,
0.0372,3.584366892,0.0372,5.116024118,
0.03722,2.122645715,0.03722,4.750593824,
0.03724,2.48807601,0.03724,4.38516353,
0.03726,5.411518363,0.03726,5.116024118,
0.03728,3.584366892,0.03728,4.750593824,
0.0373,1.391785127,0.0373,4.38516353,
0.03732,1.757215421,0.03732,4.750593824,
0.03734,0.2954942445,0.03734,6.212315001,
0.03736,1.757215421,0.03736,4.750593824,
0.03738,1.391785127,0.03738,4.38516353,
0.0374,0.2954942445,0.0374,4.38516353,
0.03742,-0.4353663439,0.03742,4.38516353,
0.03744,-0.4353663439,0.03744,2.923442353,
0.03746,-1.166226932,0.03746,4.750593824,
0.03748,-2.262517815,0.03748,4.38516353,
0.0375,-3.358808697,0.0375,4.38516353,
0.03752,-3.358808697,0.03752,4.38516353,
0.03754,-1.166226932,0.03754,5.116024118,
0.03756,-2.993378403,0.03756,4.750593824,
0.03758,-3.358808697,0.03758,4.750593824,
0.0376,-2.627948109,0.0376,4.019733236,
0.03762,-5.185960168,0.03762,4.750593824,
0.03764,-4.45509958,0.03764,5.116024118,
0.03766,-4.45509958,0.03766,4.38516353,
0.03768,-3.358808697,0.03768,5.116024118,
0.0377,-1.897087521,0.0377,4.019733236,
0.03772,-2.993378403,0.03772,4.019733236,
0.03774,-3.724238991,0.03774,4.019733236,
0.03776,-1.897087521,0.03776,4.38516353,
0.03778,-2.262517815,0.03778,4.38516353,
0.0378,-0.4353663439,0.0378,4.750593824,
0.03782,-1.166226932,0.03782,4.019733236,
0.03784,0.2954942445,0.03784,5.116024118,
0.03786,0.6609245386,0.03786,4.750593824,
0.03788,0.2954942445,0.03788,4.38516353,
0.0379,1.757215421,0.0379,4.38516353,
0.03792,1.757215421,0.03792,4.38516353,
0.03794,-0.800796638,0.03794,5.116024118,
0.03796,2.122645715,0.03796,4.750593824,
0.03798,2.853506304,0.03798,4.38516353,
0.038,2.122645715,0.038,4.750593824,
0.03802,3.949797186,0.03802,4.38516353,
0.03804,2.122645715,0.03804,3.654302942,
0.03806,3.218936598,0.03806,4.38516353,
0.03808,3.218936598,0.03808,4.38516353,
0.0381,3.584366892,0.0381,4.750593824,
0.03812,2.853506304,0.03812,4.38516353,
0.03814,3.218936598,0.03814,4.38516353,
0.03816,5.411518363,0.03816,4.38516353,
0.03818,2.122645715,0.03818,4.019733236,
0.0382,4.31522748,0.0382,4.019733236,
0.03822,2.48807601,0.03822,4.38516353,
0.03824,1.391785127,0.03824,4.750593824,
0.03826,1.757215421,0.03826,3.654302942,
0.03828,1.757215421,0.03828,4.38516353,
0.0383,-0.4353663439,0.0383,4.38516353,
0.03832,1.026354833,0.03832,4.38516353,
0.03834,1.391785127,0.03834,5.116024118,
0.03836,-1.531657226,0.03836,4.750593824,
0.03838,-2.627948109,0.03838,4.019733236,
0.0384,-0.800796638,0.0384,4.019733236,
0.03842,-2.262517815,0.03842,4.38516353,
0.03844,0.6609245386,0.03844,4.38516353,
0.03846,-2.262517815,0.03846,5.116024118,
0.03848,-2.627948109,0.03848,3.654302942,
0.0385,-3.724238991,0.0385,4.38516353,
0.03852,-2.993378403,0.03852,4.750593824,
0.03854,-3.724238991,0.03854,4.019733236,
0.03856,-3.358808697,0.03856,4.38516353,
0.03858,-3.358808697,0.03858,5.116024118,
0.0386,-3.724238991,0.0386,4.019733236,
0.03862,-2.993378403,0.03862,4.750593824,
0.03864,-3.358808697,0.03864,4.750593824,
0.03866,-3.358808697,0.03866,4.019733236,
0.03868,-2.627948109,0.03868,4.38516353,
0.0387,-4.089669286,0.0387,4.750593824,
0.03872,-2.262517815,0.03872,4.38516353,
0.03874,-1.897087521,0.03874,4.38516353,
0.03876,-1.166226932,0.03876,4.750593824,
0.03878,-0.4353663439,0.03878,5.116024118,
0.0388,0.6609245386,0.0388,4.38516353,
0.03882,1.391785127,0.03882,4.38516353,
0.03884,0.6609245386,0.03884,4.750593824,
0.03886,3.584366892,0.03886,4.38516353,
0.03888,1.391785127,0.03888,4.38516353,
0.0389,1.757215421,0.0389,4.38516353,
0.03892,3.218936598,0.03892,4.38516353,
0.03894,2.853506304,0.03894,4.750593824,
0.03896,2.853506304,0.03896,4.38516353,
0.03898,3.584366892,0.03898,4.38516353,
0.039,3.949797186,0.039,4.38516353,
0.03902,3.949797186,0.03902,4.750593824,
0.03904,3.949797186,0.03904,4.019733236,
0.03906,3.218936598,0.03906,4.019733236,
0.03908,2.853506304,0.03908,4.019733236,
0.0391,3.218936598,0.0391,4.750593824,
0.03912,2.48807601,0.03912,4.019733236,
0.03914,2.853506304,0.03914,4.750593824,
0.03916,3.949797186,0.03916,4.38516353,
0.03918,1.757215421,0.03918,3.654302942,
0.0392,0.6609245386,0.0392,4.38516353,
0.03922,1.026354833,0.03922,4.38516353,
0.03924,0.2954942445,0.03924,4.38516353,
0.03926,1.391785127,0.03926,4.019733236,
0.03928,-0.0699360497,0.03928,4.38516353,
0.0393,-1.166226932,0.0393,3.654302942,
0.03932,-2.993378403,0.03932,4.38516353,
0.03934,-0.4353663439,0.03934,4.38516353,
0.03936,-1.166226932,0.03936,4.019733236,
0.03938,-2.262517815,0.03938,3.654302942,
0.0394,-2.627948109,0.0394,4.38516353,
0.03942,-2.627948109,0.03942,4.38516353,
0.03944,-2.993378403,0.03944,4.019733236,
0.03946,-1.897087521,0.03946,4.38516353,
0.03948,-3.358808697,0.03948,4.019733236,
0.0395,-5.916820756,0.0395,4.38516353,
0.03952,-3.358808697,0.03952,4.750593824,
0.03954,-3.358808697,0.03954,4.019733236,
0.03956,-2.627948109,0.03956,4.019733236,
0.03958,-2.262517815,0.03958,4.38516353,
0.0396,-2.627948109,0.0396,4.019733236,
0.03962,-2.262517815,0.03962,5.116024118,
0.03964,-1.897087521,0.03964,4.019733236,
0.03966,-1.897087521,0.03966,4.019733236,
0.03968,-0.800796638,0.03968,4.38516353,
0.0397,-1.166226932,0.0397,2.923442353,
0.03972,0.2954942445,0.03972,4.019733236,
0.03974,0.6609245386,0.03974,4.750593824,
0.03976,1.391785127,0.03976,4.38516353,
0.03978,1.026354833,0.03978,3.654302942,
0.0398,2.48807601,0.0398,4.38516353,
0.03982,2.48807601,0.03982,4.019733236,
0.03984,2.122645715,0.03984,4.019733236,
0.03986,3.218936598,0.03986,4.38516353,
0.03988,3.949797186,0.03988,3.654302942,
0.0399,2.853506304,0.0399,3.654302942,
0.03992,3.949797186,0.03992,4.38516353,
0.03994,3.949797186,0.03994,4.38516353,
0.03996,3.218936598,0.03996,4.38516353,
0.03998,3.218936598,0.03998,4.38516353,
0.04,3.584366892,0.04,4.38516353,
0.04002,1.026354833,0.04002,3.654302942,
0.04004,4.680657775,0.04004,4.019733236,
0.04006,4.31522748,0.04006,4.38516353,
0.04008,4.31522748,0.04008,4.38516353,
0.0401,3.218936598,0.0401,4.019733236,
0.04012,1.026354833,0.04012,4.38516353,
0.04014,1.391785127,0.04014,4.019733236,
0.04016,0.2954942445,0.04016,5.116024118,
0.04018,0.6609245386,0.04018,4.38516353,
0.0402,-0.800796638,0.0402,4.38516353,
0.04022,-1.166226932,0.04022,4.38516353,
0.04024,-1.531657226,0.04024,4.750593824,
0.04026,-2.627948109,0.04026,4.750593824,
0.04028,-1.166226932,0.04028,4.38516353,
0.0403,-1.531657226,0.0403,4.38516353,
0.04032,-3.724238991,0.04032,4.38516353,
0.04034,-3.358808697,0.04034,4.750593824,
0.04036,-3.358808697,0.04036,4.750593824,
0.04038,-3.358808697,0.04038,4.750593824,
0.0404,-3.358808697,0.0404,4.750593824,
0.04042,-3.358808697,0.04042,4.750593824,
0.04044,-3.358808697,0.04044,4.38516353,
0.04046,-4.45509958,0.04046,4.019733236,
0.04048,-4.45509958,0.04048,4.38516353,
0.0405,-2.993378403,0.0405,4.38516353,
0.04052,1.026354833,0.04052,5.481454413,
0.04054,-3.358808697,0.04054,4.38516353,
0.04056,-2.627948109,0.04056,4.38516353,
0.04058,-1.166226932,0.04058,5.481454413,
0.0406,-1.166226932,0.0406,4.019733236,
0.04062,-1.531657226,0.04062,4.019733236,
0.04064,-1.166226932,0.04064,4.750593824,
0.04066,-0.0699360497,0.04066,5.481454413,
0.04068,1.391785127,0.04068,4.38516353,
0.0407,1.026354833,0.0407,4.750593824,
0.04072,1.026354833,0.04072,5.116024118,
0.04074,1.026354833,0.04074,4.019733236,
0.04076,4.31522748,0.04076,4.38516353,
0.04078,2.48807601,0.04078,4.38516353,
0.0408,3.218936598,0.0408,4.750593824,
0.04082,5.411518363,0.04082,4.38516353,
0.04084,2.853506304,0.04084,4.019733236,
0.04086,3.584366892,0.04086,2.923442353,
0.04088,2.48807601,0.04088,4.750593824,
0.0409,2.48807601,0.0409,4.38516353,
0.04092,3.949797186,0.04092,4.38516353,
0.04094,3.949797186,0.04094,4.750593824,
0.04096,2.48807601,0.04096,5.846884707,
0.04098,3.218936598,0.04098,4.38516353,
0.041,2.853506304,0.041,5.846884707,
0.04102,2.122645715,0.04102,4.38516353,
0.04104,2.48807601,0.04104,4.38516353,
0.04106,3.218936598,0.04106,4.019733236,
0.04108,0.6609245386,0.04108,4.38516353,
0.0411,1.026354833,0.0411,4.019733236,
0.04112,-1.531657226,0.04112,4.750593824,
0.04114,-1.897087521,0.04114,4.38516353,
0.04116,-0.800796638,0.04116,3.288872648,
0.04118,-1.531657226,0.04118,4.750593824,
0.0412,-0.0699360497,0.0412,4.38516353,
0.04122,-1.897087521,0.04122,4.38516353,
0.04124,-2.993378403,0.04124,4.750593824,
0.04126,-2.993378403,0.04126,4.750593824,
0.04128,-3.358808697,0.04128,4.750593824,
0.0413,-3.358808697,0.0413,4.38516353,
0.04132,-4.45509958,0.04132,4.38516353,
0.04134,-4.45509958,0.04134,4.38516353,
0.04136,-3.724238991,0.04136,5.481454413,
0.04138,-2.262517815,0.04138,4.38516353,
0.0414,-2.993378403,0.0414,4.38516353,
0.04142,-3.724238991,0.04142,5.116024118,
0.04144,-2.627948109,0.04144,4.750593824,
0.04146,-2.262517815,0.04146,3.654302942,
0.04148,-2.993378403,0.04148,4.750593824,
0.0415,-2.627948109,0.0415,4.38516353,
0.04152,-1.166226932,0.04152,4.38516353,
0.04154,-1.166226932,0.04154,4.750593824,
0.04156,-0.800796638,0.04156,4.750593824,
0.04158,1.026354833,0.04158,4.38516353,
0.0416,-1.531657226,0.0416,4.38516353,
0.04162,0.2954942445,0.04162,4.019733236,
0.04164,2.48807601,0.04164,4.019733236,
0.04166,2.122645715,0.04166,4.750593824,
0.04168,2.853506304,0.04168,4.750593824,
0.0417,2.122645715,0.0417,4.019733236,
0.04172,2.122645715,0.04172,4.750593824,
0.04174,2.48807601,0.04174,4.38516353,
0.04176,3.584366892,0.04176,3.654302942,
0.04178,2.48807601,0.04178,4.750593824,
0.0418,1.757215421,0.0418,4.750593824,
0.04182,3.218936598,0.04182,4.019733236,
0.04184,4.31522748,0.04184,4.750593824,
0.04186,1.391785127,0.04186,5.116024118,
0.04188,3.949797186,0.04188,4.750593824,
0.0419,3.218936598,0.0419,4.019733236,
0.04192,3.218936598,0.04192,4.019733236,
0.04194,3.584366892,0.04194,4.38516353,
0.04196,3.584366892,0.04196,3.654302942,
0.04198,1.391785127,0.04198,4.38516353,
0.042,1.757215421,0.042,4.019733236,
0.04202,1.026354833,0.04202,4.019733236,
0.04204,0.6609245386,0.04204,4.019733236,
0.04206,-0.0699360497,0.04206,4.019733236,
0.04208,-1.897087521,0.04208,4.019733236,
0.0421,-0.4353663439,0.0421,4.38516353,
0.04212,-1.166226932,0.04212,4.019733236,
0.04214,-2.262517815,0.04214,3.654302942,
0.04216,-0.800796638,0.04216,4.38516353,
0.04218,-0.4353663439,0.04218,4.019733236,
0.0422,-4.089669286,0.0422,4.019733236,
0.04222,-1.897087521,0.04222,4.38516353,
0.04224,-4.089669286,0.04224,5.116024118,
0.04226,-4.45509958,0.04226,4.019733236,
0.04228,-2.627948109,0.04228,4.38516353,
0.0423,-2.627948109,0.0423,4.38516353,
0.04232,-4.089669286,0.04232,4.019733236,
0.04234,-1.897087521,0.04234,4.38516353,
0.04236,-2.993378403,0.04236,4.019733236,
0.04238,-4.089669286,0.04238,3.654302942,
0.0424,-0.4353663439,0.0424,4.019733236,
0.04242,-2.262517815,0.04242,4.750593824,
0.04244,-1.531657226,0.04244,4.019733236,
0.04246,0.6609245386,0.04246,4.38516353,
0.04248,-2.262517815,0.04248,4.38516353,
0.0425,-0.0699360497,0.0425,3.654302942,
0.04252,-0.0699360497,0.04252,4.750593824,
0.04254,-1.897087521,0.04254,4.019733236,
0.04256,1.026354833,0.04256,4.019733236,
0.04258,2.853506304,0.04258,4.38516353,
0.0426,1.757215421,0.0426,3.654302942,
0.04262,2.122645715,0.04262,3.654302942,
0.04264,2.48807601,0.04264,4.38516353,
0.04266,2.122645715,0.04266,4.38516353,
0.04268,3.218936598,0.04268,4.019733236,
0.0427,3.949797186,0.0427,4.38516353,
0.04272,1.757215421,0.04272,4.019733236,
0.04274,2.853506304,0.04274,4.019733236,
0.04276,5.411518363,0.04276,5.116024118,
0.04278,2.122645715,0.04278,4.019733236,
0.0428,4.680657775,0.0428,3.654302942,
0.04282,5.046088069,0.04282,4.750593824,
0.04284,5.411518363,0.04284,4.750593824,
0.04286,2.48807601,0.04286,3.654302942,
0.04288,4.680657775,0.04288,4.38516353,
0.0429,1.391785127,0.0429,4.019733236,
0.04292,1.757215421,0.04292,3.654302942,
0.04294,1.757215421,0.04294,4.38516353,
0.04296,1.026354833,0.04296,4.019733236,
0.04298,0.6609245386,0.04298,3.654302942,
0.043,0.6609245386,0.043,4.38516353,
0.04302,0.2954942445,0.04302,4.38516353,
0.04304,-1.166226932,0.04304,3.654302942,
0.04306,-0.800796638,0.04306,4.38516353,
0.04308,-1.531657226,0.04308,4.38516353,
0.0431,-1.531657226,0.0431,3.654302942,
0.04312,-4.089669286,0.04312,4.019733236,
0.04314,-2.627948109,0.04314,4.38516353,
0.04316,-3.724238991,0.04316,4.019733236,
0.04318,-2.262517815,0.04318,4.38516353,
0.0432,-2.993378403,0.0432,4.019733236,
0.04322,-2.627948109,0.04322,3.654302942,
0.04324,-2.262517815,0.04324,4.019733236,
0.04326,-3.724238991,0.04326,4.38516353,
0.04328,-4.820529874,0.04328,3.654302942,
0.0433,-2.627948109,0.0433,4.019733236,
0.04332,-2.627948109,0.04332,4.38516353,
0.04334,-2.627948109,0.04334,4.019733236,
0.04336,-2.262517815,0.04336,4.019733236,
0.04338,-2.262517815,0.04338,3.654302942,
0.0434,-2.262517815,0.0434,3.654302942,
0.04342,1.026354833,0.04342,4.019733236,
0.04344,0.6609245386,0.04344,4.38516353,
0.04346,-0.800796638,0.04346,4.019733236,
0.04348,1.391785127,0.04348,4.019733236,
0.0435,1.026354833,0.0435,4.38516353,
0.04352,1.757215421,0.04352,3.654302942,
0.04354,1.757215421,0.04354,4.38516353,
0.04356,2.853506304,0.04356,4.38516353,
0.04358,2.853506304,0.04358,3.654302942,
0.0436,2.853506304,0.0436,4.38516353,
0.04362,3.949797186,0.04362,4.019733236,
0.04364,3.949797186,0.04364,4.019733236,
0.04366,4.680657775,0.04366,4.38516353,
0.04368,3.949797186,0.04368,4.38516353,
0.0437,5.411518363,0.0437,4.019733236,
0.04372,3.584366892,0.04372,4.38516353,
0.04374,3.218936598,0.04374,4.38516353,
0.04376,3.949797186,0.04376,4.019733236,
0.04378,2.48807601,0.04378,4.750593824,
0.0438,2.122645715,0.0438,4.38516353,
0.04382,2.48807601,0.04382,4.750593824,
0.04384,1.757215421,0.04384,4.750593824,
0.04386,1.026354833,0.04386,4.019733236,
0.04388,0.2954942445,0.04388,4.019733236,
0.0439,-1.166226932,0.0439,4.38516353,
0.04392,-0.4353663439,0.04392,4.38516353,
0.04394,-0.800796638,0.04394,4.38516353,
0.04396,-0.800796638,0.04396,4.38516353,
0.04398,-0.4353663439,0.04398,4.38516353,
0.044,-1.897087521,0.044,4.750593824,
0.04402,-1.897087521,0.04402,4.38516353,
0.04404,-4.089669286,0.04404,4.019733236,
0.04406,-2.993378403,0.04406,4.38516353,
0.04408,-2.627948109,0.04408,4.750593824,
0.0441,-3.358808697,0.0441,4.38516353,
0.04412,-4.089669286,0.04412,4.750593824,
0.04414,-4.820529874,0.04414,4.019733236,
0.04416,-3.724238991,0.04416,4.38516353,
0.04418,-3.724238991,0.04418,5.116024118,
0.0442,-4.45509958,0.0442,4.019733236,
0.04422,-2.262517815,0.04422,4.38516353,
0.04424,-2.993378403,0.04424,4.750593824,
0.04426,-4.45509958,0.04426,4.38516353,
0.04428,-3.724238991,0.04428,2.923442353,
0.0443,-1.531657226,0.0443,4.750593824,
0.04432,-0.4353663439,0.04432,4.019733236,
0.04434,-1.531657226,0.04434,4.019733236,
0.04436,-1.531657226,0.04436,4.750593824,
0.04438,-0.800796638,0.04438,5.116024118,
0.0444,0.2954942445,0.0444,4.019733236,
0.04442,0.2954942445,0.04442,4.38516353,
0.04444,0.6609245386,0.04444,4.38516353,
0.04446,3.218936598,0.04446,4.38516353,
0.04448,1.391785127,0.04448,5.846884707,
0.0445,1.026354833,0.0445,4.38516353,
0.04452,3.218936598,0.04452,4.019733236,
0.04454,1.026354833,0.04454,4.750593824,
0.04456,2.853506304,0.04456,4.38516353,
0.04458,3.584366892,0.04458,2.192581765,
0.0446,3.218936598,0.0446,4.38516353,
0.04462,3.218936598,0.04462,4.019733236,
0.04464,2.853506304,0.04464,4.019733236,
0.04466,3.218936598,0.04466,4.750593824,
0.04468,3.949797186,0.04468,4.019733236,
0.0447,3.949797186,0.0447,4.38516353,
0.04472,2.853506304,0.04472,4.38516353,
0.04474,2.853506304,0.04474,4.019733236,
0.04476,2.122645715,0.04476,2.923442353,
0.04478,1.026354833,0.04478,6.212315001,
0.0448,-0.0699360497,0.0448,3.654302942,
0.04482,1.391785127,0.04482,4.38516353,
0.04484,0.6609245386,0.04484,4.750593824,
0.04486,-0.800796638,0.04486,4.38516353,
0.04488,-1.531657226,0.04488,2.923442353,
0.0449,-1.531657226,0.0449,4.750593824,
0.04492,-2.262517815,0.04492,4.019733236,
0.04494,-1.897087521,0.04494,4.38516353,
0.04496,-1.897087521,0.04496,4.750593824,
0.04498,-2.627948109,0.04498,3.654302942,
0.045,-2.627948109,0.045,4.750593824,
0.04502,-2.993378403,0.04502,4.750593824,
0.04504,-2.993378403,0.04504,4.019733236,
0.04506,-4.089669286,0.04506,4.019733236,
0.04508,-3.358808697,0.04508,5.846884707,
0.0451,-2.993378403,0.0451,4.38516353,
0.04512,-4.089669286,0.04512,4.750593824,
0.04514,-5.916820756,0.04514,4.38516353,
0.04516,-1.531657226,0.04516,4.750593824,
0.04518,-2.627948109,0.04518,4.019733236,
0.0452,-2.627948109,0.0452,5.116024118,
0.04522,-2.262517815,0.04522,4.38516353,
0.04524,-1.166226932,0.04524,4.38516353,
0.04526,-1.897087521,0.04526,4.750593824,
0.04528,-1.166226932,0.04528,4.750593824,
0.0453,3.218936598,0.0453,4.38516353,
0.04532,1.026354833,0.04532,4.750593824,
0.04534,0.6609245386,0.04534,4.38516353,
0.04536,-0.0699360497,0.04536,4.750593824,
0.04538,2.122645715,0.04538,5.116024118,
0.0454,1.391785127,0.0454,4.019733236,
0.04542,2.853506304,0.04542,4.019733236,
0.04544,1.757215421,0.04544,4.38516353,
0.04546,2.853506304,0.04546,5.116024118,
0.04548,3.584366892,0.04548,4.019733236,
0.0455,2.48807601,0.0455,4.38516353,
0.04552,2.853506304,0.04552,4.019733236,
0.04554,2.853506304,0.04554,4.019733236,
0.04556,3.218936598,0.04556,4.750593824,
0.04558,4.31522748,0.04558,4.38516353,
0.0456,3.218936598,0.0456,3.654302942,
0.04562,1.757215421,0.04562,4.750593824,
0.04564,2.48807601,0.04564,4.38516353,
0.04566,2.122645715,0.04566,4.019733236,
0.04568,2.122645715,0.04568,4.019733236,
0.0457,2.122645715,0.0457,4.38516353,
0.04572,1.026354833,0.04572,4.750593824,
0.04574,1.026354833,0.04574,4.38516353,
0.04576,1.026354833,0.04576,4.38516353,
0.04578,1.026354833,0.04578,4.750593824,
0.0458,-0.0699360497,0.0458,4.750593824,
0.04582,-1.166226932,0.04582,4.019733236,
0.04584,-1.166226932,0.04584,4.38516353,
0.04586,-1.897087521,0.04586,4.38516353,
0.04588,-2.262517815,0.04588,3.288872648,
0.0459,-2.627948109,0.0459,4.38516353,
0.04592,-1.897087521,0.04592,4.38516353,
0.04594,-2.262517815,0.04594,4.38516353,
0.04596,-2.993378403,0.04596,4.38516353,
0.04598,-4.45509958,0.04598,4.38516353,
0.046,-2.993378403,0.046,4.019733236,
0.04602,-3.358808697,0.04602,4.38516353,
0.04604,-3.724238991,0.04604,4.38516353,
0.04606,-4.089669286,0.04606,3.654302942,
0.04608,-2.993378403,0.04608,4.019733236,
0.0461,-3.724238991,0.0461,4.38516353,
0.04612,-2.262517815,0.04612,4.019733236,
0.04614,-3.724238991,0.04614,4.019733236,
0.04616,-2.627948109,0.04616,4.38516353,
0.04618,-1.531657226,0.04618,4.38516353,
0.0462,-1.531657226,0.0462,4.38516353,
0.04622,-0.800796638,0.04622,4.750593824,
0.04624,-0.0699360497,0.04624,4.38516353,
0.04626,-0.800796638,0.04626,4.750593824,
0.04628,0.6609245386,0.04628,4.38516353,
0.0463,0.6609245386,0.0463,4.38516353,
0.04632,2.48807601,0.04632,4.38516353,
0.04634,1.391785127,0.04634,4.38516353,
0.04636,1.757215421,0.04636,4.019733236,
0.04638,2.122645715,0.04638,4.38516353,
0.0464,2.853506304,0.0464,4.750593824,
0.04642,2.48807601,0.04642,4.019733236,
0.04644,3.584366892,0.04644,4.38516353,
0.04646,3.584366892,0.04646,4.38516353,
0.04648,2.853506304,0.04648,4.750593824,
0.0465,3.584366892,0.0465,4.38516353,
0.04652,3.218936598,0.04652,4.38516353,
0.04654,3.584366892,0.04654,4.38516353,
0.04656,3.584366892,0.04656,4.750593824,
0.04658,2.853506304,0.04658,4.38516353,
0.0466,3.584366892,0.0466,4.38516353,
0.04662,3.218936598,0.04662,4.38516353,
0.04664,1.391785127,0.04664,4.38516353,
0.04666,1.026354833,0.04666,4.38516353,
0.04668,0.6609245386,0.04668,4.019733236,
0.0467,0.6609245386,0.0467,4.38516353,
0.04672,1.026354833,0.04672,4.38516353,
0.04674,2.48807601,0.04674,4.38516353,
0.04676,-0.800796638,0.04676,4.38516353,
0.04678,-1.166226932,0.04678,4.019733236,
0.0468,-1.166226932,0.0468,4.750593824,
0.04682,-2.262517815,0.04682,4.38516353,
0.04684,-1.897087521,0.04684,4.38516353,
0.04686,-4.45509958,0.04686,4.750593824,
0.04688,-3.358808697,0.04688,3.654302942,
0.0469,-3.358808697,0.0469,4.38516353,
0.04692,-4.089669286,0.04692,4.750593824,
0.04694,-3.724238991,0.04694,4.750593824,
0.04696,-3.358808697,0.04696,4.019733236,
0.04698,-3.358808697,0.04698,4.750593824,
0.047,-4.089669286,0.047,4.019733236,
0.04702,-2.627948109,0.04702,4.750593824,
0.04704,-1.531657226,0.04704,4.38516353,
0.04706,-2.627948109,0.04706,4.750593824,
0.04708,-1.897087521,0.04708,4.019733236,
0.0471,-3.724238991,0.0471,4.750593824,
0.04712,-1.166226932,0.04712,4.38516353,
0.04714,-2.993378403,0.04714,4.019733236,
0.04716,-0.0699360497,0.04716,4.38516353,
0.04718,-0.4353663439,0.04718,4.750593824,
0.0472,0.2954942445,0.0472,5.116024118,
0.04722,-1.166226932,0.04722,4.38516353,
0.04724,0.2954942445,0.04724,4.38516353,
0.04726,2.122645715,0.04726,4.38516353,
0.04728,2.48807601,0.04728,4.019733236,
0.0473,2.48807601,0.0473,3.288872648,
0.04732,2.853506304,0.04732,3.654302942,
0.04734,6.507809245,0.04734,4.019733236,
0.04736,2.48807601,0.04736,4.38516353,
0.04738,2.48807601,0.04738,4.019733236,
0.0474,3.584366892,0.0474,4.019733236,
0.04742,2.853506304,0.04742,4.38516353,
0.04744,3.584366892,0.04744,4.38516353,
0.04746,1.757215421,0.04746,4.750593824,
0.04748,1.391785127,0.04748,4.750593824,
0.0475,3.218936598,0.0475,6.212315001,
0.04752,3.218936598,0.04752,4.38516353,
0.04754,2.48807601,0.04754,4.38516353,
0.04756,2.853506304,0.04756,4.019733236,
0.04758,2.122645715,0.04758,4.750593824,
0.0476,2.853506304,0.0476,4.019733236,
0.04762,1.391785127,0.04762,4.38516353,
0.04764,0.2954942445,0.04764,3.654302942,
0.04766,-0.4353663439,0.04766,4.38516353,
0.04768,-0.800796638,0.04768,4.38516353,
0.0477,-1.166226932,0.0477,2.923442353,
0.04772,-0.4353663439,0.04772,4.750593824,
0.04774,-1.531657226,0.04774,4.019733236,
0.04776,-1.531657226,0.04776,3.654302942,
0.04778,-2.627948109,0.04778,4.019733236,
0.0478,-2.627948109,0.0478,5.116024118,
0.04782,-2.993378403,0.04782,3.654302942,
0.04784,-3.724238991,0.04784,4.019733236,
0.04786,-2.627948109,0.04786,4.019733236,
0.04788,-3.358808697,0.04788,3.654302942,
0.0479,-4.089669286,0.0479,4.38516353,
0.04792,-2.993378403,0.04792,4.019733236,
0.04794,-3.358808697,0.04794,4.019733236,
0.04796,-0.800796638,0.04796,4.019733236,
0.04798,-3.358808697,0.04798,4.019733236,
0.048,-2.627948109,0.048,2.558012059,
0.04802,-2.262517815,0.04802,4.38516353,
0.04804,-1.531657226,0.04804,4.38516353,
0.04806,-1.531657226,0.04806,3.654302942,
0.04808,0.6609245386,0.04808,4.38516353,
0.0481,0.2954942445,0.0481,4.38516353,
0.04812,-1.531657226,0.04812,4.019733236,
0.04814,1.026354833,0.04814,4.38516353,
0.04816,1.391785127,0.04816,4.38516353,
0.04818,1.757215421,0.04818,3.654302942,
0.0482,2.48807601,0.0482,4.750593824,
0.04822,5.046088069,0.04822,4.38516353,
0.04824,3.218936598,0.04824,4.019733236,
0.04826,2.853506304,0.04826,4.38516353,
0.04828,3.218936598,0.04828,4.38516353,
0.0483,3.218936598,0.0483,3.288872648,
0.04832,3.218936598,0.04832,4.38516353,
0.04834,3.949797186,0.04834,4.38516353,
0.04836,3.218936598,0.04836,4.019733236,
0.04838,3.584366892,0.04838,4.38516353,
0.0484,4.31522748,0.0484,4.38516353,
0.04842,1.757215421,0.04842,3.654302942,
0.04844,3.218936598,0.04844,4.38516353,
0.04846,4.31522748,0.04846,4.019733236,
0.04848,1.391785127,0.04848,4.38516353,
0.0485,0.2954942445,0.0485,5.116024118,
0.04852,2.122645715,0.04852,4.38516353,
0.04854,0.6609245386,0.04854,4.38516353,
0.04856,1.391785127,0.04856,4.019733236,
0.04858,0.2954942445,0.04858,4.019733236,
0.0486,-1.531657226,0.0486,2.923442353,
0.04862,-0.800796638,0.04862,4.019733236,
0.04864,-1.166226932,0.04864,4.38516353,
0.04866,-1.531657226,0.04866,4.019733236,
0.04868,-1.897087521,0.04868,4.38516353,
0.0487,-1.897087521,0.0487,4.019733236,
0.04872,-2.627948109,0.04872,3.654302942,
0.04874,-2.993378403,0.04874,4.750593824,
0.04876,-3.358808697,0.04876,4.38516353,
0.04878,-3.724238991,0.04878,3.654302942,
0.0488,-3.358808697,0.0488,4.38516353,
0.04882,-3.724238991,0.04882,4.38516353,
0.04884,-3.358808697,0.04884,4.019733236,
0.04886,-2.627948109,0.04886,4.750593824,
0.04888,-2.993378403,0.04888,4.38516353,
0.0489,-4.45509958,0.0489,3.654302942,
0.04892,-2.993378403,0.04892,4.750593824,
0.04894,-1.531657226,0.04894,4.38516353,
0.04896,-2.262517815,0.04896,4.38516353,
0.04898,-1.897087521,0.04898,4.750593824,
0.049,-0.4353663439,0.049,4.38516353,
0.04902,-0.0699360497,0.04902,4.019733236,
0.04904,0.6609245386,0.04904,4.750593824,
0.04906,-0.0699360497,0.04906,4.750593824,
0.04908,1.391785127,0.04908,4.38516353,
0.0491,1.391785127,0.0491,4.750593824,
0.04912,2.853506304,0.04912,4.019733236,
0.04914,1.757215421,0.04914,4.019733236,
0.04916,2.122645715,0.04916,4.38516353,
0.04918,3.218936598,0.04918,4.019733236,
0.0492,1.391785127,0.0492,3.654302942,
0.04922,2.122645715,0.04922,4.38516353,
0.04924,3.949797186,0.04924,4.38516353,
0.04926,4.680657775,0.04926,4.38516353,
0.04928,4.680657775,0.04928,4.38516353,
0.0493,4.680657775,0.0493,4.38516353,
0.04932,2.122645715,0.04932,4.019733236,
0.04934,4.31522748,0.04934,4.38516353,
0.04936,3.584366892,0.04936,3.654302942,
0.04938,3.218936598,0.04938,4.019733236,
0.0494,3.584366892,0.0494,4.38516353,
0.04942,0.6609245386,0.04942,4.38516353,
0.04944,1.757215421,0.04944,3.654302942,
0.04946,1.026354833,0.04946,4.019733236,
0.04948,0.6609245386,0.04948,4.019733236,
0.0495,1.026354833,0.0495,4.38516353,
0.04952,1.026354833,0.04952,4.019733236,
0.04954,-1.166226932,0.04954,4.019733236,
0.04956,-0.0699360497,0.04956,5.116024118,
0.04958,-1.897087521,0.04958,4.38516353,
0.0496,-3.358808697,0.0496,3.654302942,
0.04962,-2.627948109,0.04962,4.750593824,
0.04964,-3.358808697,0.04964,4.019733236,
0.04966,-2.993378403,0.04966,4.019733236,
0.04968,-4.089669286,0.04968,4.38516353,
0.0497,-4.089669286,0.0497,4.38516353,
0.04972,-4.820529874,0.04972,3.654302942,
0.04974,-3.358808697,0.04974,4.750593824,
0.04976,-3.724238991,0.04976,4.38516353,
0.04978,-4.089669286,0.04978,4.38516353,
0.0498,-3.358808697,0.0498,4.38516353,
0.04982,-5.551390462,0.04982,4.38516353,
0.04984,-3.724238991,0.04984,3.654302942,
0.04986,-3.358808697,0.04986,4.38516353,
0.04988,-2.993378403,0.04988,4.38516353,
0.0499,-2.262517815,0.0499,4.38516353,
0.04992,1.026354833,0.04992,4.38516353,
0.04994,-0.0699360497,0.04994,4.38516353,
0.04996,-1.166226932,0.04996,4.38516353,
0.04998,0.6609245386,0.04998,4.750593824,
0.05,0.2954942445,0.05,4.019733236,
0.05002,-0.0699360497,0.05002,4.019733236,
0.05004,0.6609245386,0.05004,4.750593824,
0.05006,1.026354833,0.05006,4.019733236,
0.05008,3.218936598,0.05008,4.019733236,
0.0501,1.757215421,0.0501,4.750593824,
0.05012,2.48807601,0.05012,4.019733236,
0.05014,3.218936598,0.05014,4.019733236,
0.05016,3.584366892,0.05016,4.38516353,
0.05018,3.218936598,0.05018,4.019733236,
0.0502,2.48807601,0.0502,3.654302942,
0.05022,2.122645715,0.05022,4.750593824,
0.05024,4.680657775,0.05024,4.019733236,
0.05026,2.853506304,0.05026,4.019733236,
0.05028,3.218936598,0.05028,4.019733236,
0.0503,3.584366892,0.0503,4.38516353,
0.05032,1.757215421,0.05032,4.38516353,
0.05034,1.026354833,0.05034,4.019733236,
0.05036,3.218936598,0.05036,4.38516353,
0.05038,1.391785127,0.05038,4.019733236,
0.0504,1.026354833,0.0504,4.019733236,
0.05042,1.026354833,0.05042,4.38516353,
0.05044,-1.166226932,0.05044,4.019733236,
0.05046,1.026354833,0.05046,4.38516353,
0.05048,-0.800796638,0.05048,4.38516353,
0.0505,-0.4353663439,0.0505,3.654302942,
0.05052,-0.800796638,0.05052,4.750593824,
0.05054,-0.4353663439,0.05054,4.750593824,
0.05056,-0.800796638,0.05056,3.654302942,
0.05058,-4.089669286,0.05058,4.019733236,
0.0506,-3.358808697,0.0506,3.654302942,
0.05062,-1.531657226,0.05062,4.019733236,
0.05064,-2.627948109,0.05064,4.019733236,
0.05066,-2.993378403,0.05066,3.654302942,
0.05068,-3.358808697,0.05068,4.38516353,
0.0507,-2.262517815,0.0507,4.750593824,
0.05072,-4.089669286,0.05072,3.654302942,
0.05074,-3.724238991,0.05074,4.38516353,
0.05076,-2.627948109,0.05076,4.38516353,
0.05078,-3.724238991,0.05078,4.019733236,
0.0508,-1.897087521,0.0508,4.38516353,
0.05082,-4.089669286,0.05082,4.38516353,
0.05084,-0.0699360497,0.05084,4.019733236,
0.05086,-1.166226932,0.05086,4.019733236,
0.05088,-1.166226932,0.05088,4.019733236,
0.0509,-0.0699360497,0.0509,4.38516353,
0.05092,-0.0699360497,0.05092,3.654302942,
0.05094,2.122645715,0.05094,4.019733236,
0.05096,0.2954942445,0.05096,3.654302942,
0.05098,-0.0699360497,0.05098,4.38516353,
0.051,1.391785127,0.051,4.38516353,
0.05102,0.2954942445,0.05102,3.288872648,
0.05104,2.48807601,0.05104,4.38516353,
0.05106,2.122645715,0.05106,4.38516353,
0.05108,2.48807601,0.05108,4.019733236,
0.0511,3.949797186,0.0511,4.38516353,
0.05112,7.969530422,0.05112,5.481454413,
0.05114,3.218936598,0.05114,4.750593824,
0.05116,4.31522748,0.05116,4.019733236,
0.05118,3.949797186,0.05118,4.019733236,
0.0512,3.218936598,0.0512,4.019733236,
0.05122,4.680657775,0.05122,3.654302942,
0.05124,4.680657775,0.05124,4.019733236,
0.05126,2.853506304,0.05126,4.019733236,
0.05128,2.48807601,0.05128,4.38516353,
0.0513,2.48807601,0.0513,4.38516353,
0.05132,-0.4353663439,0.05132,1.827151471,
0.05134,2.122645715,0.05134,4.38516353,
0.05136,0.2954942445,0.05136,4.019733236,
0.05138,0.2954942445,0.05138,4.019733236,
0.0514,-0.800796638,0.0514,4.38516353,
0.05142,-0.4353663439,0.05142,4.019733236,
0.05144,-1.897087521,0.05144,4.38516353,
0.05146,-0.0699360497,0.05146,4.38516353,
0.05148,1.391785127,0.05148,4.38516353,
0.0515,-2.993378403,0.0515,4.019733236,
0.05152,-3.358808697,0.05152,5.846884707,
0.05154,-2.262517815,0.05154,4.38516353,
0.05156,-3.358808697,0.05156,3.654302942,
0.05158,-3.724238991,0.05158,4.38516353,
0.0516,-3.358808697,0.0516,4.019733236,
0.05162,-2.993378403,0.05162,2.923442353,
0.05164,-4.089669286,0.05164,4.38516353,
0.05166,-2.627948109,0.05166,4.019733236,
0.05168,-3.724238991,0.05168,3.654302942,
0.0517,-5.185960168,0.0517,4.750593824,
0.05172,-2.262517815,0.05172,4.019733236,
0.05174,-3.358808697,0.05174,3.654302942,
0.05176,-0.4353663439,0.05176,4.38516353,
0.05178,-1.531657226,0.05178,4.019733236,
0.0518,-1.166226932,0.0518,4.019733236,
0.05182,-1.531657226,0.05182,5.846884707,
0.05184,1.026354833,0.05184,4.019733236,
0.05186,0.2954942445,0.05186,4.019733236,
0.05188,1.391785127,0.05188,4.38516353,
0.0519,0.6609245386,0.0519,4.019733236,
0.05192,1.757215421,0.05192,4.019733236,
0.05194,1.391785127,0.05194,4.38516353,
0.05196,1.026354833,0.05196,4.019733236,
0.05198,2.48807601,0.05198,3.654302942,
0.052,2.48807601,0.052,4.38516353,
0.05202,3.949797186,0.05202,3.288872648,
0.05204,2.853506304,0.05204,4.019733236,
0.05206,3.949797186,0.05206,4.38516353,
0.05208,3.949797186,0.05208,4.38516353,
0.0521,3.584366892,0.0521,4.019733236,
0.05212,4.680657775,0.05212,4.019733236,
0.05214,5.046088069,0.05214,4.38516353,
0.05216,3.584366892,0.05216,4.019733236,
0.05218,2.853506304,0.05218,4.38516353,
0.0522,3.949797186,0.0522,4.38516353,
0.05222,4.680657775,0.05222,4.750593824,
0.05224,1.391785127,0.05224,4.38516353,
0.05226,2.853506304,0.05226,4.38516353,
0.05228,1.026354833,0.05228,4.019733236,
0.0523,0.6609245386,0.0523,4.019733236,
0.05232,-0.4353663439,0.05232,2.923442353,
0.05234,-1.166226932,0.05234,4.019733236,
0.05236,-1.166226932,0.05236,4.38516353,
0.05238,-1.531657226,0.05238,4.38516353,
0.0524,-3.358808697,0.0524,5.116024118,
0.05242,-4.089669286,0.05242,4.019733236,
0.05244,-2.262517815,0.05244,4.019733236,
0.05246,-2.262517815,0.05246,4.750593824,
0.05248,-2.993378403,0.05248,4.38516353,
0.0525,-3.358808697,0.0525,4.019733236,
0.05252,-3.724238991,0.05252,5.846884707,
0.05254,-4.089669286,0.05254,4.38516353,
0.05256,-3.358808697,0.05256,4.019733236,
0.05258,-3.358808697,0.05258,4.38516353,
0.0526,-4.45509958,0.0526,4.38516353,
0.05262,-3.358808697,0.05262,4.38516353,
0.05264,-4.820529874,0.05264,4.750593824,
0.05266,-2.262517815,0.05266,4.38516353,
0.05268,-2.993378403,0.05268,4.38516353,
0.0527,-1.897087521,0.0527,4.750593824,
0.05272,0.2954942445,0.05272,3.654302942,
0.05274,-1.897087521,0.05274,4.019733236,
0.05276,-0.4353663439,0.05276,4.38516353,
0.05278,-0.800796638,0.05278,4.38516353,
0.0528,-1.531657226,0.0528,4.019733236,
0.05282,1.026354833,0.05282,4.750593824,
0.05284,2.122645715,0.05284,4.38516353,
0.05286,1.026354833,0.05286,4.38516353,
0.05288,1.391785127,0.05288,4.750593824,
0.0529,1.026354833,0.0529,4.38516353,
0.05292,1.757215421,0.05292,4.38516353,
0.05294,2.853506304,0.05294,4.750593824,
0.05296,2.853506304,0.05296,4.750593824,
0.05298,4.31522748,0.05298,4.38516353,
0.053,3.218936598,0.053,4.750593824,
0.05302,3.949797186,0.05302,4.38516353,
0.05304,3.584366892,0.05304,4.38516353,
0.05306,3.218936598,0.05306,4.750593824,
0.05308,2.48807601,0.05308,4.019733236,
0.0531,2.853506304,0.0531,4.019733236,
0.05312,3.218936598,0.05312,5.116024118,
0.05314,2.48807601,0.05314,4.019733236,
0.05316,2.48807601,0.05316,4.38516353,
0.05318,2.122645715,0.05318,4.750593824,
0.0532,-0.4353663439,0.0532,4.38516353,
0.05322,0.2954942445,0.05322,4.019733236,
0.05324,0.2954942445,0.05324,4.750593824,
0.05326,-2.993378403,0.05326,4.38516353,
0.05328,-2.262517815,0.05328,3.654302942,
0.0533,-1.897087521,0.0533,4.38516353,
0.05332,-2.627948109,0.05332,4.019733236,
0.05334,-2.627948109,0.05334,4.019733236,
0.05336,-1.897087521,0.05336,4.38516353,
0.05338,-3.358808697,0.05338,4.38516353,
0.0534,-2.993378403,0.0534,3.654302942,
0.05342,-4.089669286,0.05342,4.38516353,
0.05344,-4.45509958,0.05344,4.38516353,
0.05346,-3.724238991,0.05346,4.019733236,
0.05348,-2.262517815,0.05348,4.750593824,
0.0535,-1.531657226,0.0535,4.019733236,
0.05352,-4.45509958,0.05352,4.750593824,
0.05354,-2.627948109,0.05354,4.750593824,
0.05356,-2.993378403,0.05356,4.019733236,
0.05358,-3.358808697,0.05358,4.019733236,
0.0536,-2.262517815,0.0536,4.750593824,
0.05362,-2.262517815,0.05362,4.019733236,
0.05364,-2.627948109,0.05364,4.38516353,
0.05366,-1.166226932,0.05366,4.750593824,
0.05368,-1.166226932,0.05368,5.481454413,
0.0537,-1.166226932,0.0537,4.38516353,
0.05372,0.2954942445,0.05372,4.38516353,
0.05374,1.757215421,0.05374,4.38516353,
0.05376,0.2954942445,0.05376,3.654302942,
0.05378,1.757215421,0.05378,4.38516353,
0.0538,1.391785127,0.0538,4.019733236,
0.05382,2.48807601,0.05382,4.019733236,
0.05384,1.757215421,0.05384,4.750593824,
0.05386,2.48807601,0.05386,4.38516353,
0.05388,2.48807601,0.05388,4.38516353,
0.0539,3.218936598,0.0539,4.750593824,
0.05392,3.218936598,0.05392,4.019733236,
0.05394,2.48807601,0.05394,4.019733236,
0.05396,4.31522748,0.05396,4.750593824,
0.05398,3.949797186,0.05398,4.750593824,
0.054,2.48807601,0.054,4.38516353,
0.05402,2.853506304,0.05402,4.750593824,
0.05404,1.026354833,0.05404,4.019733236,
0.05406,2.853506304,0.05406,4.38516353,
0.05408,1.757215421,0.05408,4.750593824,
0.0541,0.6609245386,0.0541,4.019733236,
0.05412,3.584366892,0.05412,4.019733236,
0.05414,0.2954942445,0.05414,4.750593824,
0.05416,-0.0699360497,0.05416,4.019733236,
0.05418,-0.0699360497,0.05418,3.654302942,
0.0542,0.2954942445,0.0542,4.750593824,
0.05422,-0.800796638,0.05422,4.38516353,
0.05424,-1.897087521,0.05424,4.019733236,
0.05426,-2.993378403,0.05426,4.750593824,
0.05428,-1.897087521,0.05428,4.38516353,
0.0543,-2.262517815,0.0543,4.38516353,
0.05432,-2.993378403,0.05432,4.019733236,
0.05434,-1.897087521,0.05434,4.019733236,
0.05436,-2.627948109,0.05436,4.750593824,
0.05438,-4.45509958,0.05438,4.38516353,
0.0544,-4.820529874,0.0544,4.019733236,
0.05442,-2.993378403,0.05442,4.019733236,
0.05444,-1.897087521,0.05444,4.38516353,
0.05446,-2.993378403,0.05446,4.38516353,
0.05448,-4.089669286,0.05448,4.38516353,
0.0545,-4.45509958,0.0545,3.654302942,
0.05452,-2.993378403,0.05452,4.38516353,
0.05454,-3.724238991,0.05454,4.750593824,
0.05456,-2.262517815,0.05456,4.750593824,
0.05458,-1.531657226,0.05458,4.38516353,
0.0546,-0.800796638,0.0546,4.38516353,
0.05462,-0.800796638,0.05462,4.750593824,
0.05464,-0.0699360497,0.05464,4.019733236,
0.05466,1.757215421,0.05466,4.750593824,
0.05468,-0.0699360497,0.05468,4.38516353,
0.0547,1.757215421,0.0547,4.38516353,
0.05472,0.2954942445,0.05472,4.750593824,
0.05474,-0.4353663439,0.05474,4.019733236,
0.05476,2.122645715,0.05476,4.019733236,
0.05478,2.48807601,0.05478,4.38516353,
0.0548,2.48807601,0.0548,4.38516353,
0.05482,2.853506304,0.05482,4.38516353,
0.05484,3.949797186,0.05484,5.116024118,
0.05486,3.218936598,0.05486,4.38516353,
0.05488,4.31522748,0.05488,4.019733236,
0.0549,3.584366892,0.0549,4.38516353,
0.05492,4.31522748,0.05492,5.846884707,
0.05494,3.584366892,0.05494,4.750593824,
0.05496,3.218936598,0.05496,4.38516353,
0.05498,3.949797186,0.05498,4.750593824,
0.055,2.48807601,0.055,4.38516353,
0.05502,2.48807601,0.05502,4.38516353,
0.05504,1.391785127,0.05504,4.019733236,
0.05506,2.122645715,0.05506,4.38516353,
0.05508,0.6609245386,0.05508,4.750593824,
0.0551,-0.0699360497,0.0551,4.38516353,
0.05512,-1.166226932,0.05512,4.019733236,
0.05514,-0.4353663439,0.05514,4.019733236,
0.05516,-0.4353663439,0.05516,4.38516353,
0.05518,0.6609245386,0.05518,4.38516353,
0.0552,-1.166226932,0.0552,4.750593824,
0.05522,-2.627948109,0.05522,4.019733236,
0.05524,0.2954942445,0.05524,4.38516353,
0.05526,-2.627948109,0.05526,4.750593824,
0.05528,-3.724238991,0.05528,4.38516353,
0.0553,-2.262517815,0.0553,4.38516353,
0.05532,-2.993378403,0.05532,4.750593824,
0.05534,-3.724238991,0.05534,5.846884707,
0.05536,-2.993378403,0.05536,4.38516353,
0.05538,-2.627948109,0.05538,4.019733236,
0.0554,-3.358808697,0.0554,4.019733236,
0.05542,-2.993378403,0.05542,4.38516353,
0.05544,-3.724238991,0.05544,4.019733236,
0.05546,-2.627948109,0.05546,4.38516353,
0.05548,-2.262517815,0.05548,4.38516353,
0.0555,-1.531657226,0.0555,4.38516353,
0.05552,-2.993378403,0.05552,4.38516353,
0.05554,-0.800796638,0.05554,3.654302942,
0.05556,-1.531657226,0.05556,4.38516353,
0.05558,0.2954942445,0.05558,4.38516353,
0.0556,0.6609245386,0.0556,4.38516353,
0.05562,0.2954942445,0.05562,4.750593824,
0.05564,0.2954942445,0.05564,4.750593824,
0.05566,1.757215421,0.05566,4.38516353,
0.05568,1.757215421,0.05568,4.750593824,
0.0557,2.853506304,0.0557,4.38516353,
0.05572,-0.4353663439,0.05572,4.750593824,
0.05574,2.853506304,0.05574,5.481454413,
0.05576,3.949797186,0.05576,4.750593824,
0.05578,2.122645715,0.05578,5.116024118,
0.0558,3.949797186,0.0558,4.019733236,
0.05582,3.584366892,0.05582,4.750593824,
0.05584,1.391785127,0.05584,5.116024118,
0.05586,4.31522748,0.05586,4.019733236,
0.05588,2.853506304,0.05588,4.750593824,
0.0559,2.48807601,0.0559,4.38516353,
0.05592,3.218936598,0.05592,4.019733236,
0.05594,2.853506304,0.05594,4.019733236,
0.05596,0.6609245386,0.05596,5.116024118,
0.05598,1.757215421,0.05598,4.019733236,
0.056,1.026354833,0.056,4.38516353,
0.05602,0.2954942445,0.05602,4.750593824,
0.05604,0.6609245386,0.05604,4.019733236,
0.05606,-1.531657226,0.05606,5.116024118,
0.05608,0.2954942445,0.05608,4.38516353,
0.0561,-1.531657226,0.0561,4.019733236,
0.05612,-1.166226932,0.05612,5.116024118,
0.05614,-2.262517815,0.05614,4.750593824,
0.05616,-3.724238991,0.05616,4.38516353,
0.05618,-2.993378403,0.05618,4.750593824,
0.0562,-2.262517815,0.0562,4.019733236,
0.05622,-2.993378403,0.05622,5.481454413,
0.05624,-2.993378403,0.05624,4.750593824,
0.05626,-1.531657226,0.05626,3.654302942,
0.05628,-2.627948109,0.05628,4.750593824,
0.0563,-2.627948109,0.0563,4.019733236,
0.05632,-3.358808697,0.05632,4.019733236,
0.05634,-2.993378403,0.05634,3.654302942,
0.05636,-1.897087521,0.05636,4.019733236,
0.05638,-3.724238991,0.05638,4.019733236,
0.0564,-1.531657226,0.0564,4.38516353,
0.05642,-5.551390462,0.05642,4.019733236,
0.05644,-1.897087521,0.05644,2.923442353,
0.05646,-2.262517815,0.05646,4.38516353,
0.05648,-0.800796638,0.05648,4.019733236,
0.0565,-0.0699360497,0.0565,3.654302942,
0.05652,1.026354833,0.05652,4.019733236,
0.05654,0.6609245386,0.05654,4.38516353,
0.05656,-0.0699360497,0.05656,4.019733236,
0.05658,1.757215421,0.05658,4.38516353,
0.0566,1.757215421,0.0566,4.38516353,
0.05662,2.122645715,0.05662,3.654302942,
0.05664,3.218936598,0.05664,4.38516353,
0.05666,2.853506304,0.05666,4.38516353,
0.05668,3.218936598,0.05668,4.019733236,
0.0567,3.584366892,0.0567,4.750593824,
0.05672,3.584366892,0.05672,4.019733236,
0.05674,3.218936598,0.05674,4.019733236,
0.05676,4.680657775,0.05676,4.38516353,
0.05678,5.046088069,0.05678,4.38516353,
0.0568,3.584366892,0.0568,3.654302942,
0.05682,3.218936598,0.05682,4.38516353,
0.05684,3.218936598,0.05684,4.019733236,
0.05686,2.122645715,0.05686,4.019733236,
0.05688,1.757215421,0.05688,4.38516353,
0.0569,2.48807601,0.0569,3.654302942,
0.05692,2.122645715,0.05692,4.019733236,
0.05694,1.391785127,0.05694,4.38516353,
0.05696,2.122645715,0.05696,4.38516353,
0.05698,-0.0699360497,0.05698,4.019733236,
0.057,-0.4353663439,0.057,4.38516353,
0.05702,-0.0699360497,0.05702,4.38516353,
0.05704,-1.166226932,0.05704,4.019733236,
0.05706,-1.166226932,0.05706,4.38516353,
0.05708,-4.45509958,0.05708,4.019733236,
0.0571,-3.358808697,0.0571,4.019733236,
0.05712,-1.897087521,0.05712,4.38516353,
0.05714,-2.627948109,0.05714,4.019733236,
0.05716,-5.551390462,0.05716,4.019733236,
0.05718,-3.358808697,0.05718,4.38516353,
0.0572,-2.627948109,0.0572,4.38516353,
0.05722,-3.724238991,0.05722,4.019733236,
0.05724,-2.627948109,0.05724,4.38516353,
0.05726,-2.993378403,0.05726,3.654302942,
0.05728,-4.089669286,0.05728,4.019733236,
0.0573,-2.627948109,0.0573,4.38516353,
0.05732,-4.45509958,0.05732,4.019733236,
0.05734,-1.531657226,0.05734,3.654302942,
0.05736,1.026354833,0.05736,4.019733236,
0.05738,-2.262517815,0.05738,4.38516353,
0.0574,-0.800796638,0.0574,3.654302942,
0.05742,-0.4353663439,0.05742,4.38516353,
0.05744,1.391785127,0.05744,4.019733236,
0.05746,-0.4353663439,0.05746,3.654302942,
0.05748,0.6609245386,0.05748,4.750593824,
0.0575,1.391785127,0.0575,3.654302942,
0.05752,1.391785127,0.05752,4.38516353,
0.05754,2.122645715,0.05754,4.019733236,
0.05756,1.026354833,0.05756,4.019733236,
0.05758,3.218936598,0.05758,3.654302942,
0.0576,3.584366892,0.0576,4.38516353,
0.05762,5.411518363,0.05762,4.38516353,
0.05764,3.949797186,0.05764,3.288872648,
0.05766,3.584366892,0.05766,4.019733236,
0.05768,3.949797186,0.05768,4.38516353,
0.0577,3.949797186,0.0577,3.654302942,
0.05772,4.680657775,0.05772,4.38516353,
0.05774,3.218936598,0.05774,4.019733236,
0.05776,2.853506304,0.05776,3.654302942,
0.05778,2.853506304,0.05778,4.38516353,
0.0578,2.122645715,0.0578,4.38516353,
0.05782,2.122645715,0.05782,3.654302942,
0.05784,1.757215421,0.05784,4.38516353,
0.05786,2.48807601,0.05786,4.38516353,
0.05788,1.026354833,0.05788,4.019733236,
0.0579,0.6609245386,0.0579,4.38516353,
0.05792,1.391785127,0.05792,4.38516353,
0.05794,-1.531657226,0.05794,4.019733236,
0.05796,0.2954942445,0.05796,4.38516353,
0.05798,-1.531657226,0.05798,4.38516353,
0.058,-2.262517815,0.058,4.019733236,
0.05802,-2.993378403,0.05802,4.38516353,
0.05804,-0.0699360497,0.05804,4.38516353,
0.05806,-2.627948109,0.05806,4.019733236,
0.05808,-3.358808697,0.05808,4.750593824,
0.0581,-3.724238991,0.0581,4.019733236,
0.05812,-3.358808697,0.05812,4.019733236,
0.05814,-2.262517815,0.05814,4.38516353,
0.05816,-4.45509958,0.05816,4.38516353,
0.05818,-4.089669286,0.05818,4.019733236,
0.0582,-3.358808697,0.0582,4.750593824,
0.05822,-3.358808697,0.05822,4.38516353,
0.05824,-2.262517815,0.05824,4.019733236,
0.05826,-2.993378403,0.05826,5.116024118,
0.05828,-1.897087521,0.05828,4.019733236,
0.0583,-2.993378403,0.0583,4.019733236,
0.05832,-2.627948109,0.05832,4.38516353,
0.05834,-1.166226932,0.05834,4.38516353,
0.05836,0.2954942445,0.05836,4.019733236,
0.05838,-1.897087521,0.05838,4.38516353,
0.0584,-1.166226932,0.0584,4.019733236,
0.05842,1.026354833,0.05842,4.019733236,
0.05844,3.218936598,0.05844,5.116024118,
0.05846,0.6609245386,0.05846,4.019733236,
0.05848,1.026354833,0.05848,4.019733236,
0.0585,2.853506304,0.0585,4.38516353,
0.05852,2.853506304,0.05852,4.38516353,
0.05854,2.48807601,0.05854,4.019733236,
0.05856,3.218936598,0.05856,4.38516353,
0.05858,3.218936598,0.05858,4.019733236,
0.0586,3.584366892,0.0586,4.38516353,
0.05862,3.218936598,0.05862,4.750593824,
0.05864,5.411518363,0.05864,3.654302942,
0.05866,1.757215421,0.05866,4.38516353,
0.05868,5.046088069,0.05868,5.116024118,
0.0587,2.853506304,0.0587,4.750593824,
0.05872,2.853506304,0.05872,4.019733236,
0.05874,2.48807601,0.05874,4.750593824,
0.05876,-0.4353663439,0.05876,5.116024118,
0.05878,1.026354833,0.05878,4.38516353,
0.0588,1.026354833,0.0588,4.38516353,
0.05882,1.757215421,0.05882,4.019733236,
0.05884,-0.0699360497,0.05884,3.654302942,
0.05886,-1.166226932,0.05886,4.750593824,
0.05888,-1.531657226,0.05888,4.38516353,
0.0589,-1.531657226,0.0589,4.019733236,
