"A0_accX_x","A0_accX_y","A1_rmsX_x","A1_rmsX_y"
0,-2.641015896,0,4.38516353,
2e-05,-3.00644619,2e-05,4.38516353,
4e-05,-3.371876485,4e-05,4.019733236,
6e-05,-3.737306779,6e-05,4.750593824,
8e-05,-4.468167367,8e-05,4.38516353,
0.0001,-3.00644619,0.0001,4.019733236,
0.00012,-2.641015896,0.00012,4.750593824,
0.00014,-2.641015896,0.00014,4.019733236,
0.00016,-2.641015896,0.00016,4.38516353,
0.00018,-2.275585602,0.00018,4.38516353,
0.0002,-0.8138644254,0.0002,3.654302942,
0.00022,-1.17929472,0.00022,4.38516353,
0.00024,-0.4484341312,0.00024,4.38516353,
0.00026,-1.17929472,0.00026,4.019733236,
0.00028,1.013287045,0.00028,4.750593824,
0.0003,1.013287045,0.0003,4.38516353,
0.00032,3.205868811,0.00032,4.38516353,
0.00034,2.109577928,0.00034,4.750593824,
0.00036,2.109577928,0.00036,4.38516353,
0.00038,3.571299105,0.00038,3.654302942,
0.0004,3.571299105,0.0004,4.38516353,
0.00042,3.571299105,0.00042,4.38516353,
0.00044,2.475008222,0.00044,4.38516353,
0.00046,2.840438516,0.00046,4.019733236,
0.00048,5.033020281,0.00048,4.750593824,
0.0005,3.571299105,0.0005,4.38516353,
0.00052,3.205868811,0.00052,4.750593824,
0.00054,4.667589987,0.00054,4.38516353,
0.00056,5.76388087,0.00056,4.750593824,
0.00058,3.205868811,0.00058,4.38516353,
0.0006,3.936729399,0.0006,4.38516353,
0.00062,3.205868811,0.00062,4.750593824,
0.00064,1.744147634,0.00064,4.019733236,
0.00066,2.840438516,0.00066,4.019733236,
0.00068,0.2824264572,0.00068,4.750593824,
0.0007,1.013287045,0.0007,4.019733236,
0.00072,-0.08300383702,0.00072,4.38516353,
0.00074,-0.4484341312,0.00074,4.750593824,
0.00076,-0.4484341312,0.00076,4.38516353,
0.00078,-1.910155308,0.00078,3.654302942,
0.0008,-1.544725014,0.0008,5.116024118,
0.00082,-3.00644619,0.00082,4.38516353,
0.00084,-2.275585602,0.00084,4.019733236,
0.00086,-3.00644619,0.00086,4.750593824,
0.00088,-2.641015896,0.00088,5.481454413,
0.0009,-3.00644619,0.0009,4.38516353,
0.00092,-3.371876485,0.00092,4.750593824,
0.00094,-5.56445825,0.00094,4.019733236,
0.00096,-3.371876485,0.00096,4.019733236,
0.00098,-3.737306779,0.00098,3.288872648,
0.001,-3.737306779,0.001,4.750593824,
0.00102,-7.39160972,0.00102,4.019733236,
0.00104,-2.641015896,0.00104,4.750593824,
0.00106,-3.371876485,0.00106,3.654302942,
0.00108,-5.929888544,0.00108,4.019733236,
0.0011,-2.275585602,0.0011,4.38516353,
0.00112,-1.910155308,0.00112,4.019733236,
0.00114,-0.8138644254,0.00114,4.019733236,
0.00116,-1.17929472,0.00116,4.750593824,
0.00118,-3.737306779,0.00118,6.212315001,
0.0012,-2.275585602,0.0012,4.019733236,
0.00122,0.6478567513,0.00122,4.750593824,
0.00124,0.6478567513,0.00124,4.38516353,
0.00126,1.013287045,0.00126,3.654302942,
0.00128,0.6478567513,0.00128,4.019733236,
0.0013,1.37871734,0.0013,4.38516353,
0.00132,3.205868811,0.00132,4.019733236,
0.00134,2.840438516,0.00134,5.116024118,
0.00136,2.840438516,0.00136,5.116024118,
0.00138,1.37871734,0.00138,2.923442353,
0.0014,5.033020281,0.0014,4.38516353,
0.00142,3.571299105,0.00142,4.38516353,
0.00144,1.744147634,0.00144,3.654302942,
0.00146,3.936729399,0.00146,4.750593824,
0.00148,2.475008222,0.00148,5.481454413,
0.0015,3.205868811,0.0015,3.654302942,
0.00152,3.205868811,0.00152,4.750593824,
0.00154,2.475008222,0.00154,4.38516353,
0.00156,3.205868811,0.00156,4.019733236,
0.00158,2.109577928,0.00158,4.750593824,
0.0016,1.013287045,0.0016,4.38516353,
0.00162,1.37871734,0.00162,4.38516353,
0.00164,1.013287045,0.00164,5.846884707,
0.00166,0.2824264572,0.00166,4.38516353,
0.00168,0.6478567513,0.00168,3.288872648,
0.0017,-0.4484341312,0.0017,4.750593824,
0.00172,-1.910155308,0.00172,4.750593824,
0.00174,-1.17929472,0.00174,4.38516353,
0.00176,-1.910155308,0.00176,4.38516353,
0.00178,-4.102737073,0.00178,5.846884707,
0.0018,-3.737306779,0.0018,4.019733236,
0.00182,-3.371876485,0.00182,4.750593824,
0.00184,-3.737306779,0.00184,4.019733236,
0.00186,-3.737306779,0.00186,4.019733236,
0.00188,-3.371876485,0.00188,4.019733236,
0.0019,-5.56445825,0.0019,4.38516353,
0.00192,-4.468167367,0.00192,4.019733236,
0.00194,-3.371876485,0.00194,4.38516353,
0.00196,-3.371876485,0.00196,3.654302942,
0.00198,-5.199027955,0.00198,4.019733236,
0.002,-1.910155308,0.002,5.116024118,
0.00202,-2.641015896,0.00202,4.019733236,
0.00204,-1.910155308,0.00204,4.019733236,
0.00206,-1.910155308,0.00206,4.38516353,
0.00208,-4.468167367,0.00208,5.116024118,
0.0021,-0.8138644254,0.0021,4.019733236,
0.00212,-0.08300383702,0.00212,4.38516353,
0.00214,-0.08300383702,0.00214,4.38516353,
0.00216,0.2824264572,0.00216,4.750593824,
0.00218,2.475008222,0.00218,4.750593824,
0.0022,0.2824264572,0.0022,4.38516353,
0.00222,1.744147634,0.00222,4.019733236,
0.00224,1.37871734,0.00224,4.750593824,
0.00226,2.475008222,0.00226,4.38516353,
0.00228,3.936729399,0.00228,3.288872648,
0.0023,3.571299105,0.0023,4.750593824,
0.00232,2.840438516,0.00232,4.38516353,
0.00234,3.205868811,0.00234,3.654302942,
0.00236,3.205868811,0.00236,4.750593824,
0.00238,5.033020281,0.00238,3.654302942,
0.0024,3.936729399,0.0024,4.019733236,
0.00242,3.936729399,0.00242,4.38516353,
0.00244,2.840438516,0.00244,4.019733236,
0.00246,2.475008222,0.00246,4.019733236,
0.00248,3.205868811,0.00248,4.750593824,
0.0025,4.667589987,0.0025,4.38516353,
0.00252,0.6478567513,0.00252,4.019733236,
0.00254,1.744147634,0.00254,5.116024118,
0.00256,0.6478567513,0.00256,4.750593824,
0.00258,0.2824264572,0.00258,4.38516353,
0.0026,0.6478567513,0.0026,4.750593824,
0.00262,-1.17929472,0.00262,4.750593824,
0.00264,-1.544725014,0.00264,4.750593824,
0.00266,-0.4484341312,0.00266,4.38516353,
0.00268,-2.641015896,0.00268,4.019733236,
0.0027,-3.371876485,0.0027,4.38516353,
0.00272,-1.17929472,0.00272,4.38516353,
0.00274,-2.275585602,0.00274,4.750593824,
0.00276,-1.910155308,0.00276,4.38516353,
0.00278,-2.275585602,0.00278,4.38516353,
0.0028,-3.737306779,0.0028,4.750593824,
0.00282,-2.641015896,0.00282,4.38516353,
0.00284,-3.371876485,0.00284,4.38516353,
0.00286,-3.00644619,0.00286,4.38516353,
0.00288,-2.641015896,0.00288,4.38516353,
0.0029,-2.641015896,0.0029,4.019733236,
0.00292,-4.102737073,0.00292,4.38516353,
0.00294,-1.544725014,0.00294,4.019733236,
0.00296,-3.00644619,0.00296,4.38516353,
0.00298,-2.641015896,0.00298,4.750593824,
0.003,-0.8138644254,0.003,4.38516353,
0.00302,-2.275585602,0.00302,4.38516353,
0.00304,-1.544725014,0.00304,4.750593824,
0.00306,-0.08300383702,0.00306,4.38516353,
0.00308,0.2824264572,0.00308,4.38516353,
0.0031,-0.4484341312,0.0031,4.750593824,
0.00312,1.013287045,0.00312,3.654302942,
0.00314,1.013287045,0.00314,4.750593824,
0.00316,1.744147634,0.00316,4.750593824,
0.00318,1.37871734,0.00318,4.750593824,
0.0032,2.475008222,0.0032,4.750593824,
0.00322,3.571299105,0.00322,4.38516353,
0.00324,3.571299105,0.00324,4.019733236,
0.00326,3.205868811,0.00326,4.750593824,
0.00328,3.936729399,0.00328,4.750593824,
0.0033,3.205868811,0.0033,4.019733236,
0.00332,5.76388087,0.00332,4.750593824,
0.00334,3.571299105,0.00334,4.38516353,
0.00336,3.936729399,0.00336,4.38516353,
0.00338,3.571299105,0.00338,4.38516353,
0.0034,3.205868811,0.0034,4.019733236,
0.00342,3.936729399,0.00342,4.38516353,
0.00344,1.744147634,0.00344,4.38516353,
0.00346,1.013287045,0.00346,4.38516353,
0.00348,1.744147634,0.00348,4.750593824,
0.0035,2.109577928,0.0035,4.750593824,
0.00352,0.2824264572,0.00352,4.38516353,
0.00354,0.2824264572,0.00354,4.38516353,
0.00356,1.744147634,0.00356,4.38516353,
0.00358,-1.17929472,0.00358,4.019733236,
0.0036,1.37871734,0.0036,4.38516353,
0.00362,-1.17929472,0.00362,4.750593824,
0.00364,1.013287045,0.00364,4.38516353,
0.00366,-1.910155308,0.00366,4.019733236,
0.00368,-2.641015896,0.00368,4.750593824,
0.0037,-2.641015896,0.0037,4.38516353,
0.00372,-3.00644619,0.00372,4.750593824,
0.00374,-2.275585602,0.00374,4.38516353,
0.00376,-2.275585602,0.00376,4.750593824,
0.00378,-3.737306779,0.00378,4.750593824,
0.0038,-3.00644619,0.0038,4.38516353,
0.00382,-4.102737073,0.00382,4.38516353,
0.00384,-2.641015896,0.00384,4.750593824,
0.00386,-2.275585602,0.00386,4.38516353,
0.00388,-4.102737073,0.00388,4.38516353,
0.0039,-4.833597661,0.0039,4.019733236,
0.00392,-2.275585602,0.00392,5.116024118,
0.00394,-2.275585602,0.00394,4.38516353,
0.00396,-0.08300383702,0.00396,4.38516353,
0.00398,-0.08300383702,0.00398,4.38516353,
0.004,-0.08300383702,0.004,4.38516353,
0.00402,1.013287045,0.00402,4.38516353,
0.00404,3.571299105,0.00404,4.38516353,
0.00406,1.37871734,0.00406,4.019733236,
0.00408,1.744147634,0.00408,4.38516353,
0.0041,3.205868811,0.0041,4.750593824,
0.00412,3.205868811,0.00412,4.019733236,
0.00414,3.205868811,0.00414,4.38516353,
0.00416,2.840438516,0.00416,4.750593824,
0.00418,2.475008222,0.00418,4.019733236,
0.0042,3.936729399,0.0042,5.116024118,
0.00422,3.571299105,0.00422,4.38516353,
0.00424,2.475008222,0.00424,4.38516353,
0.00426,3.936729399,0.00426,4.38516353,
0.00428,1.744147634,0.00428,4.38516353,
0.0043,1.37871734,0.0043,3.654302942,
0.00432,3.936729399,0.00432,4.38516353,
0.00434,2.475008222,0.00434,4.750593824,
0.00436,2.475008222,0.00436,4.019733236,
0.00438,2.109577928,0.00438,4.38516353,
0.0044,1.37871734,0.0044,5.116024118,
0.00442,1.37871734,0.00442,4.38516353,
0.00444,0.2824264572,0.00444,4.38516353,
0.00446,0.2824264572,0.00446,4.019733236,
0.00448,1.013287045,0.00448,4.38516353,
0.0045,-0.8138644254,0.0045,4.38516353,
0.00452,-0.4484341312,0.00452,4.019733236,
0.00454,-1.17929472,0.00454,4.019733236,
0.00456,-1.910155308,0.00456,3.654302942,
0.00458,-2.275585602,0.00458,3.654302942,
0.0046,-3.371876485,0.0046,2.558012059,
0.00462,-3.00644619,0.00462,4.019733236,
0.00464,-3.371876485,0.00464,3.654302942,
0.00466,-2.641015896,0.00466,4.019733236,
0.00468,-3.737306779,0.00468,4.019733236,
0.0047,-3.737306779,0.0047,4.019733236,
0.00472,-3.737306779,0.00472,4.019733236,
0.00474,-3.00644619,0.00474,4.38516353,
0.00476,-3.00644619,0.00476,4.019733236,
0.00478,-2.641015896,0.00478,4.38516353,
0.0048,-2.641015896,0.0048,5.481454413,
0.00482,-2.275585602,0.00482,4.019733236,
0.00484,-2.641015896,0.00484,4.38516353,
0.00486,1.37871734,0.00486,4.38516353,
0.00488,-2.275585602,0.00488,3.654302942,
0.0049,-0.4484341312,0.0049,3.288872648,
0.00492,-0.4484341312,0.00492,4.750593824,
0.00494,-0.08300383702,0.00494,4.019733236,
0.00496,1.37871734,0.00496,4.38516353,
0.00498,2.475008222,0.00498,4.38516353,
0.005,1.744147634,0.005,4.019733236,
0.00502,2.475008222,0.00502,4.38516353,
0.00504,3.571299105,0.00504,4.38516353,
0.00506,2.109577928,0.00506,4.019733236,
0.00508,1.744147634,0.00508,4.38516353,
0.0051,3.205868811,0.0051,4.38516353,
0.00512,3.571299105,0.00512,4.019733236,
0.00514,4.302159693,0.00514,4.38516353,
0.00516,4.302159693,0.00516,4.38516353,
0.00518,3.936729399,0.00518,4.019733236,
0.0052,3.571299105,0.0052,3.288872648,
0.00522,2.109577928,0.00522,4.38516353,
0.00524,2.840438516,0.00524,3.654302942,
0.00526,3.205868811,0.00526,4.38516353,
0.00528,3.571299105,0.00528,4.38516353,
0.0053,2.109577928,0.0053,4.750593824,
0.00532,3.205868811,0.00532,4.019733236,
0.00534,0.6478567513,0.00534,4.750593824,
0.00536,1.744147634,0.00536,4.38516353,
0.00538,0.2824264572,0.00538,4.38516353,
0.0054,1.37871734,0.0054,3.654302942,
0.00542,1.37871734,0.00542,4.38516353,
0.00544,-0.4484341312,0.00544,4.38516353,
0.00546,-1.544725014,0.00546,4.750593824,
0.00548,-1.17929472,0.00548,4.019733236,
0.0055,-1.910155308,0.0055,3.288872648,
0.00552,-3.00644619,0.00552,4.019733236,
0.00554,-3.371876485,0.00554,4.38516353,
0.00556,-3.737306779,0.00556,4.38516353,
0.00558,-3.00644619,0.00558,4.750593824,
0.0056,-3.00644619,0.0056,4.750593824,
0.00562,-3.737306779,0.00562,4.38516353,
0.00564,-3.737306779,0.00564,4.750593824,
0.00566,-1.910155308,0.00566,5.116024118,
0.00568,-3.371876485,0.00568,5.481454413,
0.0057,-3.00644619,0.0057,4.750593824,
0.00572,-4.102737073,0.00572,4.38516353,
0.00574,-3.737306779,0.00574,4.750593824,
0.00576,-2.275585602,0.00576,4.38516353,
0.00578,-4.833597661,0.00578,4.750593824,
0.0058,-1.910155308,0.0058,4.38516353,
0.00582,-1.17929472,0.00582,4.38516353,
0.00584,0.2824264572,0.00584,4.38516353,
0.00586,-1.910155308,0.00586,4.750593824,
0.00588,-0.08300383702,0.00588,3.654302942,
0.0059,1.013287045,0.0059,5.116024118,
0.00592,3.205868811,0.00592,4.750593824,
0.00594,2.109577928,0.00594,4.019733236,
0.00596,2.109577928,0.00596,4.750593824,
0.00598,1.744147634,0.00598,4.38516353,
0.006,2.840438516,0.006,3.654302942,
0.00602,1.744147634,0.00602,4.750593824,
0.00604,3.205868811,0.00604,4.750593824,
0.00606,3.936729399,0.00606,4.38516353,
0.00608,3.205868811,0.00608,4.750593824,
0.0061,3.936729399,0.0061,4.750593824,
0.00612,3.205868811,0.00612,4.38516353,
0.00614,3.936729399,0.00614,5.116024118,
0.00616,1.013287045,0.00616,4.750593824,
0.00618,3.205868811,0.00618,4.38516353,
0.0062,3.205868811,0.0062,5.481454413,
0.00622,5.033020281,0.00622,4.38516353,
0.00624,2.109577928,0.00624,4.019733236,
0.00626,1.744147634,0.00626,4.750593824,
0.00628,1.37871734,0.00628,4.38516353,
0.0063,-0.8138644254,0.0063,4.38516353,
0.00632,0.6478567513,0.00632,4.750593824,
0.00634,1.013287045,0.00634,4.38516353,
0.00636,-0.4484341312,0.00636,4.019733236,
0.00638,-1.910155308,0.00638,4.750593824,
0.0064,-3.737306779,0.0064,4.750593824,
0.00642,-3.371876485,0.00642,4.38516353,
0.00644,-1.544725014,0.00644,4.750593824,
0.00646,-2.275585602,0.00646,4.38516353,
0.00648,-3.737306779,0.00648,4.38516353,
0.0065,-3.00644619,0.0065,4.750593824,
0.00652,-4.468167367,0.00652,4.38516353,
0.00654,-3.737306779,0.00654,4.019733236,
0.00656,-4.102737073,0.00656,4.750593824,
0.00658,-4.102737073,0.00658,4.750593824,
0.0066,-2.275585602,0.0066,4.38516353,
0.00662,-2.641015896,0.00662,4.38516353,
0.00664,-3.371876485,0.00664,4.38516353,
0.00666,-1.17929472,0.00666,4.38516353,
0.00668,-3.00644619,0.00668,4.750593824,
0.0067,-2.641015896,0.0067,4.38516353,
0.00672,-1.17929472,0.00672,4.019733236,
0.00674,-3.00644619,0.00674,5.116024118,
0.00676,-1.910155308,0.00676,4.38516353,
0.00678,-1.17929472,0.00678,4.38516353,
0.0068,1.013287045,0.0068,4.750593824,
0.00682,-0.4484341312,0.00682,4.38516353,
0.00684,0.6478567513,0.00684,4.38516353,
0.00686,2.840438516,0.00686,5.116024118,
0.00688,1.37871734,0.00688,4.38516353,
0.0069,2.109577928,0.0069,4.38516353,
0.00692,1.37871734,0.00692,4.38516353,
0.00694,1.744147634,0.00694,4.750593824,
0.00696,3.205868811,0.00696,4.019733236,
0.00698,4.667589987,0.00698,5.116024118,
0.007,5.033020281,0.007,4.38516353,
0.00702,3.936729399,0.00702,4.019733236,
0.00704,4.667589987,0.00704,4.750593824,
0.00706,3.936729399,0.00706,4.750593824,
0.00708,2.840438516,0.00708,4.38516353,
0.0071,4.302159693,0.0071,4.38516353,
0.00712,2.109577928,0.00712,4.38516353,
0.00714,2.475008222,0.00714,4.38516353,
0.00716,3.205868811,0.00716,4.38516353,
0.00718,3.205868811,0.00718,4.38516353,
0.0072,2.109577928,0.0072,4.750593824,
0.00722,2.475008222,0.00722,4.019733236,
0.00724,0.2824264572,0.00724,4.750593824,
0.00726,-0.08300383702,0.00726,4.019733236,
0.00728,-0.08300383702,0.00728,4.38516353,
0.0073,-0.8138644254,0.0073,4.019733236,
0.00732,-3.00644619,0.00732,4.750593824,
0.00734,-0.4484341312,0.00734,4.019733236,
0.00736,-1.544725014,0.00736,4.019733236,
0.00738,-2.641015896,0.00738,4.019733236,
0.0074,-3.00644619,0.0074,4.019733236,
0.00742,-3.00644619,0.00742,4.019733236,
0.00744,-2.275585602,0.00744,4.38516353,
0.00746,-3.371876485,0.00746,4.38516353,
0.00748,-3.371876485,0.00748,4.019733236,
0.0075,-5.56445825,0.0075,4.750593824,
0.00752,-2.641015896,0.00752,3.654302942,
0.00754,-3.371876485,0.00754,4.019733236,
0.00756,-3.371876485,0.00756,3.654302942,
0.00758,-3.00644619,0.00758,4.38516353,
0.0076,-1.17929472,0.0076,4.019733236,
0.00762,-1.17929472,0.00762,5.481454413,
0.00764,-1.17929472,0.00764,4.019733236,
0.00766,-1.910155308,0.00766,3.654302942,
0.00768,-0.08300383702,0.00768,4.38516353,
0.0077,-0.4484341312,0.0077,4.38516353,
0.00772,-0.08300383702,0.00772,2.558012059,
0.00774,1.37871734,0.00774,4.38516353,
0.00776,0.2824264572,0.00776,4.38516353,
0.00778,1.013287045,0.00778,3.288872648,
0.0078,1.744147634,0.0078,4.38516353,
0.00782,1.744147634,0.00782,2.192581765,
0.00784,0.6478567513,0.00784,3.654302942,
0.00786,2.475008222,0.00786,4.38516353,
0.00788,2.840438516,0.00788,4.38516353,
0.0079,3.205868811,0.0079,3.654302942,
0.00792,2.840438516,0.00792,5.846884707,
0.00794,3.205868811,0.00794,4.750593824,
0.00796,5.033020281,0.00796,4.019733236,
0.00798,2.840438516,0.00798,4.019733236,
0.008,4.302159693,0.008,4.750593824,
0.00802,3.571299105,0.00802,4.019733236,
0.00804,4.667589987,0.00804,4.019733236,
0.00806,2.109577928,0.00806,4.019733236,
0.00808,2.109577928,0.00808,4.019733236,
0.0081,2.840438516,0.0081,4.38516353,
0.00812,3.571299105,0.00812,2.192581765,
0.00814,5.398450576,0.00814,4.019733236,
0.00816,1.37871734,0.00816,4.019733236,
0.00818,-0.8138644254,0.00818,5.116024118,
0.0082,-0.4484341312,0.0082,4.019733236,
0.00822,0.2824264572,0.00822,5.846884707,
0.00824,0.2824264572,0.00824,4.38516353,
0.00826,-2.275585602,0.00826,4.019733236,
0.00828,-1.544725014,0.00828,4.38516353,
0.0083,-1.910155308,0.0083,4.38516353,
0.00832,-3.00644619,0.00832,4.019733236,
0.00834,-3.371876485,0.00834,4.38516353,
0.00836,-3.371876485,0.00836,4.019733236,
0.00838,-2.275585602,0.00838,4.019733236,
0.0084,-3.00644619,0.0084,4.38516353,
0.00842,-3.00644619,0.00842,3.288872648,
0.00844,-3.371876485,0.00844,4.019733236,
0.00846,-3.371876485,0.00846,4.38516353,
0.00848,-3.737306779,0.00848,4.019733236,
0.0085,-3.371876485,0.0085,4.38516353,
0.00852,-1.17929472,0.00852,4.750593824,
0.00854,-1.544725014,0.00854,4.38516353,
0.00856,-2.275585602,0.00856,3.654302942,
0.00858,-2.275585602,0.00858,4.750593824,
0.0086,-0.8138644254,0.0086,4.38516353,
0.00862,-1.544725014,0.00862,4.019733236,
0.00864,-0.8138644254,0.00864,4.38516353,
0.00866,-0.08300383702,0.00866,4.019733236,
0.00868,0.2824264572,0.00868,4.019733236,
0.0087,0.6478567513,0.0087,4.38516353,
0.00872,1.744147634,0.00872,3.654302942,
0.00874,1.37871734,0.00874,3.654302942,
0.00876,1.013287045,0.00876,4.750593824,
0.00878,2.840438516,0.00878,4.38516353,
0.0088,2.840438516,0.0088,4.019733236,
0.00882,1.37871734,0.00882,3.654302942,
0.00884,3.936729399,0.00884,4.38516353,
0.00886,3.936729399,0.00886,4.38516353,
0.00888,3.936729399,0.00888,4.019733236,
0.0089,4.302159693,0.0089,4.38516353,
0.00892,2.840438516,0.00892,5.116024118,
0.00894,2.840438516,0.00894,4.38516353,
0.00896,4.302159693,0.00896,4.750593824,
0.00898,3.205868811,0.00898,4.019733236,
0.009,2.475008222,0.009,4.38516353,
0.00902,3.205868811,0.00902,4.019733236,
0.00904,0.6478567513,0.00904,3.654302942,
0.00906,1.744147634,0.00906,4.38516353,
0.00908,1.37871734,0.00908,4.38516353,
0.0091,1.013287045,0.0091,3.654302942,
0.00912,1.744147634,0.00912,3.654302942,
0.00914,0.6478567513,0.00914,4.38516353,
0.00916,0.2824264572,0.00916,3.654302942,
0.00918,-1.910155308,0.00918,4.750593824,
0.0092,-1.544725014,0.0092,4.019733236,
0.00922,-1.910155308,0.00922,5.116024118,
0.00924,-3.371876485,0.00924,4.38516353,
0.00926,-2.641015896,0.00926,3.654302942,
0.00928,-2.641015896,0.00928,4.38516353,
0.0093,-5.929888544,0.0093,4.019733236,
0.00932,-3.737306779,0.00932,4.38516353,
0.00934,-4.102737073,0.00934,4.750593824,
0.00936,-3.00644619,0.00936,4.38516353,
0.00938,-3.737306779,0.00938,4.38516353,
0.0094,-3.00644619,0.0094,4.38516353,
0.00942,-4.833597661,0.00942,4.38516353,
0.00944,-4.102737073,0.00944,4.38516353,
0.00946,-3.00644619,0.00946,4.38516353,
0.00948,-2.641015896,0.00948,4.38516353,
0.0095,-3.00644619,0.0095,4.750593824,
0.00952,-0.8138644254,0.00952,4.750593824,
0.00954,-2.275585602,0.00954,4.750593824,
0.00956,-0.8138644254,0.00956,4.38516353,
0.00958,-0.4484341312,0.00958,4.750593824,
0.0096,-0.8138644254,0.0096,4.38516353,
0.00962,-0.08300383702,0.00962,4.750593824,
0.00964,1.37871734,0.00964,4.750593824,
0.00966,1.37871734,0.00966,4.38516353,
0.00968,0.6478567513,0.00968,4.38516353,
0.0097,2.109577928,0.0097,4.750593824,
0.00972,3.205868811,0.00972,4.38516353,
0.00974,2.475008222,0.00974,4.750593824,
0.00976,3.205868811,0.00976,4.750593824,
0.00978,3.205868811,0.00978,4.38516353,
0.0098,3.936729399,0.0098,4.019733236,
0.00982,3.205868811,0.00982,4.38516353,
0.00984,2.475008222,0.00984,4.019733236,
0.00986,2.475008222,0.00986,4.019733236,
0.00988,3.205868811,0.00988,4.750593824,
0.0099,3.571299105,0.0099,4.38516353,
0.00992,2.475008222,0.00992,4.38516353,
0.00994,3.571299105,0.00994,4.38516353,
0.00996,2.475008222,0.00996,4.38516353,
0.00998,3.205868811,0.00998,4.38516353,
0.01,1.013287045,0.01,4.38516353,
0.01002,1.37871734,0.01002,4.019733236,
0.01004,0.2824264572,0.01004,4.019733236,
0.01006,-0.08300383702,0.01006,4.38516353,
0.01008,-0.8138644254,0.01008,4.38516353,
0.0101,-1.910155308,0.0101,4.019733236,
0.01012,-0.8138644254,0.01012,4.750593824,
0.01014,-3.00644619,0.01014,4.019733236,
0.01016,-2.641015896,0.01016,4.019733236,
0.01018,-0.8138644254,0.01018,5.116024118,
0.0102,-2.641015896,0.0102,4.019733236,
0.01022,-3.00644619,0.01022,4.019733236,
0.01024,-2.641015896,0.01024,5.116024118,
0.01026,-4.102737073,0.01026,4.38516353,
0.01028,-3.737306779,0.01028,4.38516353,
0.0103,-3.737306779,0.0103,4.750593824,
0.01032,-2.275585602,0.01032,4.38516353,
0.01034,-3.371876485,0.01034,4.38516353,
0.01036,-3.371876485,0.01036,4.750593824,
0.01038,-3.371876485,0.01038,4.38516353,
0.0104,-3.371876485,0.0104,4.750593824,
0.01042,-3.371876485,0.01042,4.38516353,
0.01044,-1.910155308,0.01044,4.38516353,
0.01046,-2.641015896,0.01046,4.750593824,
0.01048,-1.544725014,0.01048,4.38516353,
0.0105,-0.08300383702,0.0105,4.38516353,
0.01052,-0.4484341312,0.01052,4.750593824,
0.01054,-0.08300383702,0.01054,3.288872648,
0.01056,1.013287045,0.01056,4.019733236,
0.01058,-0.4484341312,0.01058,5.116024118,
0.0106,1.37871734,0.0106,4.019733236,
0.01062,2.475008222,0.01062,4.38516353,
0.01064,4.302159693,0.01064,4.38516353,
0.01066,2.840438516,0.01066,4.38516353,
0.01068,3.205868811,0.01068,4.38516353,
0.0107,3.571299105,0.0107,4.38516353,
0.01072,2.109577928,0.01072,4.019733236,
0.01074,2.109577928,0.01074,4.019733236,
0.01076,3.571299105,0.01076,4.019733236,
0.01078,3.936729399,0.01078,4.750593824,
0.0108,3.205868811,0.0108,4.019733236,
0.01082,4.302159693,0.01082,4.019733236,
0.01084,3.936729399,0.01084,5.116024118,
0.01086,2.475008222,0.01086,4.019733236,
0.01088,1.37871734,0.01088,4.019733236,
0.0109,2.109577928,0.0109,4.750593824,
0.01092,0.2824264572,0.01092,4.38516353,
0.01094,2.109577928,0.01094,3.288872648,
0.01096,2.109577928,0.01096,4.750593824,
0.01098,0.2824264572,0.01098,4.38516353,
0.011,-0.08300383702,0.011,4.019733236,
0.01102,-0.08300383702,0.01102,4.750593824,
0.01104,-0.8138644254,0.01104,4.38516353,
0.01106,0.6478567513,0.01106,4.38516353,
0.01108,-1.544725014,0.01108,5.116024118,
0.0111,-2.275585602,0.0111,4.38516353,
0.01112,-2.641015896,0.01112,4.750593824,
0.01114,-2.275585602,0.01114,4.750593824,
0.01116,-2.641015896,0.01116,4.750593824,
0.01118,-3.00644619,0.01118,4.750593824,
0.0112,-3.737306779,0.0112,4.750593824,
0.01122,-3.371876485,0.01122,4.38516353,
0.01124,-3.371876485,0.01124,4.019733236,
0.01126,-3.371876485,0.01126,4.38516353,
0.01128,-4.833597661,0.01128,4.38516353,
0.0113,-3.371876485,0.0113,4.750593824,
0.01132,-3.737306779,0.01132,3.654302942,
0.01134,0.2824264572,0.01134,3.288872648,
0.01136,-1.910155308,0.01136,4.750593824,
0.01138,-2.275585602,0.01138,4.38516353,
0.0114,-1.910155308,0.0114,4.38516353,
0.01142,-2.275585602,0.01142,4.750593824,
0.01144,-0.8138644254,0.01144,4.019733236,
0.01146,-0.8138644254,0.01146,4.38516353,
0.01148,0.6478567513,0.01148,4.38516353,
0.0115,-1.17929472,0.0115,4.38516353,
0.01152,0.2824264572,0.01152,4.38516353,
0.01154,3.205868811,0.01154,5.481454413,
0.01156,1.744147634,0.01156,4.38516353,
0.01158,3.205868811,0.01158,4.750593824,
0.0116,4.302159693,0.0116,4.38516353,
0.01162,2.840438516,0.01162,4.750593824,
0.01164,1.744147634,0.01164,4.38516353,
0.01166,4.302159693,0.01166,4.750593824,
0.01168,3.936729399,0.01168,4.750593824,
0.0117,3.205868811,0.0117,4.019733236,
0.01172,3.936729399,0.01172,4.750593824,
0.01174,1.744147634,0.01174,3.654302942,
0.01176,3.571299105,0.01176,4.38516353,
0.01178,2.475008222,0.01178,4.38516353,
0.0118,2.109577928,0.0118,4.750593824,
0.01182,3.205868811,0.01182,4.38516353,
0.01184,2.475008222,0.01184,5.116024118,
0.01186,1.37871734,0.01186,5.481454413,
0.01188,1.013287045,0.01188,4.38516353,
0.0119,2.840438516,0.0119,4.750593824,
0.01192,-1.910155308,0.01192,5.116024118,
0.01194,-1.17929472,0.01194,4.750593824,
0.01196,0.2824264572,0.01196,4.750593824,
0.01198,-2.275585602,0.01198,4.750593824,
0.012,-1.17929472,0.012,4.38516353,
0.01202,-1.910155308,0.01202,4.750593824,
0.01204,-2.275585602,0.01204,3.288872648,
0.01206,-4.102737073,0.01206,4.38516353,
0.01208,-3.371876485,0.01208,4.38516353,
0.0121,-3.00644619,0.0121,4.750593824,
0.01212,-2.641015896,0.01212,4.38516353,
0.01214,-2.275585602,0.01214,4.750593824,
0.01216,-4.102737073,0.01216,4.38516353,
0.01218,-4.102737073,0.01218,4.38516353,
0.0122,-2.275585602,0.0122,4.750593824,
0.01222,-2.641015896,0.01222,4.750593824,
0.01224,-4.102737073,0.01224,5.116024118,
0.01226,-0.8138644254,0.01226,4.38516353,
0.01228,-2.275585602,0.01228,4.38516353,
0.0123,-0.4484341312,0.0123,4.38516353,
0.01232,-1.910155308,0.01232,4.38516353,
0.01234,-1.910155308,0.01234,4.019733236,
0.01236,0.2824264572,0.01236,4.38516353,
0.01238,-0.4484341312,0.01238,4.750593824,
0.0124,-0.08300383702,0.0124,4.750593824,
0.01242,0.2824264572,0.01242,4.38516353,
0.01244,1.37871734,0.01244,4.750593824,
0.01246,0.2824264572,0.01246,4.750593824,
0.01248,2.840438516,0.01248,4.38516353,
0.0125,3.205868811,0.0125,4.38516353,
0.01252,3.205868811,0.01252,4.750593824,
0.01254,3.936729399,0.01254,4.750593824,
0.01256,2.109577928,0.01256,4.750593824,
0.01258,2.840438516,0.01258,4.38516353,
0.0126,4.302159693,0.0126,4.38516353,
0.01262,4.302159693,0.01262,4.750593824,
0.01264,1.744147634,0.01264,4.38516353,
0.01266,2.475008222,0.01266,4.38516353,
0.01268,5.76388087,0.01268,4.750593824,
0.0127,4.667589987,0.0127,4.38516353,
0.01272,3.571299105,0.01272,4.38516353,
0.01274,3.205868811,0.01274,4.750593824,
0.01276,3.205868811,0.01276,4.750593824,
0.01278,2.840438516,0.01278,4.019733236,
0.0128,1.744147634,0.0128,4.750593824,
0.01282,1.013287045,0.01282,4.38516353,
0.01284,0.2824264572,0.01284,4.38516353,
0.01286,0.6478567513,0.01286,4.750593824,
0.01288,-1.17929472,0.01288,4.38516353,
0.0129,-0.8138644254,0.0129,4.750593824,
0.01292,-0.8138644254,0.01292,4.750593824,
0.01294,-2.275585602,0.01294,4.019733236,
0.01296,-3.737306779,0.01296,4.38516353,
0.01298,-1.910155308,0.01298,4.38516353,
0.013,-3.00644619,0.013,4.019733236,
0.01302,-2.641015896,0.01302,4.019733236,
0.01304,-3.00644619,0.01304,3.654302942,
0.01306,-4.468167367,0.01306,4.019733236,
0.01308,-4.102737073,0.01308,4.019733236,
0.0131,-4.102737073,0.0131,3.654302942,
0.01312,-1.910155308,0.01312,4.750593824,
0.01314,-3.00644619,0.01314,4.019733236,
0.01316,-2.641015896,0.01316,3.288872648,
0.01318,-3.00644619,0.01318,4.38516353,
0.0132,-3.00644619,0.0132,4.38516353,
0.01322,-1.544725014,0.01322,4.019733236,
0.01324,-3.737306779,0.01324,4.019733236,
0.01326,-0.08300383702,0.01326,4.38516353,
0.01328,-1.17929472,0.01328,4.019733236,
0.0133,-0.08300383702,0.0133,4.38516353,
0.01332,-1.17929472,0.01332,4.019733236,
0.01334,-0.4484341312,0.01334,3.654302942,
0.01336,0.2824264572,0.01336,4.38516353,
0.01338,1.37871734,0.01338,4.38516353,
0.0134,1.37871734,0.0134,4.38516353,
0.01342,2.475008222,0.01342,4.750593824,
0.01344,2.840438516,0.01344,4.38516353,
0.01346,4.302159693,0.01346,4.019733236,
0.01348,2.475008222,0.01348,4.750593824,
0.0135,3.205868811,0.0135,4.019733236,
0.01352,3.571299105,0.01352,4.019733236,
0.01354,3.936729399,0.01354,4.019733236,
0.01356,3.205868811,0.01356,4.38516353,
0.01358,2.840438516,0.01358,3.654302942,
0.0136,6.494741458,0.0136,4.38516353,
0.01362,2.475008222,0.01362,4.750593824,
0.01364,2.109577928,0.01364,4.019733236,
0.01366,3.571299105,0.01366,4.38516353,
0.01368,2.840438516,0.01368,4.38516353,
0.0137,2.109577928,0.0137,4.019733236,
0.01372,3.205868811,0.01372,4.38516353,
0.01374,1.744147634,0.01374,4.019733236,
0.01376,1.013287045,0.01376,4.019733236,
0.01378,-0.4484341312,0.01378,4.38516353,
0.0138,0.2824264572,0.0138,4.019733236,
0.01382,2.840438516,0.01382,3.654302942,
0.01384,-0.4484341312,0.01384,4.38516353,
0.01386,-0.08300383702,0.01386,4.019733236,
0.01388,-2.275585602,0.01388,4.019733236,
0.0139,-0.8138644254,0.0139,4.38516353,
0.01392,-2.275585602,0.01392,4.38516353,
0.01394,-3.371876485,0.01394,4.019733236,
0.01396,-2.275585602,0.01396,4.38516353,
0.01398,-1.17929472,0.01398,4.019733236,
0.014,-3.00644619,0.014,3.654302942,
0.01402,-3.737306779,0.01402,4.019733236,
0.01404,-1.910155308,0.01404,4.38516353,
0.01406,-4.102737073,0.01406,4.019733236,
0.01408,-2.275585602,0.01408,4.019733236,
0.0141,-1.544725014,0.0141,4.019733236,
0.01412,-3.00644619,0.01412,4.019733236,
0.01414,-2.275585602,0.01414,4.38516353,
0.01416,-2.641015896,0.01416,4.750593824,
0.01418,-1.17929472,0.01418,4.019733236,
0.0142,-1.17929472,0.0142,4.019733236,
0.01422,-0.08300383702,0.01422,4.019733236,
0.01424,-2.275585602,0.01424,4.019733236,
0.01426,1.013287045,0.01426,4.019733236,
0.01428,0.2824264572,0.01428,4.38516353,
0.0143,0.6478567513,0.0143,3.654302942,
0.01432,2.475008222,0.01432,4.750593824,
0.01434,3.205868811,0.01434,4.38516353,
0.01436,2.475008222,0.01436,3.288872648,
0.01438,1.744147634,0.01438,4.750593824,
0.0144,2.840438516,0.0144,4.019733236,
0.01442,2.475008222,0.01442,3.654302942,
0.01444,3.571299105,0.01444,4.019733236,
0.01446,3.571299105,0.01446,4.38516353,
0.01448,3.571299105,0.01448,4.019733236,
0.0145,3.936729399,0.0145,5.116024118,
0.01452,3.571299105,0.01452,4.019733236,
0.01454,3.571299105,0.01454,3.288872648,
0.01456,2.840438516,0.01456,4.750593824,
0.01458,3.571299105,0.01458,4.38516353,
0.0146,2.840438516,0.0146,3.654302942,
0.01462,2.840438516,0.01462,4.019733236,
0.01464,3.205868811,0.01464,4.750593824,
0.01466,-1.544725014,0.01466,4.019733236,
0.01468,2.840438516,0.01468,4.38516353,
0.0147,1.013287045,0.0147,4.019733236,
0.01472,1.013287045,0.01472,3.654302942,
0.01474,0.6478567513,0.01474,4.750593824,
0.01476,-1.544725014,0.01476,4.019733236,
0.01478,-2.275585602,0.01478,4.019733236,
0.0148,-0.8138644254,0.0148,3.654302942,
0.01482,-1.910155308,0.01482,4.38516353,
0.01484,-2.275585602,0.01484,4.38516353,
0.01486,-3.00644619,0.01486,4.019733236,
0.01488,-3.00644619,0.01488,3.654302942,
0.0149,-3.371876485,0.0149,4.019733236,
0.01492,-2.641015896,0.01492,4.38516353,
0.01494,-3.737306779,0.01494,4.019733236,
0.01496,-2.641015896,0.01496,5.846884707,
0.01498,-4.468167367,0.01498,4.019733236,
0.015,-3.371876485,0.015,4.38516353,
0.01502,-3.00644619,0.01502,5.116024118,
0.01504,-3.371876485,0.01504,4.38516353,
0.01506,-3.737306779,0.01506,2.558012059,
0.01508,-3.737306779,0.01508,4.750593824,
0.0151,-4.102737073,0.0151,4.38516353,
0.01512,-0.4484341312,0.01512,4.019733236,
0.01514,-0.8138644254,0.01514,4.750593824,
0.01516,-0.8138644254,0.01516,5.846884707,
0.01518,-0.4484341312,0.01518,4.019733236,
0.0152,0.2824264572,0.0152,4.38516353,
0.01522,-1.17929472,0.01522,4.38516353,
0.01524,1.37871734,0.01524,4.019733236,
0.01526,2.840438516,0.01526,6.212315001,
0.01528,1.744147634,0.01528,4.019733236,
0.0153,2.109577928,0.0153,3.654302942,
0.01532,2.840438516,0.01532,4.750593824,
0.01534,2.475008222,0.01534,4.38516353,
0.01536,1.37871734,0.01536,2.192581765,
0.01538,4.302159693,0.01538,4.38516353,
0.0154,2.840438516,0.0154,4.38516353,
0.01542,3.205868811,0.01542,4.019733236,
0.01544,2.109577928,0.01544,4.750593824,
0.01546,2.109577928,0.01546,5.481454413,
0.01548,2.840438516,0.01548,4.019733236,
0.0155,3.936729399,0.0155,5.116024118,
0.01552,2.840438516,0.01552,4.019733236,
0.01554,2.109577928,0.01554,3.654302942,
0.01556,1.37871734,0.01556,2.923442353,
0.01558,1.37871734,0.01558,4.38516353,
0.0156,2.109577928,0.0156,4.38516353,
0.01562,1.37871734,0.01562,4.38516353,
0.01564,0.6478567513,0.01564,4.38516353,
0.01566,0.2824264572,0.01566,4.38516353,
0.01568,0.2824264572,0.01568,4.38516353,
0.0157,-0.8138644254,0.0157,5.116024118,
0.01572,-1.17929472,0.01572,4.750593824,
0.01574,-1.17929472,0.01574,4.38516353,
0.01576,-0.8138644254,0.01576,5.481454413,
0.01578,-1.910155308,0.01578,4.38516353,
0.0158,-2.641015896,0.0158,4.38516353,
0.01582,-3.00644619,0.01582,4.38516353,
0.01584,-5.56445825,0.01584,4.38516353,
0.01586,-3.00644619,0.01586,5.846884707,
0.01588,-3.737306779,0.01588,4.019733236,
0.0159,-6.295318838,0.0159,4.38516353,
0.01592,-4.468167367,0.01592,4.019733236,
0.01594,-4.102737073,0.01594,4.38516353,
0.01596,-3.00644619,0.01596,4.38516353,
0.01598,-3.00644619,0.01598,4.38516353,
0.016,-3.00644619,0.016,4.019733236,
0.01602,-1.910155308,0.01602,4.38516353,
0.01604,-0.8138644254,0.01604,4.38516353,
0.01606,-2.275585602,0.01606,3.654302942,
0.01608,-0.08300383702,0.01608,4.019733236,
0.0161,-0.8138644254,0.0161,3.654302942,
0.01612,-1.17929472,0.01612,4.019733236,
0.01614,-0.4484341312,0.01614,4.38516353,
0.01616,-0.08300383702,0.01616,4.019733236,
0.01618,1.744147634,0.01618,3.654302942,
0.0162,1.013287045,0.0162,4.38516353,
0.01622,2.840438516,0.01622,4.38516353,
0.01624,2.109577928,0.01624,4.019733236,
0.01626,3.571299105,0.01626,5.481454413,
0.01628,5.033020281,0.01628,4.38516353,
0.0163,4.302159693,0.0163,4.019733236,
0.01632,6.860171752,0.01632,4.38516353,
0.01634,3.936729399,0.01634,3.654302942,
0.01636,3.571299105,0.01636,3.654302942,
0.01638,3.571299105,0.01638,4.38516353,
0.0164,3.936729399,0.0164,4.38516353,
0.01642,3.571299105,0.01642,4.38516353,
0.01644,3.205868811,0.01644,3.654302942,
0.01646,3.205868811,0.01646,4.38516353,
0.01648,2.109577928,0.01648,4.019733236,
0.0165,2.840438516,0.0165,4.750593824,
0.01652,1.744147634,0.01652,4.019733236,
0.01654,1.744147634,0.01654,3.654302942,
0.01656,1.013287045,0.01656,4.38516353,
0.01658,-1.17929472,0.01658,4.019733236,
0.0166,-1.544725014,0.0166,4.38516353,
0.01662,0.6478567513,0.01662,4.38516353,
0.01664,-0.8138644254,0.01664,4.019733236,
0.01666,-3.371876485,0.01666,3.654302942,
0.01668,-1.544725014,0.01668,4.38516353,
0.0167,-1.17929472,0.0167,4.38516353,
0.01672,-2.275585602,0.01672,4.019733236,
0.01674,-3.371876485,0.01674,4.38516353,
0.01676,-3.00644619,0.01676,5.116024118,
0.01678,-3.00644619,0.01678,3.654302942,
0.0168,-3.00644619,0.0168,4.38516353,
0.01682,-3.00644619,0.01682,4.38516353,
0.01684,-4.468167367,0.01684,3.288872648,
0.01686,-1.910155308,0.01686,4.750593824,
0.01688,-3.00644619,0.01688,4.750593824,
0.0169,-2.641015896,0.0169,4.38516353,
0.01692,-2.641015896,0.01692,4.38516353,
0.01694,-1.910155308,0.01694,4.019733236,
0.01696,-1.544725014,0.01696,3.654302942,
0.01698,-1.17929472,0.01698,4.019733236,
0.017,-0.4484341312,0.017,4.38516353,
0.01702,-0.8138644254,0.01702,3.654302942,
0.01704,-0.4484341312,0.01704,4.38516353,
0.01706,-0.08300383702,0.01706,4.019733236,
0.01708,0.2824264572,0.01708,4.019733236,
0.0171,3.571299105,0.0171,4.38516353,
0.01712,1.013287045,0.01712,4.019733236,
0.01714,2.475008222,0.01714,3.654302942,
0.01716,1.744147634,0.01716,4.38516353,
0.01718,2.109577928,0.01718,4.750593824,
0.0172,3.205868811,0.0172,4.019733236,
0.01722,1.013287045,0.01722,4.38516353,
0.01724,1.744147634,0.01724,4.019733236,
0.01726,3.936729399,0.01726,4.019733236,
0.01728,3.571299105,0.01728,4.019733236,
0.0173,4.302159693,0.0173,4.38516353,
0.01732,2.840438516,0.01732,4.38516353,
0.01734,3.571299105,0.01734,4.750593824,
0.01736,4.302159693,0.01736,4.38516353,
0.01738,3.205868811,0.01738,4.019733236,
0.0174,2.840438516,0.0174,4.38516353,
0.01742,1.37871734,0.01742,4.38516353,
0.01744,2.109577928,0.01744,4.38516353,
0.01746,-1.17929472,0.01746,4.019733236,
0.01748,1.37871734,0.01748,4.019733236,
0.0175,-0.08300383702,0.0175,4.019733236,
0.01752,1.013287045,0.01752,4.019733236,
0.01754,-0.08300383702,0.01754,4.019733236,
0.01756,-2.641015896,0.01756,4.019733236,
0.01758,-0.4484341312,0.01758,4.019733236,
0.0176,-1.17929472,0.0176,4.019733236,
0.01762,-2.275585602,0.01762,3.654302942,
0.01764,-2.275585602,0.01764,4.38516353,
0.01766,-3.00644619,0.01766,4.019733236,
0.01768,-3.371876485,0.01768,3.654302942,
0.0177,-3.00644619,0.0177,4.38516353,
0.01772,-3.00644619,0.01772,4.019733236,
0.01774,-3.371876485,0.01774,3.654302942,
0.01776,-6.660749132,0.01776,4.019733236,
0.01778,-4.102737073,0.01778,4.38516353,
0.0178,-2.641015896,0.0178,4.38516353,
0.01782,-3.737306779,0.01782,4.019733236,
0.01784,-3.737306779,0.01784,4.019733236,
0.01786,-3.00644619,0.01786,4.750593824,
0.01788,-3.00644619,0.01788,4.750593824,
0.0179,-1.910155308,0.0179,4.019733236,
0.01792,-2.641015896,0.01792,4.750593824,
0.01794,-1.544725014,0.01794,4.019733236,
0.01796,-0.8138644254,0.01796,4.019733236,
0.01798,-0.8138644254,0.01798,4.38516353,
0.018,0.6478567513,0.018,4.38516353,
0.01802,1.013287045,0.01802,4.019733236,
0.01804,-0.4484341312,0.01804,4.750593824,
0.01806,0.6478567513,0.01806,4.38516353,
0.01808,2.109577928,0.01808,3.288872648,
0.0181,2.840438516,0.0181,4.750593824,
0.01812,2.475008222,0.01812,4.019733236,
0.01814,2.840438516,0.01814,4.019733236,
0.01816,3.571299105,0.01816,5.116024118,
0.01818,1.37871734,0.01818,5.116024118,
0.0182,3.205868811,0.0182,2.923442353,
0.01822,4.667589987,0.01822,4.750593824,
0.01824,3.205868811,0.01824,4.750593824,
0.01826,3.205868811,0.01826,4.019733236,
0.01828,3.205868811,0.01828,3.288872648,
0.0183,2.840438516,0.0183,4.38516353,
0.01832,2.109577928,0.01832,4.019733236,
0.01834,2.475008222,0.01834,4.750593824,
0.01836,1.37871734,0.01836,4.38516353,
0.01838,1.744147634,0.01838,4.750593824,
0.0184,-0.08300383702,0.0184,4.38516353,
0.01842,0.2824264572,0.01842,4.750593824,
0.01844,-0.08300383702,0.01844,4.019733236,
0.01846,1.013287045,0.01846,4.38516353,
0.01848,-0.08300383702,0.01848,5.116024118,
0.0185,-0.4484341312,0.0185,4.019733236,
0.01852,-0.8138644254,0.01852,4.38516353,
0.01854,-1.910155308,0.01854,4.38516353,
0.01856,-1.910155308,0.01856,4.019733236,
0.01858,-3.00644619,0.01858,4.019733236,
0.0186,-3.737306779,0.0186,4.38516353,
0.01862,-4.468167367,0.01862,4.019733236,
0.01864,-5.199027955,0.01864,4.750593824,
0.01866,-3.737306779,0.01866,4.38516353,
0.01868,-4.102737073,0.01868,4.750593824,
0.0187,-3.737306779,0.0187,4.750593824,
0.01872,-4.833597661,0.01872,4.38516353,
0.01874,-3.737306779,0.01874,4.019733236,
0.01876,-3.371876485,0.01876,4.750593824,
0.01878,-3.371876485,0.01878,5.116024118,
0.0188,-3.737306779,0.0188,4.019733236,
0.01882,-3.00644619,0.01882,4.750593824,
0.01884,-2.641015896,0.01884,4.019733236,
0.01886,-1.910155308,0.01886,4.019733236,
0.01888,0.2824264572,0.01888,4.38516353,
0.0189,-1.17929472,0.0189,4.38516353,
0.01892,-0.4484341312,0.01892,4.019733236,
0.01894,0.2824264572,0.01894,4.750593824,
0.01896,0.2824264572,0.01896,4.019733236,
0.01898,1.744147634,0.01898,4.38516353,
0.019,-0.4484341312,0.019,5.116024118,
0.01902,2.109577928,0.01902,4.019733236,
0.01904,1.744147634,0.01904,4.019733236,
0.01906,4.302159693,0.01906,5.116024118,
0.01908,2.475008222,0.01908,4.019733236,
0.0191,5.033020281,0.0191,4.019733236,
0.01912,3.205868811,0.01912,4.38516353,
0.01914,3.936729399,0.01914,4.38516353,
0.01916,3.205868811,0.01916,4.38516353,
0.01918,3.571299105,0.01918,4.38516353,
0.0192,1.013287045,0.0192,4.019733236,
0.01922,4.667589987,0.01922,4.019733236,
0.01924,5.398450576,0.01924,4.750593824,
0.01926,2.475008222,0.01926,4.38516353,
0.01928,2.475008222,0.01928,4.38516353,
0.0193,1.013287045,0.0193,4.750593824,
0.01932,1.37871734,0.01932,4.750593824,
0.01934,1.013287045,0.01934,4.019733236,
0.01936,1.013287045,0.01936,4.750593824,
0.01938,-0.8138644254,0.01938,4.750593824,
0.0194,-0.4484341312,0.0194,4.38516353,
0.01942,-0.08300383702,0.01942,5.116024118,
0.01944,-0.08300383702,0.01944,4.38516353,
0.01946,-1.544725014,0.01946,4.019733236,
0.01948,-2.275585602,0.01948,4.750593824,
0.0195,-1.910155308,0.0195,4.38516353,
0.01952,-2.275585602,0.01952,4.38516353,
0.01954,-4.468167367,0.01954,4.750593824,
0.01956,-4.468167367,0.01956,4.38516353,
0.01958,-4.102737073,0.01958,3.288872648,
0.0196,-5.199027955,0.0196,4.750593824,
0.01962,-2.641015896,0.01962,4.38516353,
0.01964,-3.00644619,0.01964,4.38516353,
0.01966,-2.641015896,0.01966,4.750593824,
0.01968,-3.00644619,0.01968,4.750593824,
0.0197,-2.641015896,0.0197,4.38516353,
0.01972,-4.468167367,0.01972,4.38516353,
0.01974,-2.275585602,0.01974,4.019733236,
0.01976,-2.275585602,0.01976,4.38516353,
0.01978,-3.371876485,0.01978,4.750593824,
0.0198,-0.08300383702,0.0198,4.38516353,
0.01982,-0.4484341312,0.01982,5.116024118,
0.01984,-1.17929472,0.01984,4.38516353,
0.01986,0.6478567513,0.01986,4.019733236,
0.01988,0.2824264572,0.01988,4.750593824,
0.0199,1.37871734,0.0199,4.38516353,
0.01992,1.013287045,0.01992,4.38516353,
0.01994,2.109577928,0.01994,4.38516353,
0.01996,2.109577928,0.01996,4.38516353,
0.01998,2.840438516,0.01998,4.38516353,
0.02,1.37871734,0.02,4.38516353,
0.02002,4.667589987,0.02002,4.750593824,
0.02004,3.571299105,0.02004,4.750593824,
0.02006,3.571299105,0.02006,4.750593824,
0.02008,3.571299105,0.02008,4.750593824,
0.0201,2.475008222,0.0201,4.750593824,
0.02012,5.033020281,0.02012,4.38516353,
0.02014,2.840438516,0.02014,4.750593824,
0.02016,3.571299105,0.02016,4.750593824,
0.02018,3.571299105,0.02018,4.750593824,
0.0202,3.571299105,0.0202,4.38516353,
0.02022,2.475008222,0.02022,4.38516353,
0.02024,1.013287045,0.02024,4.750593824,
0.02026,-1.544725014,0.02026,4.750593824,
0.02028,1.37871734,0.02028,4.38516353,
0.0203,3.936729399,0.0203,4.750593824,
0.02032,-0.4484341312,0.02032,4.38516353,
0.02034,0.2824264572,0.02034,3.654302942,
0.02036,-1.544725014,0.02036,4.750593824,
0.02038,-1.910155308,0.02038,4.38516353,
0.0204,-0.08300383702,0.0204,4.019733236,
0.02042,-1.544725014,0.02042,4.750593824,
0.02044,-4.468167367,0.02044,4.750593824,
0.02046,-2.641015896,0.02046,4.38516353,
0.02048,-4.468167367,0.02048,4.750593824,
0.0205,-5.56445825,0.0205,4.38516353,
0.02052,-2.641015896,0.02052,4.019733236,
0.02054,-3.371876485,0.02054,5.481454413,
0.02056,-4.102737073,0.02056,4.750593824,
0.02058,-3.00644619,0.02058,4.019733236,
0.0206,-3.00644619,0.0206,4.750593824,
0.02062,-4.102737073,0.02062,4.750593824,
0.02064,-3.371876485,0.02064,4.38516353,
0.02066,-2.275585602,0.02066,4.019733236,
0.02068,-1.910155308,0.02068,4.38516353,
0.0207,-0.8138644254,0.0207,4.750593824,
0.02072,-1.544725014,0.02072,4.750593824,
0.02074,-2.275585602,0.02074,4.38516353,
0.02076,-1.17929472,0.02076,4.38516353,
0.02078,-2.275585602,0.02078,5.481454413,
0.0208,1.013287045,0.0208,4.019733236,
0.02082,1.013287045,0.02082,4.750593824,
0.02084,1.744147634,0.02084,4.38516353,
0.02086,1.37871734,0.02086,4.750593824,
0.02088,1.744147634,0.02088,4.38516353,
0.0209,5.033020281,0.0209,4.38516353,
0.02092,1.744147634,0.02092,4.38516353,
0.02094,3.205868811,0.02094,4.38516353,
0.02096,4.302159693,0.02096,4.38516353,
0.02098,2.475008222,0.02098,4.38516353,
0.021,2.109577928,0.021,4.750593824,
0.02102,3.936729399,0.02102,4.019733236,
0.02104,2.840438516,0.02104,4.019733236,
0.02106,3.571299105,0.02106,4.750593824,
0.02108,2.109577928,0.02108,4.38516353,
0.0211,-0.08300383702,0.0211,4.019733236,
0.02112,3.571299105,0.02112,4.750593824,
0.02114,2.840438516,0.02114,4.38516353,
0.02116,1.37871734,0.02116,4.019733236,
0.02118,2.475008222,0.02118,4.750593824,
0.0212,2.475008222,0.0212,4.38516353,
0.02122,1.013287045,0.02122,4.38516353,
0.02124,1.37871734,0.02124,4.750593824,
0.02126,-0.8138644254,0.02126,4.019733236,
0.02128,-0.4484341312,0.02128,4.019733236,
0.0213,-0.08300383702,0.0213,5.116024118,
0.02132,-2.275585602,0.02132,4.019733236,
0.02134,-3.00644619,0.02134,4.019733236,
0.02136,-2.641015896,0.02136,4.750593824,
0.02138,-3.737306779,0.02138,4.750593824,
0.0214,-3.00644619,0.0214,4.019733236,
0.02142,-2.641015896,0.02142,5.116024118,
0.02144,-4.102737073,0.02144,4.38516353,
0.02146,-3.737306779,0.02146,4.38516353,
0.02148,-3.371876485,0.02148,4.750593824,
0.0215,-3.737306779,0.0215,4.38516353,
0.02152,-3.737306779,0.02152,4.38516353,
0.02154,-3.371876485,0.02154,4.750593824,
0.02156,-3.371876485,0.02156,4.019733236,
0.02158,-3.371876485,0.02158,4.38516353,
0.0216,-3.371876485,0.0216,4.750593824,
0.02162,-1.910155308,0.02162,4.019733236,
0.02164,-3.371876485,0.02164,4.38516353,
0.02166,-2.275585602,0.02166,4.750593824,
0.02168,-0.8138644254,0.02168,4.019733236,
0.0217,-1.910155308,0.0217,3.654302942,
0.02172,-0.8138644254,0.02172,4.750593824,
0.02174,-0.8138644254,0.02174,4.019733236,
0.02176,0.2824264572,0.02176,4.019733236,
0.02178,1.013287045,0.02178,4.38516353,
0.0218,2.109577928,0.0218,4.38516353,
0.02182,1.013287045,0.02182,4.019733236,
0.02184,1.013287045,0.02184,5.116024118,
0.02186,2.109577928,0.02186,3.654302942,
0.02188,3.205868811,0.02188,4.38516353,
0.0219,3.205868811,0.0219,5.481454413,
0.02192,3.205868811,0.02192,4.38516353,
0.02194,3.936729399,0.02194,4.019733236,
0.02196,3.571299105,0.02196,5.116024118,
0.02198,2.475008222,0.02198,4.019733236,
0.022,3.936729399,0.022,2.192581765,
0.02202,2.840438516,0.02202,4.750593824,
0.02204,0.6478567513,0.02204,4.019733236,
0.02206,2.475008222,0.02206,4.019733236,
0.02208,2.475008222,0.02208,4.38516353,
0.0221,1.37871734,0.0221,4.019733236,
0.02212,2.109577928,0.02212,4.019733236,
0.02214,2.109577928,0.02214,4.38516353,
0.02216,1.37871734,0.02216,4.38516353,
0.02218,-0.4484341312,0.02218,4.38516353,
0.0222,-0.08300383702,0.0222,6.212315001,
0.02222,-0.8138644254,0.02222,4.019733236,
0.02224,-1.17929472,0.02224,3.654302942,
0.02226,-2.641015896,0.02226,4.38516353,
0.02228,-3.737306779,0.02228,4.750593824,
0.0223,-1.544725014,0.0223,2.558012059,
0.02232,-3.737306779,0.02232,4.38516353,
0.02234,-3.00644619,0.02234,4.019733236,
0.02236,-7.026179426,0.02236,4.019733236,
0.02238,-3.00644619,0.02238,4.750593824,
0.0224,-3.371876485,0.0224,5.481454413,
0.02242,-3.371876485,0.02242,4.38516353,
0.02244,-2.275585602,0.02244,4.38516353,
0.02246,-3.371876485,0.02246,4.38516353,
0.02248,-3.737306779,0.02248,4.019733236,
0.0225,-4.833597661,0.0225,4.019733236,
0.02252,-4.468167367,0.02252,4.019733236,
0.02254,-0.8138644254,0.02254,4.750593824,
0.02256,-2.641015896,0.02256,4.019733236,
0.02258,-1.910155308,0.02258,4.38516353,
0.0226,-2.275585602,0.0226,4.750593824,
0.02262,-1.544725014,0.02262,4.750593824,
0.02264,0.6478567513,0.02264,4.019733236,
0.02266,1.013287045,0.02266,4.750593824,
0.02268,1.013287045,0.02268,4.750593824,
0.0227,1.744147634,0.0227,5.116024118,
0.02272,0.6478567513,0.02272,4.750593824,
0.02274,1.013287045,0.02274,5.116024118,
0.02276,3.205868811,0.02276,4.38516353,
0.02278,2.109577928,0.02278,4.38516353,
0.0228,2.840438516,0.0228,4.019733236,
0.02282,1.744147634,0.02282,4.019733236,
0.02284,3.205868811,0.02284,5.116024118,
0.02286,3.205868811,0.02286,4.38516353,
0.02288,3.936729399,0.02288,3.654302942,
0.0229,3.205868811,0.0229,4.019733236,
0.02292,3.205868811,0.02292,4.38516353,
0.02294,3.571299105,0.02294,4.38516353,
0.02296,1.744147634,0.02296,4.38516353,
0.02298,3.571299105,0.02298,4.38516353,
0.023,2.475008222,0.023,4.750593824,
0.02302,2.840438516,0.02302,4.750593824,
0.02304,2.109577928,0.02304,4.750593824,
0.02306,-0.4484341312,0.02306,4.019733236,
0.02308,1.37871734,0.02308,4.750593824,
0.0231,0.6478567513,0.0231,5.116024118,
0.02312,-0.4484341312,0.02312,4.38516353,
0.02314,0.2824264572,0.02314,4.38516353,
0.02316,-0.4484341312,0.02316,4.38516353,
0.02318,-0.8138644254,0.02318,4.750593824,
0.0232,-1.910155308,0.0232,4.38516353,
0.02322,-3.00644619,0.02322,4.38516353,
0.02324,-2.275585602,0.02324,3.654302942,
0.02326,-2.641015896,0.02326,4.750593824,
0.02328,-3.00644619,0.02328,4.38516353,
0.0233,-4.833597661,0.0233,4.38516353,
0.02332,-2.275585602,0.02332,4.750593824,
0.02334,-4.833597661,0.02334,5.116024118,
0.02336,-4.102737073,0.02336,4.38516353,
0.02338,-4.468167367,0.02338,4.38516353,
0.0234,-3.737306779,0.0234,4.750593824,
0.02342,-3.00644619,0.02342,3.654302942,
0.02344,-2.275585602,0.02344,4.38516353,
0.02346,-1.910155308,0.02346,4.38516353,
0.02348,-2.641015896,0.02348,4.38516353,
0.0235,-2.641015896,0.0235,4.750593824,
0.02352,-2.641015896,0.02352,4.750593824,
0.02354,-0.8138644254,0.02354,4.38516353,
0.02356,-0.4484341312,0.02356,4.38516353,
0.02358,-0.08300383702,0.02358,4.750593824,
0.0236,1.013287045,0.0236,4.750593824,
0.02362,0.2824264572,0.02362,4.750593824,
0.02364,0.2824264572,0.02364,4.750593824,
0.02366,1.013287045,0.02366,4.750593824,
0.02368,2.475008222,0.02368,4.750593824,
0.0237,2.475008222,0.0237,4.38516353,
0.02372,0.2824264572,0.02372,4.38516353,
0.02374,2.475008222,0.02374,4.38516353,
0.02376,3.571299105,0.02376,4.38516353,
0.02378,2.840438516,0.02378,4.38516353,
0.0238,3.936729399,0.0238,4.38516353,
0.02382,2.840438516,0.02382,4.38516353,
0.02384,4.667589987,0.02384,4.019733236,
0.02386,3.205868811,0.02386,4.750593824,
0.02388,3.571299105,0.02388,4.38516353,
0.0239,3.205868811,0.0239,4.38516353,
0.02392,3.205868811,0.02392,4.38516353,
0.02394,3.205868811,0.02394,4.38516353,
0.02396,3.205868811,0.02396,4.750593824,
0.02398,2.109577928,0.02398,4.750593824,
0.024,0.6478567513,0.024,4.750593824,
0.02402,-0.4484341312,0.02402,5.116024118,
0.02404,-0.08300383702,0.02404,4.750593824,
0.02406,0.2824264572,0.02406,4.38516353,
0.02408,-0.08300383702,0.02408,4.750593824,
0.0241,-1.910155308,0.0241,4.38516353,
0.02412,-1.910155308,0.02412,4.750593824,
0.02414,-2.641015896,0.02414,4.019733236,
0.02416,-1.17929472,0.02416,4.38516353,
0.02418,-2.641015896,0.02418,4.38516353,
0.0242,-0.8138644254,0.0242,4.38516353,
0.02422,-3.00644619,0.02422,4.750593824,
0.02424,-4.102737073,0.02424,4.019733236,
0.02426,-3.737306779,0.02426,4.38516353,
0.02428,-3.737306779,0.02428,4.38516353,
0.0243,-4.833597661,0.0243,4.38516353,
0.02432,-3.00644619,0.02432,4.019733236,
0.02434,-3.737306779,0.02434,4.750593824,
0.02436,-3.371876485,0.02436,4.38516353,
0.02438,-3.371876485,0.02438,4.38516353,
0.0244,-3.00644619,0.0244,4.38516353,
0.02442,-2.275585602,0.02442,4.019733236,
0.02444,-0.8138644254,0.02444,4.38516353,
0.02446,-1.544725014,0.02446,4.019733236,
0.02448,-2.275585602,0.02448,4.38516353,
0.0245,-0.4484341312,0.0245,4.38516353,
0.02452,0.2824264572,0.02452,4.019733236,
0.02454,1.744147634,0.02454,4.38516353,
0.02456,1.013287045,0.02456,4.38516353,
0.02458,1.013287045,0.02458,4.38516353,
0.0246,2.475008222,0.0246,4.38516353,
0.02462,1.37871734,0.02462,4.019733236,
0.02464,2.109577928,0.02464,4.38516353,
0.02466,2.109577928,0.02466,4.38516353,
0.02468,2.840438516,0.02468,4.38516353,
0.0247,3.205868811,0.0247,3.654302942,
0.02472,4.667589987,0.02472,4.019733236,
0.02474,1.37871734,0.02474,4.38516353,
0.02476,3.571299105,0.02476,4.019733236,
0.02478,5.033020281,0.02478,4.38516353,
0.0248,3.571299105,0.0248,4.019733236,
0.02482,2.475008222,0.02482,4.019733236,
0.02484,2.840438516,0.02484,3.654302942,
0.02486,3.205868811,0.02486,4.38516353,
0.02488,1.744147634,0.02488,4.019733236,
0.0249,1.744147634,0.0249,4.38516353,
0.02492,1.744147634,0.02492,4.38516353,
0.02494,1.013287045,0.02494,4.019733236,
0.02496,0.6478567513,0.02496,4.019733236,
0.02498,1.013287045,0.02498,4.750593824,
0.025,-1.544725014,0.025,3.654302942,
0.02502,-1.17929472,0.02502,3.288872648,
0.02504,-1.17929472,0.02504,4.38516353,
0.02506,-0.8138644254,0.02506,3.654302942,
0.02508,-3.00644619,0.02508,4.38516353,
0.0251,-4.468167367,0.0251,4.38516353,
0.02512,-2.641015896,0.02512,4.019733236,
0.02514,-3.00644619,0.02514,4.38516353,
0.02516,-2.641015896,0.02516,4.019733236,
0.02518,-3.371876485,0.02518,4.019733236,
0.0252,-4.468167367,0.0252,4.38516353,
0.02522,-3.737306779,0.02522,5.116024118,
0.02524,-3.371876485,0.02524,4.019733236,
0.02526,-3.00644619,0.02526,4.019733236,
0.02528,-3.00644619,0.02528,4.019733236,
0.0253,-3.737306779,0.0253,3.654302942,
0.02532,-2.641015896,0.02532,3.288872648,
0.02534,-1.910155308,0.02534,4.019733236,
0.02536,-1.17929472,0.02536,3.654302942,
0.02538,-1.17929472,0.02538,4.38516353,
0.0254,-1.17929472,0.0254,4.38516353,
0.02542,-2.275585602,0.02542,4.019733236,
0.02544,-0.8138644254,0.02544,4.38516353,
0.02546,0.6478567513,0.02546,4.38516353,
0.02548,1.013287045,0.02548,4.019733236,
0.0255,2.840438516,0.0255,4.38516353,
0.02552,1.744147634,0.02552,4.750593824,
0.02554,1.744147634,0.02554,3.654302942,
0.02556,2.840438516,0.02556,4.38516353,
0.02558,3.571299105,0.02558,4.38516353,
0.0256,3.571299105,0.0256,3.288872648,
0.02562,3.571299105,0.02562,2.923442353,
0.02564,3.571299105,0.02564,4.38516353,
0.02566,4.302159693,0.02566,3.288872648,
0.02568,3.936729399,0.02568,4.019733236,
0.0257,3.571299105,0.0257,4.38516353,
0.02572,2.840438516,0.02572,4.019733236,
0.02574,4.302159693,0.02574,4.019733236,
0.02576,3.205868811,0.02576,4.019733236,
0.02578,3.205868811,0.02578,4.019733236,
0.0258,3.936729399,0.0258,4.019733236,
0.02582,2.840438516,0.02582,5.481454413,
0.02584,2.475008222,0.02584,4.38516353,
0.02586,1.744147634,0.02586,4.38516353,
0.02588,2.109577928,0.02588,4.750593824,
0.0259,1.013287045,0.0259,4.38516353,
0.02592,-0.8138644254,0.02592,5.481454413,
0.02594,-0.08300383702,0.02594,4.38516353,
0.02596,-1.17929472,0.02596,4.750593824,
0.02598,-1.910155308,0.02598,4.750593824,
0.026,-0.8138644254,0.026,4.019733236,
0.02602,-1.910155308,0.02602,3.288872648,
0.02604,-3.00644619,0.02604,4.38516353,
0.02606,-1.544725014,0.02606,4.38516353,
0.02608,-2.275585602,0.02608,4.019733236,
0.0261,-5.199027955,0.0261,4.38516353,
0.02612,-3.737306779,0.02612,4.019733236,
0.02614,-4.833597661,0.02614,4.019733236,
0.02616,-3.371876485,0.02616,4.38516353,
0.02618,-4.833597661,0.02618,4.38516353,
0.0262,-3.737306779,0.0262,4.019733236,
0.02622,-2.275585602,0.02622,5.116024118,
0.02624,-3.371876485,0.02624,4.38516353,
0.02626,-4.833597661,0.02626,4.019733236,
0.02628,-2.275585602,0.02628,4.750593824,
0.0263,-1.910155308,0.0263,4.38516353,
0.02632,-1.17929472,0.02632,4.750593824,
0.02634,2.475008222,0.02634,4.38516353,
0.02636,-1.17929472,0.02636,4.38516353,
0.02638,-0.08300383702,0.02638,4.38516353,
0.0264,-0.8138644254,0.0264,4.38516353,
0.02642,-0.08300383702,0.02642,4.019733236,
0.02644,3.571299105,0.02644,4.019733236,
0.02646,0.2824264572,0.02646,4.38516353,
0.02648,1.744147634,0.02648,4.38516353,
0.0265,1.744147634,0.0265,4.38516353,
0.02652,1.744147634,0.02652,4.38516353,
0.02654,4.302159693,0.02654,4.38516353,
0.02656,3.936729399,0.02656,4.38516353,
0.02658,2.840438516,0.02658,5.481454413,
0.0266,3.571299105,0.0266,4.38516353,
0.02662,3.205868811,0.02662,3.654302942,
0.02664,3.936729399,0.02664,4.750593824,
0.02666,3.571299105,0.02666,4.38516353,
0.02668,3.571299105,0.02668,4.38516353,
0.0267,4.302159693,0.0267,4.750593824,
0.02672,0.6478567513,0.02672,4.019733236,
0.02674,1.013287045,0.02674,4.019733236,
0.02676,2.109577928,0.02676,4.750593824,
0.02678,2.109577928,0.02678,4.750593824,
0.0268,1.37871734,0.0268,4.38516353,
0.02682,1.013287045,0.02682,5.116024118,
0.02684,0.2824264572,0.02684,4.38516353,
0.02686,-1.544725014,0.02686,4.38516353,
0.02688,-0.08300383702,0.02688,4.750593824,
0.0269,-1.17929472,0.0269,4.38516353,
0.02692,-1.544725014,0.02692,4.019733236,
0.02694,-0.4484341312,0.02694,4.750593824,
0.02696,-1.910155308,0.02696,4.38516353,
0.02698,-1.544725014,0.02698,4.38516353,
0.027,-2.641015896,0.027,4.750593824,
0.02702,-3.371876485,0.02702,4.38516353,
0.02704,-2.641015896,0.02704,4.38516353,
0.02706,-3.00644619,0.02706,4.750593824,
0.02708,-4.102737073,0.02708,4.38516353,
0.0271,-4.833597661,0.0271,4.019733236,
0.02712,-3.371876485,0.02712,4.38516353,
0.02714,-4.833597661,0.02714,4.38516353,
0.02716,-2.641015896,0.02716,4.38516353,
0.02718,-4.102737073,0.02718,5.846884707,
0.0272,-3.00644619,0.0272,4.38516353,
0.02722,-1.544725014,0.02722,4.38516353,
0.02724,-0.08300383702,0.02724,5.116024118,
0.02726,-2.275585602,0.02726,4.38516353,
0.02728,-1.17929472,0.02728,4.38516353,
0.0273,-0.4484341312,0.0273,4.750593824,
0.02732,0.6478567513,0.02732,3.654302942,
0.02734,1.37871734,0.02734,4.019733236,
0.02736,0.2824264572,0.02736,4.019733236,
0.02738,2.109577928,0.02738,4.38516353,
0.0274,1.37871734,0.0274,4.019733236,
0.02742,1.744147634,0.02742,4.019733236,
0.02744,2.475008222,0.02744,4.38516353,
0.02746,3.205868811,0.02746,4.750593824,
0.02748,3.936729399,0.02748,4.019733236,
0.0275,3.571299105,0.0275,4.750593824,
0.02752,4.302159693,0.02752,4.019733236,
0.02754,1.37871734,0.02754,4.019733236,
0.02756,4.302159693,0.02756,4.019733236,
0.02758,3.571299105,0.02758,4.019733236,
0.0276,3.936729399,0.0276,4.019733236,
0.02762,3.936729399,0.02762,4.38516353,
0.02764,2.475008222,0.02764,4.019733236,
0.02766,2.840438516,0.02766,3.654302942,
0.02768,1.744147634,0.02768,4.750593824,
0.0277,2.475008222,0.0277,4.38516353,
0.02772,1.744147634,0.02772,4.38516353,
0.02774,1.37871734,0.02774,4.750593824,
0.02776,0.6478567513,0.02776,4.019733236,
0.02778,-0.08300383702,0.02778,3.654302942,
0.0278,-0.8138644254,0.0278,4.38516353,
0.02782,-0.8138644254,0.02782,4.019733236,
0.02784,0.2824264572,0.02784,4.019733236,
0.02786,-1.544725014,0.02786,4.019733236,
0.02788,-2.275585602,0.02788,4.019733236,
0.0279,-2.275585602,0.0279,4.019733236,
0.02792,-2.641015896,0.02792,4.38516353,
0.02794,-0.8138644254,0.02794,4.750593824,
0.02796,-3.00644619,0.02796,4.019733236,
0.02798,-3.371876485,0.02798,4.38516353,
0.028,-2.275585602,0.028,4.38516353,
0.02802,-4.833597661,0.02802,4.019733236,
0.02804,-1.544725014,0.02804,4.38516353,
0.02806,-3.00644619,0.02806,4.38516353,
0.02808,-3.371876485,0.02808,3.654302942,
0.0281,-2.275585602,0.0281,4.019733236,
0.02812,-2.641015896,0.02812,4.019733236,
0.02814,-3.00644619,0.02814,4.019733236,
0.02816,-1.544725014,0.02816,4.38516353,
0.02818,-1.17929472,0.02818,4.38516353,
0.0282,-1.544725014,0.0282,3.654302942,
0.02822,-0.8138644254,0.02822,4.38516353,
0.02824,0.6478567513,0.02824,4.38516353,
0.02826,-0.08300383702,0.02826,4.019733236,
0.02828,0.6478567513,0.02828,4.019733236,
0.0283,1.37871734,0.0283,4.38516353,
0.02832,2.475008222,0.02832,4.019733236,
0.02834,-0.08300383702,0.02834,4.38516353,
0.02836,2.475008222,0.02836,4.38516353,
0.02838,3.571299105,0.02838,4.38516353,
0.0284,3.205868811,0.0284,4.019733236,
0.02842,3.936729399,0.02842,4.019733236,
0.02844,2.475008222,0.02844,3.654302942,
0.02846,3.205868811,0.02846,4.019733236,
0.02848,2.840438516,0.02848,3.654302942,
0.0285,3.571299105,0.0285,4.019733236,
0.02852,3.936729399,0.02852,4.38516353,
0.02854,2.109577928,0.02854,4.38516353,
0.02856,2.475008222,0.02856,4.38516353,
0.02858,3.205868811,0.02858,4.38516353,
0.0286,2.109577928,0.0286,4.019733236,
0.02862,2.109577928,0.02862,4.019733236,
0.02864,1.37871734,0.02864,4.019733236,
0.02866,1.744147634,0.02866,4.019733236,
0.02868,0.2824264572,0.02868,3.654302942,
0.0287,1.013287045,0.0287,4.38516353,
0.02872,1.744147634,0.02872,4.38516353,
0.02874,-0.08300383702,0.02874,4.019733236,
0.02876,-0.08300383702,0.02876,4.38516353,
0.02878,-1.17929472,0.02878,4.019733236,
0.0288,-2.275585602,0.0288,4.019733236,
0.02882,-1.910155308,0.02882,4.019733236,
0.02884,-3.371876485,0.02884,4.750593824,
0.02886,-2.275585602,0.02886,3.654302942,
0.02888,-2.641015896,0.02888,4.019733236,
0.0289,-3.371876485,0.0289,4.38516353,
0.02892,-3.737306779,0.02892,4.019733236,
0.02894,-1.910155308,0.02894,4.38516353,
0.02896,-3.00644619,0.02896,4.019733236,
0.02898,-4.102737073,0.02898,3.654302942,
0.029,-3.371876485,0.029,4.38516353,
0.02902,-6.660749132,0.02902,4.38516353,
0.02904,-3.737306779,0.02904,3.654302942,
0.02906,-2.275585602,0.02906,4.750593824,
0.02908,-1.910155308,0.02908,4.750593824,
0.0291,-1.17929472,0.0291,4.019733236,
0.02912,-0.8138644254,0.02912,4.38516353,
0.02914,-0.8138644254,0.02914,4.38516353,
0.02916,-1.17929472,0.02916,4.019733236,
0.02918,1.744147634,0.02918,4.38516353,
0.0292,2.475008222,0.0292,4.019733236,
0.02922,-0.8138644254,0.02922,4.38516353,
0.02924,-0.8138644254,0.02924,4.019733236,
0.02926,1.37871734,0.02926,4.019733236,
0.02928,1.744147634,0.02928,4.750593824,
0.0293,2.840438516,0.0293,4.38516353,
0.02932,2.840438516,0.02932,4.019733236,
0.02934,2.109577928,0.02934,4.750593824,
0.02936,3.571299105,0.02936,4.38516353,
0.02938,1.37871734,0.02938,4.019733236,
0.0294,3.205868811,0.0294,4.750593824,
0.02942,3.936729399,0.02942,4.38516353,
0.02944,2.475008222,0.02944,4.750593824,
0.02946,3.936729399,0.02946,4.38516353,
0.02948,2.840438516,0.02948,4.38516353,
0.0295,0.6478567513,0.0295,4.019733236,
0.02952,2.840438516,0.02952,4.38516353,
0.02954,3.571299105,0.02954,4.750593824,
0.02956,1.37871734,0.02956,4.019733236,
0.02958,1.744147634,0.02958,4.750593824,
0.0296,1.013287045,0.0296,4.38516353,
0.02962,0.2824264572,0.02962,4.38516353,
0.02964,1.744147634,0.02964,4.019733236,
0.02966,1.013287045,0.02966,4.019733236,
0.02968,-0.4484341312,0.02968,4.019733236,
0.0297,-1.544725014,0.0297,4.750593824,
0.02972,-1.910155308,0.02972,4.38516353,
0.02974,-3.00644619,0.02974,4.38516353,
0.02976,-3.00644619,0.02976,3.288872648,
0.02978,-4.102737073,0.02978,4.38516353,
0.0298,-1.910155308,0.0298,4.38516353,
0.02982,-3.00644619,0.02982,4.750593824,
0.02984,-3.737306779,0.02984,3.654302942,
0.02986,-4.468167367,0.02986,4.38516353,
0.02988,0.2824264572,0.02988,5.116024118,
0.0299,-3.737306779,0.0299,4.38516353,
0.02992,-3.737306779,0.02992,4.019733236,
0.02994,-2.275585602,0.02994,5.116024118,
0.02996,-5.199027955,0.02996,4.38516353,
0.02998,-2.275585602,0.02998,4.38516353,
0.03,-2.275585602,0.03,5.116024118,
0.03002,-1.910155308,0.03002,4.019733236,
0.03004,-1.544725014,0.03004,5.481454413,
0.03006,-0.4484341312,0.03006,4.38516353,
0.03008,-1.17929472,0.03008,4.38516353,
0.0301,-0.4484341312,0.0301,4.38516353,
0.03012,1.013287045,0.03012,4.750593824,
0.03014,0.2824264572,0.03014,3.288872648,
0.03016,1.013287045,0.03016,4.38516353,
0.03018,1.744147634,0.03018,4.750593824,
0.0302,1.744147634,0.0302,4.38516353,
0.03022,2.840438516,0.03022,4.019733236,
0.03024,2.840438516,0.03024,2.923442353,
0.03026,2.840438516,0.03026,4.019733236,
0.03028,2.840438516,0.03028,4.38516353,
0.0303,4.667589987,0.0303,4.750593824,
0.03032,4.302159693,0.03032,4.38516353,
0.03034,2.840438516,0.03034,4.38516353,
0.03036,2.475008222,0.03036,4.750593824,
0.03038,3.936729399,0.03038,4.38516353,
0.0304,3.205868811,0.0304,4.019733236,
0.03042,3.205868811,0.03042,4.38516353,
0.03044,1.013287045,0.03044,4.750593824,
0.03046,2.109577928,0.03046,4.38516353,
0.03048,1.744147634,0.03048,4.750593824,
0.0305,2.109577928,0.0305,4.38516353,
0.03052,0.6478567513,0.03052,4.38516353,
0.03054,0.6478567513,0.03054,6.577745295,
0.03056,-1.544725014,0.03056,4.38516353,
0.03058,-0.4484341312,0.03058,4.019733236,
0.0306,-1.910155308,0.0306,4.38516353,
0.03062,1.013287045,0.03062,4.019733236,
0.03064,-0.8138644254,0.03064,2.558012059,
0.03066,-1.17929472,0.03066,4.750593824,
0.03068,-1.910155308,0.03068,4.38516353,
0.0307,-4.468167367,0.0307,4.38516353,
0.03072,-3.371876485,0.03072,4.750593824,
0.03074,-3.371876485,0.03074,5.481454413,
0.03076,-3.00644619,0.03076,4.019733236,
0.03078,-3.737306779,0.03078,4.750593824,
0.0308,-4.102737073,0.0308,4.750593824,
0.03082,-2.275585602,0.03082,3.654302942,
0.03084,-4.468167367,0.03084,5.481454413,
0.03086,-4.468167367,0.03086,4.38516353,
0.03088,-3.737306779,0.03088,4.750593824,
0.0309,-2.641015896,0.0309,4.750593824,
0.03092,-2.641015896,0.03092,4.38516353,
0.03094,-0.4484341312,0.03094,3.654302942,
0.03096,-1.544725014,0.03096,4.38516353,
0.03098,-1.17929472,0.03098,4.38516353,
0.031,-0.8138644254,0.031,4.750593824,
0.03102,-0.08300383702,0.03102,5.481454413,
0.03104,-0.08300383702,0.03104,3.654302942,
0.03106,3.936729399,0.03106,4.750593824,
0.03108,0.2824264572,0.03108,4.750593824,
0.0311,1.013287045,0.0311,4.750593824,
0.03112,1.37871734,0.03112,4.38516353,
0.03114,2.840438516,0.03114,5.481454413,
0.03116,1.744147634,0.03116,4.38516353,
0.03118,3.571299105,0.03118,4.750593824,
0.0312,3.571299105,0.0312,5.116024118,
0.03122,2.840438516,0.03122,5.116024118,
0.03124,3.936729399,0.03124,3.288872648,
0.03126,2.840438516,0.03126,4.750593824,
0.03128,3.571299105,0.03128,4.38516353,
0.0313,5.033020281,0.0313,4.38516353,
0.03132,2.475008222,0.03132,4.750593824,
0.03134,3.205868811,0.03134,4.019733236,
0.03136,4.302159693,0.03136,4.750593824,
0.03138,2.840438516,0.03138,5.116024118,
0.0314,2.109577928,0.0314,4.38516353,
0.03142,2.475008222,0.03142,4.019733236,
0.03144,1.37871734,0.03144,5.116024118,
0.03146,1.37871734,0.03146,4.38516353,
0.03148,-0.08300383702,0.03148,4.38516353,
0.0315,1.013287045,0.0315,4.750593824,
0.03152,-0.8138644254,0.03152,4.38516353,
0.03154,0.2824264572,0.03154,4.019733236,
0.03156,-0.4484341312,0.03156,4.38516353,
0.03158,-0.8138644254,0.03158,4.38516353,
0.0316,-1.17929472,0.0316,4.38516353,
0.03162,-3.00644619,0.03162,4.750593824,
0.03164,-3.00644619,0.03164,4.38516353,
0.03166,-1.910155308,0.03166,4.38516353,
0.03168,-2.641015896,0.03168,4.750593824,
0.0317,-3.737306779,0.0317,4.750593824,
0.03172,-2.641015896,0.03172,4.750593824,
0.03174,-3.00644619,0.03174,5.116024118,
0.03176,-3.00644619,0.03176,4.38516353,
0.03178,-3.00644619,0.03178,4.38516353,
0.0318,-3.371876485,0.0318,4.750593824,
0.03182,-3.737306779,0.03182,4.38516353,
0.03184,-3.00644619,0.03184,4.019733236,
0.03186,-3.371876485,0.03186,5.116024118,
0.03188,-3.00644619,0.03188,4.38516353,
0.0319,-2.275585602,0.0319,4.019733236,
0.03192,-1.544725014,0.03192,4.38516353,
0.03194,-1.910155308,0.03194,4.38516353,
0.03196,0.2824264572,0.03196,4.38516353,
0.03198,-0.8138644254,0.03198,4.750593824,
0.032,-0.4484341312,0.032,4.38516353,
0.03202,1.013287045,0.03202,4.38516353,
0.03204,2.109577928,0.03204,5.116024118,
0.03206,2.475008222,0.03206,4.38516353,
0.03208,2.109577928,0.03208,4.38516353,
0.0321,2.109577928,0.0321,4.750593824,
0.03212,1.013287045,0.03212,4.38516353,
0.03214,3.936729399,0.03214,4.019733236,
0.03216,3.571299105,0.03216,4.38516353,
0.03218,1.744147634,0.03218,4.019733236,
0.0322,3.936729399,0.0322,4.38516353,
0.03222,3.571299105,0.03222,5.116024118,
0.03224,2.840438516,0.03224,4.38516353,
0.03226,2.840438516,0.03226,4.38516353,
0.03228,3.571299105,0.03228,5.116024118,
0.0323,3.205868811,0.0323,4.38516353,
0.03232,2.840438516,0.03232,3.654302942,
0.03234,4.302159693,0.03234,4.750593824,
0.03236,2.109577928,0.03236,4.38516353,
0.03238,1.37871734,0.03238,4.38516353,
0.0324,1.37871734,0.0324,5.116024118,
0.03242,0.6478567513,0.03242,4.750593824,
0.03244,0.6478567513,0.03244,4.019733236,
0.03246,-0.4484341312,0.03246,4.750593824,
0.03248,-0.4484341312,0.03248,4.38516353,
0.0325,-1.544725014,0.0325,4.38516353,
0.03252,1.013287045,0.03252,4.750593824,
0.03254,-2.275585602,0.03254,4.38516353,
0.03256,-2.275585602,0.03256,4.38516353,
0.03258,-0.4484341312,0.03258,5.116024118,
0.0326,-3.371876485,0.0326,4.019733236,
0.03262,-4.102737073,0.03262,4.750593824,
0.03264,-3.371876485,0.03264,5.116024118,
0.03266,-3.737306779,0.03266,4.38516353,
0.03268,-3.371876485,0.03268,4.019733236,
0.0327,-3.371876485,0.0327,4.019733236,
0.03272,-3.737306779,0.03272,4.38516353,
0.03274,-4.102737073,0.03274,3.654302942,
0.03276,-4.102737073,0.03276,4.750593824,
0.03278,-3.00644619,0.03278,4.019733236,
0.0328,-2.641015896,0.0328,3.654302942,
0.03282,-2.275585602,0.03282,4.750593824,
0.03284,-2.275585602,0.03284,4.019733236,
0.03286,-4.468167367,0.03286,3.654302942,
0.03288,-1.910155308,0.03288,5.116024118,
0.0329,-1.17929472,0.0329,4.38516353,
0.03292,-0.08300383702,0.03292,4.38516353,
0.03294,0.6478567513,0.03294,5.116024118,
0.03296,1.37871734,0.03296,4.019733236,
0.03298,0.2824264572,0.03298,4.38516353,
0.033,1.013287045,0.033,5.116024118,
0.03302,1.744147634,0.03302,4.38516353,
0.03304,3.205868811,0.03304,4.38516353,
0.03306,2.109577928,0.03306,4.750593824,
0.03308,2.475008222,0.03308,4.38516353,
0.0331,2.840438516,0.0331,4.750593824,
0.03312,2.840438516,0.03312,4.750593824,
0.03314,3.571299105,0.03314,4.019733236,
0.03316,3.571299105,0.03316,4.38516353,
0.03318,3.571299105,0.03318,4.750593824,
0.0332,3.205868811,0.0332,4.019733236,
0.03322,2.109577928,0.03322,4.019733236,
0.03324,2.840438516,0.03324,4.38516353,
0.03326,2.109577928,0.03326,4.38516353,
0.03328,2.109577928,0.03328,4.019733236,
0.0333,1.744147634,0.0333,4.750593824,
0.03332,1.013287045,0.03332,4.38516353,
0.03334,1.744147634,0.03334,4.019733236,
0.03336,1.37871734,0.03336,4.38516353,
0.03338,-0.4484341312,0.03338,4.019733236,
0.0334,0.6478567513,0.0334,4.019733236,
0.03342,-0.8138644254,0.03342,4.38516353,
0.03344,-1.17929472,0.03344,4.38516353,
0.03346,-1.544725014,0.03346,5.116024118,
0.03348,-1.544725014,0.03348,4.750593824,
0.0335,-3.00644619,0.0335,4.38516353,
0.03352,-3.00644619,0.03352,4.019733236,
0.03354,-2.641015896,0.03354,4.750593824,
0.03356,-3.737306779,0.03356,4.019733236,
0.03358,-3.371876485,0.03358,4.750593824,
0.0336,-4.102737073,0.0336,4.750593824,
0.03362,-4.833597661,0.03362,4.019733236,
0.03364,-1.910155308,0.03364,4.019733236,
0.03366,-3.00644619,0.03366,4.019733236,
0.03368,-3.371876485,0.03368,4.019733236,
0.0337,-3.00644619,0.0337,4.019733236,
0.03372,-3.00644619,0.03372,4.38516353,
0.03374,-3.00644619,0.03374,4.38516353,
0.03376,-3.737306779,0.03376,4.019733236,
0.03378,-1.544725014,0.03378,4.750593824,
0.0338,1.744147634,0.0338,4.019733236,
0.03382,-0.8138644254,0.03382,4.019733236,
0.03384,-0.08300383702,0.03384,5.116024118,
0.03386,-0.08300383702,0.03386,5.116024118,
0.03388,-0.4484341312,0.03388,4.019733236,
0.0339,2.475008222,0.0339,4.38516353,
0.03392,1.37871734,0.03392,4.38516353,
0.03394,-0.08300383702,0.03394,4.019733236,
0.03396,3.571299105,0.03396,4.38516353,
0.03398,2.840438516,0.03398,4.38516353,
0.034,3.571299105,0.034,4.38516353,
0.03402,2.475008222,0.03402,4.750593824,
0.03404,1.744147634,0.03404,4.38516353,
0.03406,5.398450576,0.03406,5.116024118,
0.03408,3.936729399,0.03408,4.38516353,
0.0341,-0.8138644254,0.0341,4.38516353,
0.03412,4.302159693,0.03412,4.38516353,
0.03414,3.571299105,0.03414,4.750593824,
0.03416,2.475008222,0.03416,5.116024118,
0.03418,3.936729399,0.03418,4.019733236,
0.0342,3.936729399,0.0342,4.750593824,
0.03422,2.475008222,0.03422,4.750593824,
0.03424,1.744147634,0.03424,4.019733236,
0.03426,1.37871734,0.03426,4.019733236,
0.03428,1.37871734,0.03428,4.38516353,
0.0343,-0.08300383702,0.0343,4.019733236,
0.03432,-0.4484341312,0.03432,5.116024118,
0.03434,-0.8138644254,0.03434,4.38516353,
0.03436,-0.8138644254,0.03436,4.019733236,
0.03438,-3.371876485,0.03438,4.750593824,
0.0344,-3.00644619,0.0344,4.38516353,
0.03442,-3.00644619,0.03442,4.38516353,
0.03444,-2.641015896,0.03444,4.750593824,
0.03446,-2.275585602,0.03446,5.116024118,
0.03448,-3.737306779,0.03448,4.38516353,
0.0345,-3.00644619,0.0345,4.750593824,
0.03452,-3.737306779,0.03452,4.38516353,
0.03454,-3.00644619,0.03454,4.019733236,
0.03456,-3.371876485,0.03456,4.019733236,
0.03458,-2.275585602,0.03458,4.750593824,
0.0346,-4.102737073,0.0346,4.019733236,
0.03462,-3.371876485,0.03462,4.750593824,
0.03464,-3.737306779,0.03464,4.38516353,
0.03466,-4.102737073,0.03466,4.019733236,
0.03468,-4.468167367,0.03468,4.38516353,
0.0347,-1.544725014,0.0347,4.750593824,
0.03472,-1.17929472,0.03472,4.38516353,
0.03474,-1.910155308,0.03474,4.750593824,
0.03476,-1.17929472,0.03476,4.750593824,
0.03478,-0.4484341312,0.03478,4.38516353,
0.0348,0.2824264572,0.0348,4.750593824,
0.03482,0.6478567513,0.03482,4.750593824,
0.03484,1.744147634,0.03484,4.750593824,
0.03486,1.37871734,0.03486,4.38516353,
0.03488,2.475008222,0.03488,4.750593824,
0.0349,2.109577928,0.0349,4.38516353,
0.03492,2.840438516,0.03492,4.38516353,
0.03494,2.475008222,0.03494,4.750593824,
0.03496,0.6478567513,0.03496,4.019733236,
0.03498,2.475008222,0.03498,4.38516353,
0.035,2.840438516,0.035,4.750593824,
0.03502,3.205868811,0.03502,4.38516353,
0.03504,3.936729399,0.03504,4.38516353,
0.03506,3.571299105,0.03506,4.38516353,
0.03508,5.033020281,0.03508,4.38516353,
0.0351,3.205868811,0.0351,4.750593824,
0.03512,2.475008222,0.03512,4.750593824,
0.03514,1.744147634,0.03514,4.750593824,
0.03516,1.744147634,0.03516,4.750593824,
0.03518,1.744147634,0.03518,4.750593824,
0.0352,0.6478567513,0.0352,4.750593824,
0.03522,2.109577928,0.03522,4.750593824,
0.03524,0.2824264572,0.03524,4.38516353,
0.03526,0.6478567513,0.03526,4.019733236,
0.03528,-0.8138644254,0.03528,4.38516353,
0.0353,-1.910155308,0.0353,4.38516353,
0.03532,-1.544725014,0.03532,3.654302942,
0.03534,-1.910155308,0.03534,4.750593824,
0.03536,-3.00644619,0.03536,5.116024118,
0.03538,-2.641015896,0.03538,4.38516353,
0.0354,-3.371876485,0.0354,4.38516353,
0.03542,-3.00644619,0.03542,4.38516353,
0.03544,-3.00644619,0.03544,4.38516353,
0.03546,-3.371876485,0.03546,4.750593824,
0.03548,-2.275585602,0.03548,4.750593824,
0.0355,-3.371876485,0.0355,4.38516353,
0.03552,-4.468167367,0.03552,4.750593824,
0.03554,-3.371876485,0.03554,4.38516353,
0.03556,-3.371876485,0.03556,4.38516353,
0.03558,-1.544725014,0.03558,4.750593824,
0.0356,-3.371876485,0.0356,4.38516353,
0.03562,-1.910155308,0.03562,4.38516353,
0.03564,-1.544725014,0.03564,4.750593824,
0.03566,-1.544725014,0.03566,4.38516353,
0.03568,-1.17929472,0.03568,4.750593824,
0.0357,-0.4484341312,0.0357,4.38516353,
0.03572,0.2824264572,0.03572,4.38516353,
0.03574,2.840438516,0.03574,4.38516353,
0.03576,0.2824264572,0.03576,4.750593824,
0.03578,-0.4484341312,0.03578,4.38516353,
0.0358,1.744147634,0.0358,4.019733236,
0.03582,2.109577928,0.03582,5.116024118,
0.03584,2.840438516,0.03584,4.38516353,
0.03586,3.571299105,0.03586,4.38516353,
0.03588,2.109577928,0.03588,3.654302942,
0.0359,4.302159693,0.0359,4.019733236,
0.03592,4.667589987,0.03592,4.019733236,
0.03594,3.571299105,0.03594,3.654302942,
0.03596,4.667589987,0.03596,4.38516353,
0.03598,3.936729399,0.03598,4.38516353,
0.036,3.571299105,0.036,4.019733236,
0.03602,2.840438516,0.03602,3.654302942,
0.03604,3.571299105,0.03604,4.750593824,
0.03606,4.667589987,0.03606,4.38516353,
0.03608,5.033020281,0.03608,4.38516353,
0.0361,1.744147634,0.0361,3.288872648,
0.03612,1.37871734,0.03612,4.38516353,
0.03614,1.013287045,0.03614,5.116024118,
0.03616,-0.08300383702,0.03616,4.38516353,
0.03618,0.6478567513,0.03618,4.38516353,
0.0362,2.109577928,0.0362,4.38516353,
0.03622,-0.4484341312,0.03622,4.750593824,
0.03624,-2.275585602,0.03624,4.750593824,
0.03626,-1.910155308,0.03626,4.38516353,
0.03628,-1.910155308,0.03628,4.38516353,
0.0363,-2.641015896,0.0363,4.38516353,
0.03632,-3.00644619,0.03632,4.38516353,
0.03634,-3.371876485,0.03634,5.116024118,
0.03636,-3.00644619,0.03636,4.38516353,
0.03638,-4.102737073,0.03638,4.019733236,
0.0364,-3.737306779,0.0364,4.750593824,
0.03642,-4.833597661,0.03642,4.38516353,
0.03644,-3.371876485,0.03644,4.019733236,
0.03646,-3.371876485,0.03646,4.750593824,
0.03648,-2.641015896,0.03648,4.019733236,
0.0365,-3.371876485,0.0365,4.019733236,
0.03652,-3.00644619,0.03652,4.38516353,
0.03654,-4.468167367,0.03654,4.750593824,
0.03656,-2.275585602,0.03656,4.019733236,
0.03658,-3.371876485,0.03658,4.019733236,
0.0366,-1.17929472,0.0366,4.38516353,
0.03662,-1.544725014,0.03662,4.019733236,
0.03664,-0.4484341312,0.03664,4.750593824,
0.03666,0.2824264572,0.03666,4.38516353,
0.03668,-0.08300383702,0.03668,4.019733236,
0.0367,1.37871734,0.0367,4.750593824,
0.03672,2.475008222,0.03672,4.38516353,
0.03674,1.744147634,0.03674,4.019733236,
0.03676,2.109577928,0.03676,4.750593824,
0.03678,2.475008222,0.03678,4.019733236,
0.0368,3.571299105,0.0368,4.019733236,
0.03682,3.936729399,0.03682,4.750593824,
0.03684,3.936729399,0.03684,4.019733236,
0.03686,3.571299105,0.03686,4.750593824,
0.03688,3.936729399,0.03688,3.654302942,
0.0369,4.667589987,0.0369,4.019733236,
0.03692,3.571299105,0.03692,4.750593824,
0.03694,2.475008222,0.03694,4.38516353,
0.03696,3.571299105,0.03696,4.38516353,
0.03698,5.398450576,0.03698,5.846884707,
0.037,1.744147634,0.037,4.38516353,
0.03702,3.205868811,0.03702,4.019733236,
0.03704,-0.8138644254,0.03704,5.116024118,
0.03706,1.37871734,0.03706,4.38516353,
0.03708,1.37871734,0.03708,4.38516353,
0.0371,0.6478567513,0.0371,4.38516353,
0.03712,-0.8138644254,0.03712,4.38516353,
0.03714,-0.8138644254,0.03714,4.38516353,
0.03716,-1.17929472,0.03716,4.38516353,
0.03718,-2.275585602,0.03718,3.654302942,
0.0372,-2.275585602,0.0372,4.38516353,
0.03722,-2.641015896,0.03722,4.38516353,
0.03724,-5.199027955,0.03724,4.750593824,
0.03726,-3.00644619,0.03726,4.38516353,
0.03728,-3.737306779,0.03728,5.116024118,
0.0373,-4.102737073,0.0373,4.38516353,
0.03732,-2.275585602,0.03732,4.38516353,
0.03734,-3.737306779,0.03734,4.38516353,
0.03736,-1.910155308,0.03736,4.38516353,
0.03738,-3.737306779,0.03738,5.481454413,
0.0374,-4.468167367,0.0374,4.38516353,
0.03742,-3.737306779,0.03742,4.019733236,
0.03744,-3.00644619,0.03744,4.38516353,
0.03746,-3.00644619,0.03746,4.750593824,
0.03748,-1.17929472,0.03748,2.558012059,
0.0375,-1.17929472,0.0375,4.38516353,
0.03752,-1.17929472,0.03752,4.750593824,
0.03754,-2.641015896,0.03754,4.38516353,
0.03756,-0.4484341312,0.03756,4.38516353,
0.03758,-0.8138644254,0.03758,3.654302942,
0.0376,0.6478567513,0.0376,4.750593824,
0.03762,-1.17929472,0.03762,4.38516353,
0.03764,1.744147634,0.03764,4.750593824,
0.03766,1.37871734,0.03766,4.38516353,
0.03768,2.475008222,0.03768,4.750593824,
0.0377,3.571299105,0.0377,4.750593824,
0.03772,2.109577928,0.03772,4.750593824,
0.03774,3.205868811,0.03774,4.38516353,
0.03776,3.205868811,0.03776,4.750593824,
0.03778,2.109577928,0.03778,5.846884707,
0.0378,3.205868811,0.0378,4.019733236,
0.03782,4.667589987,0.03782,5.116024118,
0.03784,5.76388087,0.03784,4.38516353,
0.03786,3.205868811,0.03786,4.019733236,
0.03788,3.205868811,0.03788,4.019733236,
0.0379,2.109577928,0.0379,4.750593824,
0.03792,2.475008222,0.03792,4.38516353,
0.03794,2.475008222,0.03794,4.38516353,
0.03796,2.475008222,0.03796,4.38516353,
0.03798,1.744147634,0.03798,3.654302942,
0.038,1.744147634,0.038,4.750593824,
0.03802,0.2824264572,0.03802,4.38516353,
0.03804,0.2824264572,0.03804,4.38516353,
0.03806,-0.8138644254,0.03806,4.38516353,
0.03808,-0.8138644254,0.03808,5.481454413,
0.0381,-1.17929472,0.0381,4.38516353,
0.03812,-0.8138644254,0.03812,4.38516353,
0.03814,-2.641015896,0.03814,4.019733236,
0.03816,-2.641015896,0.03816,4.019733236,
0.03818,-2.275585602,0.03818,3.654302942,
0.0382,-3.737306779,0.0382,4.38516353,
0.03822,-3.371876485,0.03822,4.38516353,
0.03824,-5.199027955,0.03824,5.116024118,
0.03826,-4.102737073,0.03826,4.38516353,
0.03828,-3.737306779,0.03828,4.019733236,
0.0383,-2.641015896,0.0383,4.750593824,
0.03832,-4.468167367,0.03832,3.654302942,
0.03834,-3.737306779,0.03834,4.019733236,
0.03836,-2.641015896,0.03836,5.116024118,
0.03838,-2.275585602,0.03838,5.481454413,
0.0384,-3.00644619,0.0384,4.019733236,
0.03842,-4.102737073,0.03842,4.750593824,
0.03844,-0.4484341312,0.03844,4.38516353,
0.03846,-1.17929472,0.03846,4.38516353,
0.03848,-0.8138644254,0.03848,4.38516353,
0.0385,-1.544725014,0.0385,4.38516353,
0.03852,-0.08300383702,0.03852,4.38516353,
0.03854,0.6478567513,0.03854,4.750593824,
0.03856,0.2824264572,0.03856,4.38516353,
0.03858,2.475008222,0.03858,3.654302942,
0.0386,1.744147634,0.0386,4.38516353,
0.03862,1.37871734,0.03862,4.38516353,
0.03864,5.033020281,0.03864,4.38516353,
0.03866,3.571299105,0.03866,4.750593824,
0.03868,3.571299105,0.03868,4.750593824,
0.0387,4.302159693,0.0387,4.38516353,
0.03872,4.302159693,0.03872,4.38516353,
0.03874,5.76388087,0.03874,4.38516353,
0.03876,3.936729399,0.03876,4.38516353,
0.03878,3.205868811,0.03878,4.019733236,
0.0388,2.109577928,0.0388,4.750593824,
0.03882,2.840438516,0.03882,4.019733236,
0.03884,3.205868811,0.03884,4.019733236,
0.03886,3.571299105,0.03886,4.38516353,
0.03888,1.37871734,0.03888,3.654302942,
0.0389,1.013287045,0.0389,4.019733236,
0.03892,2.109577928,0.03892,4.750593824,
0.03894,2.475008222,0.03894,4.38516353,
0.03896,0.6478567513,0.03896,3.654302942,
0.03898,0.2824264572,0.03898,4.38516353,
0.039,-0.08300383702,0.039,4.38516353,
0.03902,-1.544725014,0.03902,4.019733236,
0.03904,-0.8138644254,0.03904,4.019733236,
0.03906,-0.8138644254,0.03906,4.019733236,
0.03908,-2.275585602,0.03908,4.38516353,
0.0391,-1.544725014,0.0391,4.019733236,
0.03912,-3.00644619,0.03912,4.019733236,
0.03914,-4.102737073,0.03914,4.019733236,
0.03916,-3.00644619,0.03916,4.38516353,
0.03918,-2.641015896,0.03918,4.38516353,
0.0392,-3.371876485,0.0392,4.019733236,
0.03922,-3.00644619,0.03922,4.38516353,
0.03924,-3.371876485,0.03924,4.019733236,
0.03926,-4.102737073,0.03926,4.019733236,
0.03928,-2.641015896,0.03928,4.019733236,
0.0393,-4.102737073,0.0393,4.38516353,
0.03932,-3.00644619,0.03932,3.654302942,
0.03934,-5.199027955,0.03934,4.38516353,
0.03936,-1.910155308,0.03936,4.019733236,
0.03938,-1.544725014,0.03938,3.654302942,
0.0394,-0.8138644254,0.0394,4.38516353,
0.03942,0.6478567513,0.03942,4.019733236,
0.03944,-0.08300383702,0.03944,4.38516353,
0.03946,0.2824264572,0.03946,4.38516353,
0.03948,0.6478567513,0.03948,4.750593824,
0.0395,1.37871734,0.0395,4.019733236,
0.03952,1.37871734,0.03952,4.38516353,
0.03954,2.475008222,0.03954,4.38516353,
0.03956,5.398450576,0.03956,4.019733236,
0.03958,2.840438516,0.03958,4.38516353,
0.0396,3.936729399,0.0396,4.019733236,
0.03962,3.205868811,0.03962,4.019733236,
0.03964,3.571299105,0.03964,4.019733236,
0.03966,4.667589987,0.03966,4.38516353,
0.03968,3.205868811,0.03968,3.654302942,
0.0397,3.571299105,0.0397,4.38516353,
0.03972,5.76388087,0.03972,4.019733236,
0.03974,3.571299105,0.03974,3.654302942,
0.03976,3.205868811,0.03976,4.38516353,
0.03978,3.205868811,0.03978,4.019733236,
0.0398,2.475008222,0.0398,3.654302942,
0.03982,3.205868811,0.03982,4.38516353,
0.03984,2.840438516,0.03984,4.019733236,
0.03986,2.109577928,0.03986,3.654302942,
0.03988,0.6478567513,0.03988,4.019733236,
0.0399,1.013287045,0.0399,4.38516353,
0.03992,0.2824264572,0.03992,3.654302942,
0.03994,-0.8138644254,0.03994,4.38516353,
0.03996,-3.00644619,0.03996,4.019733236,
0.03998,-1.910155308,0.03998,4.019733236,
0.04,0.2824264572,0.04,4.019733236,
0.04002,-2.275585602,0.04002,4.38516353,
0.04004,-3.737306779,0.04004,3.654302942,
0.04006,-1.910155308,0.04006,4.38516353,
0.04008,-3.737306779,0.04008,4.38516353,
0.0401,-3.371876485,0.0401,3.654302942,
0.04012,-3.371876485,0.04012,4.38516353,
0.04014,-4.102737073,0.04014,4.019733236,
0.04016,-2.641015896,0.04016,4.019733236,
0.04018,-2.275585602,0.04018,4.38516353,
0.0402,-2.641015896,0.0402,4.019733236,
0.04022,-2.641015896,0.04022,4.019733236,
0.04024,-2.641015896,0.04024,4.019733236,
0.04026,-2.275585602,0.04026,4.750593824,
0.04028,-3.00644619,0.04028,4.019733236,
0.0403,-1.910155308,0.0403,5.116024118,
0.04032,-0.4484341312,0.04032,4.019733236,
0.04034,-0.8138644254,0.04034,3.654302942,
0.04036,-0.08300383702,0.04036,4.38516353,
0.04038,-0.8138644254,0.04038,4.019733236,
0.0404,0.6478567513,0.0404,3.288872648,
0.04042,1.37871734,0.04042,4.38516353,
0.04044,2.109577928,0.04044,4.019733236,
0.04046,3.205868811,0.04046,4.019733236,
0.04048,2.840438516,0.04048,4.38516353,
0.0405,2.109577928,0.0405,4.750593824,
0.04052,3.571299105,0.04052,3.654302942,
0.04054,2.475008222,0.04054,4.38516353,
0.04056,4.302159693,0.04056,4.019733236,
0.04058,3.936729399,0.04058,4.38516353,
0.0406,4.302159693,0.0406,4.38516353,
0.04062,5.76388087,0.04062,5.481454413,
0.04064,3.571299105,0.04064,4.019733236,
0.04066,2.475008222,0.04066,4.38516353,
0.04068,1.013287045,0.04068,4.019733236,
0.0407,3.205868811,0.0407,3.654302942,
0.04072,0.6478567513,0.04072,4.019733236,
0.04074,2.475008222,0.04074,4.38516353,
0.04076,1.37871734,0.04076,4.750593824,
0.04078,1.37871734,0.04078,4.019733236,
0.0408,1.744147634,0.0408,4.750593824,
0.04082,2.109577928,0.04082,5.116024118,
0.04084,0.2824264572,0.04084,4.38516353,
0.04086,-1.17929472,0.04086,4.019733236,
0.04088,-1.544725014,0.04088,5.116024118,
0.0409,-2.275585602,0.0409,4.750593824,
0.04092,-0.8138644254,0.04092,4.38516353,
0.04094,-1.544725014,0.04094,4.38516353,
0.04096,-3.00644619,0.04096,4.38516353,
0.04098,-3.737306779,0.04098,4.38516353,
0.041,-1.17929472,0.041,4.750593824,
0.04102,-1.910155308,0.04102,4.750593824,
0.04104,-4.102737073,0.04104,4.019733236,
0.04106,-3.00644619,0.04106,4.750593824,
0.04108,-4.102737073,0.04108,4.019733236,
0.0411,-3.737306779,0.0411,3.288872648,
0.04112,-1.910155308,0.04112,4.019733236,
0.04114,-2.641015896,0.04114,4.019733236,
0.04116,-3.00644619,0.04116,4.019733236,
0.04118,-2.275585602,0.04118,4.019733236,
0.0412,-2.641015896,0.0412,4.38516353,
0.04122,-3.00644619,0.04122,4.750593824,
0.04124,-0.4484341312,0.04124,4.38516353,
0.04126,-0.8138644254,0.04126,4.38516353,
0.04128,-0.4484341312,0.04128,4.38516353,
0.0413,-0.8138644254,0.0413,4.38516353,
0.04132,0.6478567513,0.04132,4.38516353,
0.04134,2.475008222,0.04134,4.019733236,
0.04136,1.013287045,0.04136,4.38516353,
0.04138,3.936729399,0.04138,4.38516353,
0.0414,2.109577928,0.0414,3.288872648,
0.04142,1.37871734,0.04142,4.019733236,
0.04144,2.475008222,0.04144,4.38516353,
0.04146,2.475008222,0.04146,4.38516353,
0.04148,2.475008222,0.04148,4.38516353,
0.0415,3.936729399,0.0415,4.750593824,
0.04152,5.76388087,0.04152,4.750593824,
0.04154,3.571299105,0.04154,4.019733236,
0.04156,2.840438516,0.04156,4.38516353,
0.04158,2.840438516,0.04158,5.116024118,
0.0416,3.205868811,0.0416,4.019733236,
0.04162,3.571299105,0.04162,3.288872648,
0.04164,4.302159693,0.04164,4.750593824,
0.04166,2.840438516,0.04166,4.019733236,
0.04168,3.205868811,0.04168,4.38516353,
0.0417,2.109577928,0.0417,4.019733236,
0.04172,0.2824264572,0.04172,3.654302942,
0.04174,0.2824264572,0.04174,4.38516353,
0.04176,2.840438516,0.04176,4.750593824,
0.04178,-2.275585602,0.04178,4.019733236,
0.0418,-0.4484341312,0.0418,4.750593824,
0.04182,0.2824264572,0.04182,4.019733236,
0.04184,0.2824264572,0.04184,4.019733236,
0.04186,-1.544725014,0.04186,4.38516353,
0.04188,-1.544725014,0.04188,4.019733236,
0.0419,-2.275585602,0.0419,3.654302942,
0.04192,-1.544725014,0.04192,4.750593824,
0.04194,-2.641015896,0.04194,4.38516353,
0.04196,-3.371876485,0.04196,4.019733236,
0.04198,-3.737306779,0.04198,4.38516353,
0.042,-3.00644619,0.042,4.38516353,
0.04202,-4.468167367,0.04202,4.38516353,
0.04204,-3.00644619,0.04204,4.38516353,
0.04206,-3.371876485,0.04206,4.38516353,
0.04208,-3.00644619,0.04208,4.019733236,
0.0421,-1.910155308,0.0421,4.019733236,
0.04212,-4.468167367,0.04212,4.38516353,
0.04214,-2.275585602,0.04214,4.019733236,
0.04216,-1.910155308,0.04216,4.38516353,
0.04218,-1.544725014,0.04218,4.019733236,
0.0422,-0.4484341312,0.0422,4.38516353,
0.04222,1.37871734,0.04222,4.38516353,
0.04224,-0.4484341312,0.04224,4.019733236,
0.04226,-1.17929472,0.04226,3.654302942,
0.04228,1.013287045,0.04228,4.38516353,
0.0423,1.37871734,0.0423,4.38516353,
0.04232,1.744147634,0.04232,3.654302942,
0.04234,2.840438516,0.04234,4.38516353,
0.04236,2.840438516,0.04236,4.019733236,
0.04238,0.2824264572,0.04238,3.654302942,
0.0424,3.571299105,0.0424,4.750593824,
0.04242,2.109577928,0.04242,4.38516353,
0.04244,3.571299105,0.04244,4.019733236,
0.04246,1.744147634,0.04246,4.38516353,
0.04248,3.936729399,0.04248,4.38516353,
0.0425,4.302159693,0.0425,4.750593824,
0.04252,4.302159693,0.04252,4.019733236,
0.04254,2.475008222,0.04254,4.38516353,
0.04256,2.840438516,0.04256,4.019733236,
0.04258,2.840438516,0.04258,3.654302942,
0.0426,2.840438516,0.0426,4.019733236,
0.04262,4.667589987,0.04262,4.019733236,
0.04264,4.302159693,0.04264,4.750593824,
0.04266,1.744147634,0.04266,4.38516353,
0.04268,1.013287045,0.04268,3.654302942,
0.0427,0.2824264572,0.0427,4.38516353,
0.04272,1.013287045,0.04272,4.38516353,
0.04274,-1.910155308,0.04274,4.38516353,
0.04276,-1.17929472,0.04276,4.38516353,
0.04278,-1.544725014,0.04278,4.38516353,
0.0428,-4.102737073,0.0428,4.019733236,
0.04282,-3.00644619,0.04282,4.019733236,
0.04284,-1.910155308,0.04284,4.38516353,
0.04286,-3.00644619,0.04286,4.38516353,
0.04288,-3.371876485,0.04288,4.38516353,
0.0429,-2.641015896,0.0429,4.38516353,
0.04292,-4.468167367,0.04292,3.654302942,
0.04294,-3.371876485,0.04294,4.38516353,
0.04296,-2.641015896,0.04296,4.750593824,
0.04298,-4.468167367,0.04298,3.654302942,
0.043,-3.737306779,0.043,4.38516353,
0.04302,-6.295318838,0.04302,4.38516353,
0.04304,-2.641015896,0.04304,3.654302942,
0.04306,-2.641015896,0.04306,4.38516353,
0.04308,-2.641015896,0.04308,4.019733236,
0.0431,-2.275585602,0.0431,3.654302942,
0.04312,-0.8138644254,0.04312,4.019733236,
0.04314,-0.4484341312,0.04314,4.38516353,
0.04316,-0.8138644254,0.04316,3.654302942,
0.04318,-0.4484341312,0.04318,4.019733236,
0.0432,1.37871734,0.0432,4.750593824,
0.04322,3.571299105,0.04322,3.654302942,
0.04324,1.744147634,0.04324,4.38516353,
0.04326,2.840438516,0.04326,4.38516353,
0.04328,1.013287045,0.04328,4.019733236,
0.0433,2.475008222,0.0433,4.38516353,
0.04332,2.840438516,0.04332,4.38516353,
0.04334,3.205868811,0.04334,4.019733236,
0.04336,2.109577928,0.04336,4.38516353,
0.04338,4.302159693,0.04338,4.38516353,
0.0434,4.302159693,0.0434,3.654302942,
0.04342,3.205868811,0.04342,4.019733236,
0.04344,3.936729399,0.04344,4.019733236,
0.04346,3.571299105,0.04346,3.654302942,
0.04348,5.76388087,0.04348,4.38516353,
0.0435,2.475008222,0.0435,4.019733236,
0.04352,2.840438516,0.04352,4.019733236,
0.04354,1.013287045,0.04354,4.750593824,
0.04356,1.744147634,0.04356,4.38516353,
0.04358,1.013287045,0.04358,4.019733236,
0.0436,1.013287045,0.0436,4.38516353,
0.04362,1.37871734,0.04362,4.019733236,
0.04364,-0.08300383702,0.04364,4.019733236,
0.04366,-1.910155308,0.04366,4.38516353,
0.04368,-1.910155308,0.04368,4.38516353,
0.0437,-0.8138644254,0.0437,4.38516353,
0.04372,-1.544725014,0.04372,5.116024118,
0.04374,-2.641015896,0.04374,4.38516353,
0.04376,-3.00644619,0.04376,4.019733236,
0.04378,-1.910155308,0.04378,5.846884707,
0.0438,-3.737306779,0.0438,4.38516353,
0.04382,-4.833597661,0.04382,4.750593824,
0.04384,-4.102737073,0.04384,4.750593824,
0.04386,-4.102737073,0.04386,4.019733236,
0.04388,-3.371876485,0.04388,4.019733236,
0.0439,-4.468167367,0.0439,4.750593824,
0.04392,-2.641015896,0.04392,3.654302942,
0.04394,-4.102737073,0.04394,4.019733236,
0.04396,-3.371876485,0.04396,4.750593824,
0.04398,-3.737306779,0.04398,4.019733236,
0.044,-2.641015896,0.044,4.38516353,
0.04402,-1.544725014,0.04402,5.481454413,
0.04404,-3.737306779,0.04404,4.750593824,
0.04406,-0.8138644254,0.04406,4.019733236,
0.04408,-1.544725014,0.04408,4.750593824,
0.0441,-0.8138644254,0.0441,4.019733236,
0.04412,-1.910155308,0.04412,3.654302942,
0.04414,1.013287045,0.04414,4.750593824,
0.04416,0.6478567513,0.04416,4.019733236,
0.04418,2.109577928,0.04418,4.019733236,
0.0442,2.109577928,0.0442,4.750593824,
0.04422,0.2824264572,0.04422,2.923442353,
0.04424,2.109577928,0.04424,3.654302942,
0.04426,3.205868811,0.04426,4.750593824,
0.04428,3.205868811,0.04428,4.38516353,
0.0443,2.840438516,0.0443,4.38516353,
0.04432,2.840438516,0.04432,5.481454413,
0.04434,4.667589987,0.04434,4.019733236,
0.04436,3.571299105,0.04436,4.019733236,
0.04438,2.840438516,0.04438,4.750593824,
0.0444,2.840438516,0.0444,4.38516353,
0.04442,5.398450576,0.04442,3.288872648,
0.04444,1.37871734,0.04444,4.750593824,
0.04446,2.109577928,0.04446,4.38516353,
0.04448,0.6478567513,0.04448,4.019733236,
0.0445,2.109577928,0.0445,5.116024118,
0.04452,1.744147634,0.04452,2.923442353,
0.04454,1.013287045,0.04454,4.019733236,
0.04456,-0.08300383702,0.04456,4.38516353,
0.04458,-1.910155308,0.04458,4.38516353,
0.0446,-0.4484341312,0.0446,4.38516353,
0.04462,-0.8138644254,0.04462,4.38516353,
0.04464,-1.17929472,0.04464,4.38516353,
0.04466,-1.910155308,0.04466,4.019733236,
0.04468,-2.641015896,0.04468,4.750593824,
0.0447,-3.00644619,0.0447,4.38516353,
0.04472,-4.833597661,0.04472,5.116024118,
0.04474,-4.833597661,0.04474,4.750593824,
0.04476,-4.102737073,0.04476,4.38516353,
0.04478,-3.371876485,0.04478,4.019733236,
0.0448,-3.00644619,0.0448,4.750593824,
0.04482,-4.833597661,0.04482,4.38516353,
0.04484,-4.468167367,0.04484,4.019733236,
0.04486,-3.737306779,0.04486,5.116024118,
0.04488,-4.102737073,0.04488,4.38516353,
0.0449,-3.371876485,0.0449,4.019733236,
0.04492,-2.641015896,0.04492,4.019733236,
0.04494,-1.17929472,0.04494,4.019733236,
0.04496,-2.275585602,0.04496,4.019733236,
0.04498,-0.4484341312,0.04498,4.38516353,
0.045,-1.17929472,0.045,4.750593824,
0.04502,-0.4484341312,0.04502,3.654302942,
0.04504,3.205868811,0.04504,4.750593824,
0.04506,-1.544725014,0.04506,4.019733236,
0.04508,0.2824264572,0.04508,3.288872648,
0.0451,1.37871734,0.0451,4.750593824,
0.04512,1.37871734,0.04512,4.750593824,
0.04514,2.475008222,0.04514,4.019733236,
0.04516,1.744147634,0.04516,4.750593824,
0.04518,1.744147634,0.04518,4.750593824,
0.0452,2.840438516,0.0452,3.654302942,
0.04522,6.494741458,0.04522,5.846884707,
0.04524,2.475008222,0.04524,4.750593824,
0.04526,3.571299105,0.04526,4.019733236,
0.04528,1.744147634,0.04528,4.750593824,
0.0453,3.936729399,0.0453,3.654302942,
0.04532,3.571299105,0.04532,4.38516353,
0.04534,1.37871734,0.04534,5.116024118,
0.04536,2.109577928,0.04536,4.019733236,
0.04538,2.109577928,0.04538,3.288872648,
0.0454,1.37871734,0.0454,4.750593824,
0.04542,1.744147634,0.04542,3.288872648,
0.04544,0.6478567513,0.04544,4.750593824,
0.04546,1.013287045,0.04546,5.116024118,
0.04548,1.013287045,0.04548,4.38516353,
0.0455,-1.17929472,0.0455,4.750593824,
0.04552,-0.8138644254,0.04552,4.750593824,
0.04554,1.013287045,0.04554,4.019733236,
0.04556,-2.641015896,0.04556,5.481454413,
0.04558,-2.275585602,0.04558,4.750593824,
0.0456,-1.544725014,0.0456,4.38516353,
0.04562,-1.910155308,0.04562,5.116024118,
0.04564,-3.371876485,0.04564,4.38516353,
0.04566,-3.00644619,0.04566,4.38516353,
0.04568,-2.641015896,0.04568,4.750593824,
0.0457,-3.737306779,0.0457,4.750593824,
0.04572,-0.08300383702,0.04572,4.750593824,
0.04574,-3.737306779,0.04574,4.750593824,
0.04576,-4.833597661,0.04576,4.38516353,
0.04578,-3.00644619,0.04578,4.38516353,
0.0458,-4.102737073,0.0458,4.38516353,
0.04582,-3.737306779,0.04582,4.38516353,
0.04584,-0.8138644254,0.04584,4.019733236,
0.04586,-2.275585602,0.04586,4.750593824,
0.04588,-3.371876485,0.04588,4.38516353,
0.0459,-2.641015896,0.0459,4.750593824,
0.04592,-0.08300383702,0.04592,4.019733236,
0.04594,-0.08300383702,0.04594,4.38516353,
0.04596,-1.17929472,0.04596,4.38516353,
0.04598,1.744147634,0.04598,4.750593824,
0.046,1.013287045,0.046,5.116024118,
0.04602,0.6478567513,0.04602,4.38516353,
0.04604,2.109577928,0.04604,4.38516353,
0.04606,0.6478567513,0.04606,4.750593824,
0.04608,2.840438516,0.04608,4.38516353,
0.0461,1.744147634,0.0461,4.38516353,
0.04612,2.109577928,0.04612,4.38516353,
0.04614,3.205868811,0.04614,4.38516353,
0.04616,4.302159693,0.04616,4.750593824,
0.04618,2.475008222,0.04618,4.38516353,
0.0462,3.936729399,0.0462,4.38516353,
0.04622,3.205868811,0.04622,4.750593824,
0.04624,4.302159693,0.04624,4.38516353,
0.04626,3.205868811,0.04626,4.38516353,
0.04628,6.494741458,0.04628,4.38516353,
0.0463,3.571299105,0.0463,4.38516353,
0.04632,2.109577928,0.04632,5.116024118,
0.04634,1.744147634,0.04634,3.654302942,
0.04636,2.109577928,0.04636,4.019733236,
0.04638,1.37871734,0.04638,4.019733236,
0.0464,1.744147634,0.0464,4.38516353,
0.04642,0.2824264572,0.04642,4.38516353,
0.04644,0.6478567513,0.04644,4.38516353,
0.04646,-0.08300383702,0.04646,4.38516353,
0.04648,0.2824264572,0.04648,4.750593824,
0.0465,-0.8138644254,0.0465,4.019733236,
0.04652,-2.275585602,0.04652,4.38516353,
0.04654,-1.910155308,0.04654,4.750593824,
0.04656,-0.8138644254,0.04656,4.38516353,
0.04658,-3.371876485,0.04658,4.750593824,
0.0466,-3.737306779,0.0466,5.116024118,
0.04662,-3.00644619,0.04662,4.019733236,
0.04664,-1.544725014,0.04664,4.019733236,
0.04666,-4.833597661,0.04666,5.116024118,
0.04668,-3.737306779,0.04668,4.38516353,
0.0467,-3.00644619,0.0467,3.654302942,
0.04672,-2.275585602,0.04672,4.750593824,
0.04674,-4.102737073,0.04674,4.38516353,
0.04676,-3.00644619,0.04676,4.38516353,
0.04678,-5.56445825,0.04678,4.38516353,
0.0468,-2.641015896,0.0468,4.38516353,
0.04682,-3.00644619,0.04682,4.019733236,
0.04684,-1.910155308,0.04684,4.750593824,
0.04686,-0.8138644254,0.04686,4.019733236,
0.04688,-1.17929472,0.04688,4.019733236,
0.0469,-0.08300383702,0.0469,5.116024118,
0.04692,-0.8138644254,0.04692,4.38516353,
0.04694,-0.08300383702,0.04694,4.019733236,
0.04696,4.667589987,0.04696,4.750593824,
0.04698,1.37871734,0.04698,4.019733236,
0.047,2.109577928,0.047,4.38516353,
0.04702,2.840438516,0.04702,4.750593824,
0.04704,2.475008222,0.04704,4.38516353,
0.04706,2.840438516,0.04706,4.38516353,
0.04708,1.37871734,0.04708,4.750593824,
0.0471,3.205868811,0.0471,4.019733236,
0.04712,3.205868811,0.04712,4.019733236,
0.04714,2.840438516,0.04714,4.38516353,
0.04716,2.109577928,0.04716,4.019733236,
0.04718,2.475008222,0.04718,3.654302942,
0.0472,3.571299105,0.0472,4.38516353,
0.04722,2.475008222,0.04722,4.019733236,
0.04724,1.744147634,0.04724,4.019733236,
0.04726,2.475008222,0.04726,4.750593824,
0.04728,1.37871734,0.04728,4.019733236,
0.0473,2.109577928,0.0473,4.38516353,
0.04732,0.6478567513,0.04732,4.750593824,
0.04734,-0.08300383702,0.04734,4.38516353,
0.04736,0.2824264572,0.04736,4.38516353,
0.04738,-0.8138644254,0.04738,4.38516353,
0.0474,-0.4484341312,0.0474,4.38516353,
0.04742,-0.4484341312,0.04742,4.019733236,
0.04744,-0.4484341312,0.04744,4.750593824,
0.04746,-2.641015896,0.04746,4.38516353,
0.04748,-3.371876485,0.04748,4.019733236,
0.0475,-2.641015896,0.0475,4.750593824,
0.04752,-3.737306779,0.04752,4.38516353,
0.04754,-3.00644619,0.04754,4.38516353,
0.04756,-1.910155308,0.04756,5.116024118,
0.04758,-3.371876485,0.04758,3.654302942,
0.0476,-3.737306779,0.0476,4.38516353,
0.04762,-3.371876485,0.04762,4.750593824,
0.04764,-4.468167367,0.04764,3.654302942,
0.04766,-3.371876485,0.04766,5.116024118,
0.04768,-4.833597661,0.04768,4.38516353,
0.0477,-3.371876485,0.0477,4.019733236,
0.04772,-2.641015896,0.04772,4.019733236,
0.04774,-3.371876485,0.04774,4.38516353,
0.04776,-2.275585602,0.04776,4.019733236,
0.04778,-1.17929472,0.04778,4.019733236,
0.0478,-1.544725014,0.0478,4.750593824,
0.04782,-0.4484341312,0.04782,4.38516353,
0.04784,-1.544725014,0.04784,4.38516353,
0.04786,1.37871734,0.04786,4.38516353,
0.04788,2.840438516,0.04788,4.38516353,
0.0479,1.37871734,0.0479,4.019733236,
0.04792,1.37871734,0.04792,4.750593824,
0.04794,2.109577928,0.04794,4.38516353,
0.04796,2.109577928,0.04796,3.654302942,
0.04798,3.205868811,0.04798,4.750593824,
0.048,2.475008222,0.048,4.019733236,
0.04802,4.302159693,0.04802,4.019733236,
0.04804,3.571299105,0.04804,4.019733236,
0.04806,5.033020281,0.04806,4.38516353,
0.04808,3.936729399,0.04808,4.019733236,
0.0481,3.205868811,0.0481,4.750593824,
0.04812,3.936729399,0.04812,4.38516353,
0.04814,2.840438516,0.04814,5.116024118,
0.04816,1.013287045,0.04816,4.750593824,
0.04818,2.840438516,0.04818,4.019733236,
0.0482,2.840438516,0.0482,4.019733236,
0.04822,2.109577928,0.04822,4.38516353,
0.04824,1.013287045,0.04824,3.288872648,
0.04826,2.840438516,0.04826,4.750593824,
0.04828,1.37871734,0.04828,4.750593824,
0.0483,-0.4484341312,0.0483,4.38516353,
0.04832,-0.4484341312,0.04832,4.019733236,
0.04834,-0.4484341312,0.04834,3.654302942,
0.04836,-1.910155308,0.04836,4.750593824,
0.04838,-3.00644619,0.04838,4.38516353,
0.0484,-3.00644619,0.0484,4.38516353,
0.04842,-2.641015896,0.04842,4.750593824,
0.04844,-4.468167367,0.04844,4.38516353,
0.04846,-3.00644619,0.04846,4.38516353,
0.04848,-3.00644619,0.04848,4.38516353,
0.0485,-2.275585602,0.0485,4.38516353,
0.04852,-3.737306779,0.04852,4.750593824,
0.04854,-4.102737073,0.04854,5.481454413,
0.04856,-3.00644619,0.04856,4.38516353,
0.04858,-3.371876485,0.04858,4.750593824,
0.0486,-3.00644619,0.0486,4.019733236,
0.04862,-3.00644619,0.04862,4.38516353,
0.04864,-2.275585602,0.04864,4.38516353,
0.04866,-3.00644619,0.04866,4.38516353,
0.04868,-2.641015896,0.04868,4.019733236,
0.0487,-3.00644619,0.0487,4.750593824,
0.04872,-1.544725014,0.04872,4.750593824,
0.04874,-0.08300383702,0.04874,3.288872648,
0.04876,-0.8138644254,0.04876,4.38516353,
0.04878,-1.544725014,0.04878,4.750593824,
0.0488,0.6478567513,0.0488,4.38516353,
0.04882,1.37871734,0.04882,4.750593824,
0.04884,1.37871734,0.04884,5.116024118,
0.04886,3.936729399,0.04886,4.019733236,
0.04888,2.109577928,0.04888,4.38516353,
0.0489,3.205868811,0.0489,4.750593824,
0.04892,2.840438516,0.04892,4.019733236,
0.04894,3.205868811,0.04894,4.750593824,
0.04896,1.744147634,0.04896,4.019733236,
0.04898,3.571299105,0.04898,4.38516353,
0.049,3.571299105,0.049,4.38516353,
0.04902,2.840438516,0.04902,4.38516353,
0.04904,2.840438516,0.04904,3.654302942,
0.04906,5.033020281,0.04906,4.38516353,
0.04908,1.744147634,0.04908,4.38516353,
0.0491,2.475008222,0.0491,4.38516353,
0.04912,3.571299105,0.04912,4.750593824,
0.04914,2.109577928,0.04914,4.750593824,
0.04916,2.109577928,0.04916,4.38516353,
0.04918,1.744147634,0.04918,4.750593824,
0.0492,-0.08300383702,0.0492,4.38516353,
0.04922,-0.4484341312,0.04922,4.750593824,
0.04924,-0.08300383702,0.04924,5.116024118,
0.04926,0.2824264572,0.04926,4.38516353,
0.04928,-1.17929472,0.04928,4.38516353,
0.0493,-2.275585602,0.0493,4.38516353,
0.04932,-2.641015896,0.04932,4.019733236,
0.04934,-1.910155308,0.04934,3.654302942,
0.04936,-2.641015896,0.04936,4.750593824,
0.04938,-3.00644619,0.04938,4.750593824,
0.0494,-3.737306779,0.0494,4.38516353,
0.04942,-5.929888544,0.04942,4.750593824,
0.04944,-4.833597661,0.04944,5.116024118,
0.04946,-2.641015896,0.04946,4.38516353,
0.04948,-4.468167367,0.04948,4.750593824,
0.0495,-3.00644619,0.0495,4.38516353,
0.04952,-2.275585602,0.04952,4.38516353,
0.04954,-2.641015896,0.04954,4.750593824,
0.04956,-3.371876485,0.04956,4.38516353,
0.04958,-2.275585602,0.04958,4.019733236,
0.0496,-3.00644619,0.0496,4.750593824,
0.04962,-3.737306779,0.04962,4.38516353,
0.04964,-1.544725014,0.04964,4.019733236,
0.04966,-1.544725014,0.04966,4.750593824,
0.04968,-1.17929472,0.04968,4.38516353,
0.0497,1.744147634,0.0497,4.38516353,
0.04972,0.6478567513,0.04972,4.38516353,
0.04974,-0.08300383702,0.04974,4.38516353,
0.04976,1.37871734,0.04976,4.38516353,
0.04978,1.013287045,0.04978,4.38516353,
0.0498,1.37871734,0.0498,4.38516353,
0.04982,2.475008222,0.04982,4.38516353,
0.04984,3.571299105,0.04984,4.750593824,
0.04986,-0.08300383702,0.04986,4.38516353,
0.04988,2.840438516,0.04988,4.38516353,
0.0499,3.571299105,0.0499,4.38516353,
0.04992,2.475008222,0.04992,4.750593824,
0.04994,5.033020281,0.04994,4.38516353,
0.04996,5.033020281,0.04996,4.750593824,
0.04998,3.936729399,0.04998,4.38516353,
0.05,1.013287045,0.05,4.38516353,
0.05002,3.205868811,0.05002,4.38516353,
0.05004,1.744147634,0.05004,4.750593824,
0.05006,3.205868811,0.05006,4.019733236,
0.05008,2.109577928,0.05008,4.38516353,
0.0501,0.6478567513,0.0501,4.38516353,
0.05012,2.109577928,0.05012,4.38516353,
0.05014,1.013287045,0.05014,4.38516353,
0.05016,1.37871734,0.05016,4.019733236,
0.05018,1.744147634,0.05018,3.654302942,
0.0502,-0.8138644254,0.0502,4.750593824,
0.05022,-0.4484341312,0.05022,4.019733236,
0.05024,-1.910155308,0.05024,4.019733236,
0.05026,-2.641015896,0.05026,3.654302942,
0.05028,-3.737306779,0.05028,4.750593824,
0.0503,-2.275585602,0.0503,4.019733236,
0.05032,-2.275585602,0.05032,4.019733236,
0.05034,-3.371876485,0.05034,4.38516353,
0.05036,-2.275585602,0.05036,4.38516353,
0.05038,-2.641015896,0.05038,4.019733236,
0.0504,-5.56445825,0.0504,4.38516353,
0.05042,-4.833597661,0.05042,4.019733236,
0.05044,-4.468167367,0.05044,4.019733236,
0.05046,-3.737306779,0.05046,4.38516353,
0.05048,-2.641015896,0.05048,4.019733236,
0.0505,-3.737306779,0.0505,3.288872648,
0.05052,-1.544725014,0.05052,4.019733236,
0.05054,-1.544725014,0.05054,4.019733236,
0.05056,-1.544725014,0.05056,4.38516353,
0.05058,-1.17929472,0.05058,4.38516353,
0.0506,-0.4484341312,0.0506,4.38516353,
0.05062,-0.4484341312,0.05062,3.654302942,
0.05064,-0.4484341312,0.05064,4.38516353,
0.05066,-0.08300383702,0.05066,4.38516353,
0.05068,-0.4484341312,0.05068,3.654302942,
0.0507,1.744147634,0.0507,4.38516353,
0.05072,2.475008222,0.05072,4.38516353,
0.05074,1.744147634,0.05074,4.019733236,
0.05076,2.109577928,0.05076,4.38516353,
0.05078,6.494741458,0.05078,4.38516353,
0.0508,3.936729399,0.0508,3.654302942,
0.05082,2.475008222,0.05082,4.38516353,
0.05084,2.109577928,0.05084,4.38516353,
0.05086,2.475008222,0.05086,3.654302942,
0.05088,3.571299105,0.05088,4.019733236,
0.0509,3.571299105,0.0509,4.019733236,
0.05092,4.667589987,0.05092,3.654302942,
0.05094,3.205868811,0.05094,4.750593824,
0.05096,3.936729399,0.05096,4.38516353,
0.05098,2.840438516,0.05098,4.019733236,
0.051,3.205868811,0.051,4.019733236,
0.05102,2.840438516,0.05102,4.019733236,
0.05104,1.744147634,0.05104,4.019733236,
0.05106,1.744147634,0.05106,4.019733236,
0.05108,0.6478567513,0.05108,4.019733236,
0.0511,1.744147634,0.0511,4.38516353,
0.05112,-0.8138644254,0.05112,4.019733236,
0.05114,0.2824264572,0.05114,4.019733236,
0.05116,-2.275585602,0.05116,4.38516353,
0.05118,-1.544725014,0.05118,4.019733236,
0.0512,-3.00644619,0.0512,4.38516353,
0.05122,-1.910155308,0.05122,3.654302942,
0.05124,-1.910155308,0.05124,5.116024118,
0.05126,-2.641015896,0.05126,4.38516353,
0.05128,-3.737306779,0.05128,4.019733236,
0.0513,-3.737306779,0.0513,4.750593824,
0.05132,-3.737306779,0.05132,4.38516353,
0.05134,-3.371876485,0.05134,4.019733236,
0.05136,-3.00644619,0.05136,3.654302942,
0.05138,-3.00644619,0.05138,5.116024118,
0.0514,-2.275585602,0.0514,4.750593824,
0.05142,-3.371876485,0.05142,4.38516353,
0.05144,-3.00644619,0.05144,2.923442353,
0.05146,1.013287045,0.05146,5.116024118,
0.05148,-3.371876485,0.05148,4.38516353,
0.0515,-2.641015896,0.0515,3.288872648,
0.05152,-1.17929472,0.05152,4.019733236,
0.05154,-0.8138644254,0.05154,4.38516353,
0.05156,-0.8138644254,0.05156,3.288872648,
0.05158,1.013287045,0.05158,4.38516353,
0.0516,0.6478567513,0.0516,4.750593824,
0.05162,1.013287045,0.05162,4.019733236,
0.05164,2.475008222,0.05164,4.38516353,
0.05166,1.744147634,0.05166,4.019733236,
0.05168,1.37871734,0.05168,4.019733236,
0.0517,2.475008222,0.0517,4.38516353,
0.05172,1.744147634,0.05172,4.38516353,
0.05174,3.936729399,0.05174,4.019733236,
0.05176,2.840438516,0.05176,6.577745295,
0.05178,3.205868811,0.05178,4.38516353,
0.0518,1.744147634,0.0518,4.019733236,
0.05182,3.571299105,0.05182,4.750593824,
0.05184,5.033020281,0.05184,4.38516353,
0.05186,3.571299105,0.05186,5.481454413,
0.05188,2.840438516,0.05188,4.38516353,
0.0519,2.109577928,0.0519,4.019733236,
0.05192,2.840438516,0.05192,4.38516353,
0.05194,2.475008222,0.05194,4.750593824,
0.05196,1.744147634,0.05196,2.558012059,
0.05198,2.475008222,0.05198,4.019733236,
0.052,1.37871734,0.052,4.750593824,
0.05202,0.2824264572,0.05202,4.38516353,
0.05204,0.2824264572,0.05204,4.38516353,
0.05206,0.6478567513,0.05206,2.558012059,
0.05208,0.2824264572,0.05208,4.38516353,
0.0521,-1.910155308,0.0521,4.750593824,
0.05212,-4.102737073,0.05212,4.38516353,
0.05214,-0.8138644254,0.05214,4.38516353,
0.05216,-3.00644619,0.05216,5.846884707,
0.05218,-4.102737073,0.05218,4.019733236,
0.0522,-4.468167367,0.0522,4.019733236,
0.05222,-2.641015896,0.05222,4.750593824,
0.05224,-3.737306779,0.05224,4.019733236,
0.05226,-4.102737073,0.05226,3.288872648,
0.05228,-4.102737073,0.05228,4.750593824,
0.0523,-5.199027955,0.0523,4.019733236,
0.05232,-4.102737073,0.05232,4.38516353,
0.05234,-3.371876485,0.05234,4.750593824,
0.05236,-4.102737073,0.05236,2.923442353,
0.05238,-1.910155308,0.05238,4.38516353,
0.0524,-3.00644619,0.0524,4.750593824,
0.05242,-2.275585602,0.05242,4.019733236,
0.05244,-1.910155308,0.05244,4.38516353,
0.05246,-1.17929472,0.05246,5.481454413,
0.05248,-0.8138644254,0.05248,4.019733236,
0.0525,-1.17929472,0.0525,4.38516353,
0.05252,0.6478567513,0.05252,4.750593824,
0.05254,-0.08300383702,0.05254,4.38516353,
0.05256,0.6478567513,0.05256,4.750593824,
0.05258,1.013287045,0.05258,4.38516353,
0.0526,-0.4484341312,0.0526,4.019733236,
0.05262,2.109577928,0.05262,4.019733236,
0.05264,1.37871734,0.05264,4.750593824,
0.05266,3.205868811,0.05266,2.923442353,
0.05268,3.936729399,0.05268,4.019733236,
0.0527,2.840438516,0.0527,4.750593824,
0.05272,3.936729399,0.05272,4.019733236,
0.05274,3.571299105,0.05274,5.116024118,
0.05276,3.205868811,0.05276,5.481454413,
0.05278,3.205868811,0.05278,4.38516353,
0.0528,3.571299105,0.0528,4.019733236,
0.05282,1.744147634,0.05282,5.116024118,
0.05284,2.475008222,0.05284,4.38516353,
0.05286,2.109577928,0.05286,4.019733236,
0.05288,3.205868811,0.05288,4.750593824,
0.0529,0.6478567513,0.0529,4.38516353,
0.05292,1.37871734,0.05292,4.019733236,
0.05294,1.013287045,0.05294,5.116024118,
0.05296,-1.17929472,0.05296,3.654302942,
0.05298,-0.08300383702,0.05298,4.38516353,
0.053,-0.4484341312,0.053,5.116024118,
0.05302,-1.544725014,0.05302,4.38516353,
0.05304,-1.910155308,0.05304,4.019733236,
0.05306,1.744147634,0.05306,4.750593824,
0.05308,-1.17929472,0.05308,4.38516353,
0.0531,-2.641015896,0.0531,4.38516353,
0.05312,-2.641015896,0.05312,4.750593824,
0.05314,-3.737306779,0.05314,4.38516353,
0.05316,-4.102737073,0.05316,4.38516353,
0.05318,-3.737306779,0.05318,4.38516353,
0.0532,-5.199027955,0.0532,4.750593824,
0.05322,-4.468167367,0.05322,4.019733236,
0.05324,-4.102737073,0.05324,4.750593824,
0.05326,-0.8138644254,0.05326,4.38516353,
0.05328,-4.468167367,0.05328,4.019733236,
0.0533,-2.641015896,0.0533,4.750593824,
0.05332,-3.371876485,0.05332,4.38516353,
0.05334,-2.641015896,0.05334,4.019733236,
0.05336,-2.275585602,0.05336,4.38516353,
0.05338,-2.275585602,0.05338,4.38516353,
0.0534,-1.910155308,0.0534,4.019733236,
0.05342,3.205868811,0.05342,4.38516353,
0.05344,-0.4484341312,0.05344,4.38516353,
0.05346,1.37871734,0.05346,4.38516353,
0.05348,1.744147634,0.05348,4.750593824,
0.0535,1.37871734,0.0535,4.750593824,
0.05352,1.744147634,0.05352,4.38516353,
0.05354,1.744147634,0.05354,4.38516353,
0.05356,2.840438516,0.05356,4.019733236,
0.05358,2.475008222,0.05358,4.38516353,
0.0536,3.936729399,0.0536,4.750593824,
0.05362,3.936729399,0.05362,4.38516353,
0.05364,3.205868811,0.05364,4.38516353,
0.05366,3.205868811,0.05366,4.38516353,
0.05368,3.571299105,0.05368,3.654302942,
0.0537,3.936729399,0.0537,4.019733236,
0.05372,3.571299105,0.05372,4.750593824,
0.05374,4.302159693,0.05374,4.019733236,
0.05376,3.205868811,0.05376,4.019733236,
0.05378,2.475008222,0.05378,4.750593824,
0.0538,3.205868811,0.0538,4.38516353,
0.05382,2.475008222,0.05382,4.019733236,
0.05384,1.744147634,0.05384,4.38516353,
0.05386,0.6478567513,0.05386,4.38516353,
0.05388,-0.08300383702,0.05388,4.019733236,
0.0539,-1.544725014,0.0539,4.750593824,
0.05392,-0.4484341312,0.05392,4.019733236,
0.05394,-1.910155308,0.05394,4.019733236,
0.05396,1.744147634,0.05396,5.116024118,
0.05398,-2.641015896,0.05398,4.019733236,
0.054,-1.910155308,0.054,4.38516353,
0.05402,-3.00644619,0.05402,4.019733236,
0.05404,-3.00644619,0.05404,4.750593824,
0.05406,-3.371876485,0.05406,3.654302942,
0.05408,-3.00644619,0.05408,4.750593824,
0.0541,-4.468167367,0.0541,4.38516353,
0.05412,-5.199027955,0.05412,4.38516353,
0.05414,-2.641015896,0.05414,4.750593824,
0.05416,-4.468167367,0.05416,4.750593824,
0.05418,-2.641015896,0.05418,4.38516353,
0.0542,-1.910155308,0.0542,4.38516353,
0.05422,-3.737306779,0.05422,4.38516353,
0.05424,-2.641015896,0.05424,4.38516353,
0.05426,-1.544725014,0.05426,4.750593824,
0.05428,-2.275585602,0.05428,4.38516353,
0.0543,-1.544725014,0.0543,4.38516353,
0.05432,-3.737306779,0.05432,4.750593824,
0.05434,-0.8138644254,0.05434,4.38516353,
0.05436,-0.8138644254,0.05436,3.654302942,
0.05438,0.2824264572,0.05438,4.38516353,
0.0544,0.2824264572,0.0544,4.38516353,
0.05442,-0.4484341312,0.05442,4.38516353,
0.05444,1.744147634,0.05444,4.38516353,
0.05446,2.109577928,0.05446,4.750593824,
0.05448,2.475008222,0.05448,4.38516353,
0.0545,3.205868811,0.0545,4.750593824,
0.05452,5.033020281,0.05452,5.116024118,
0.05454,3.936729399,0.05454,4.38516353,
0.05456,2.475008222,0.05456,4.38516353,
0.05458,3.205868811,0.05458,4.019733236,
0.0546,3.571299105,0.0546,4.019733236,
0.05462,3.205868811,0.05462,4.750593824,
0.05464,3.205868811,0.05464,4.38516353,
0.05466,2.475008222,0.05466,4.019733236,
0.05468,1.744147634,0.05468,4.38516353,
0.0547,2.840438516,0.0547,4.750593824,
0.05472,3.205868811,0.05472,3.654302942,
0.05474,2.475008222,0.05474,4.750593824,
0.05476,1.744147634,0.05476,4.38516353,
0.05478,0.6478567513,0.05478,4.750593824,
0.0548,0.6478567513,0.0548,4.750593824,
0.05482,0.6478567513,0.05482,4.38516353,
0.05484,0.2824264572,0.05484,4.019733236,
0.05486,-1.544725014,0.05486,5.116024118,
0.05488,-2.275585602,0.05488,3.654302942,
0.0549,0.2824264572,0.0549,4.019733236,
0.05492,-1.17929472,0.05492,4.38516353,
0.05494,-3.00644619,0.05494,4.38516353,
0.05496,-3.00644619,0.05496,4.019733236,
0.05498,-2.641015896,0.05498,5.116024118,
0.055,-3.00644619,0.055,4.750593824,
0.05502,-3.371876485,0.05502,4.019733236,
0.05504,-1.17929472,0.05504,4.38516353,
0.05506,-4.102737073,0.05506,4.38516353,
0.05508,-3.00644619,0.05508,4.38516353,
0.0551,-2.275585602,0.0551,4.38516353,
0.05512,-3.737306779,0.05512,4.38516353,
0.05514,-3.00644619,0.05514,4.019733236,
0.05516,-3.737306779,0.05516,4.38516353,
0.05518,-4.102737073,0.05518,3.654302942,
0.0552,-2.275585602,0.0552,4.019733236,
0.05522,-3.00644619,0.05522,5.116024118,
0.05524,-3.00644619,0.05524,5.116024118,
0.05526,-1.17929472,0.05526,4.38516353,
0.05528,-1.910155308,0.05528,5.481454413,
0.0553,0.6478567513,0.0553,3.654302942,
0.05532,1.37871734,0.05532,4.38516353,
0.05534,1.37871734,0.05534,4.38516353,
0.05536,-1.910155308,0.05536,4.38516353,
0.05538,1.744147634,0.05538,3.654302942,
0.0554,2.109577928,0.0554,4.750593824,
0.05542,1.744147634,0.05542,4.750593824,
0.05544,4.302159693,0.05544,4.38516353,
0.05546,2.840438516,0.05546,4.750593824,
0.05548,3.571299105,0.05548,3.654302942,
0.0555,2.109577928,0.0555,4.019733236,
0.05552,4.302159693,0.05552,4.750593824,
0.05554,2.840438516,0.05554,4.38516353,
0.05556,4.667589987,0.05556,4.019733236,
0.05558,3.936729399,0.05558,5.116024118,
0.0556,5.398450576,0.0556,4.019733236,
0.05562,3.205868811,0.05562,4.38516353,
0.05564,1.744147634,0.05564,4.750593824,
0.05566,2.109577928,0.05566,4.38516353,
0.05568,1.37871734,0.05568,4.019733236,
0.0557,3.936729399,0.0557,4.750593824,
0.05572,-0.8138644254,0.05572,4.750593824,
0.05574,1.013287045,0.05574,4.38516353,
0.05576,1.013287045,0.05576,4.38516353,
0.05578,-1.17929472,0.05578,4.38516353,
0.0558,-1.17929472,0.0558,4.019733236,
0.05582,-0.08300383702,0.05582,4.750593824,
0.05584,-3.371876485,0.05584,4.38516353,
0.05586,-1.910155308,0.05586,4.38516353,
0.05588,-2.641015896,0.05588,3.288872648,
0.0559,-3.737306779,0.0559,4.38516353,
0.05592,-2.641015896,0.05592,4.750593824,
0.05594,-2.275585602,0.05594,3.654302942,
0.05596,-4.468167367,0.05596,4.750593824,
0.05598,-4.468167367,0.05598,4.750593824,
0.056,-3.00644619,0.056,3.654302942,
0.05602,-2.275585602,0.05602,4.38516353,
0.05604,-3.00644619,0.05604,4.019733236,
0.05606,-3.00644619,0.05606,3.654302942,
0.05608,-3.00644619,0.05608,4.38516353,
0.0561,-3.00644619,0.0561,4.38516353,
0.05612,-3.00644619,0.05612,4.019733236,
0.05614,-1.544725014,0.05614,4.38516353,
0.05616,-1.17929472,0.05616,4.38516353,
0.05618,-1.910155308,0.05618,3.654302942,
0.0562,-0.08300383702,0.0562,4.38516353,
0.05622,-0.4484341312,0.05622,4.38516353,
0.05624,-0.4484341312,0.05624,3.654302942,
0.05626,-0.4484341312,0.05626,4.38516353,
0.05628,2.109577928,0.05628,4.38516353,
0.0563,3.571299105,0.0563,4.019733236,
0.05632,1.744147634,0.05632,4.38516353,
0.05634,2.840438516,0.05634,4.38516353,
0.05636,2.475008222,0.05636,4.019733236,
0.05638,3.936729399,0.05638,4.019733236,
0.0564,3.936729399,0.0564,4.019733236,
0.05642,2.109577928,0.05642,4.019733236,
0.05644,4.302159693,0.05644,4.019733236,
0.05646,3.571299105,0.05646,4.019733236,
0.05648,3.936729399,0.05648,4.38516353,
0.0565,1.37871734,0.0565,4.38516353,
0.05652,3.205868811,0.05652,4.750593824,
0.05654,6.129311164,0.05654,4.750593824,
0.05656,3.571299105,0.05656,3.654302942,
0.05658,3.205868811,0.05658,4.38516353,
0.0566,2.109577928,0.0566,4.750593824,
0.05662,1.37871734,0.05662,4.750593824,
0.05664,2.109577928,0.05664,4.38516353,
0.05666,2.475008222,0.05666,4.38516353,
0.05668,1.37871734,0.05668,4.750593824,
0.0567,2.840438516,0.0567,4.750593824,
0.05672,-0.4484341312,0.05672,4.38516353,
0.05674,-0.8138644254,0.05674,4.750593824,
0.05676,-0.4484341312,0.05676,4.38516353,
0.05678,-1.544725014,0.05678,4.38516353,
0.0568,-1.544725014,0.0568,4.38516353,
0.05682,-2.641015896,0.05682,4.750593824,
0.05684,-2.641015896,0.05684,4.38516353,
0.05686,-2.641015896,0.05686,4.38516353,
0.05688,-4.468167367,0.05688,4.38516353,
0.0569,-3.00644619,0.0569,4.38516353,
0.05692,-3.737306779,0.05692,4.750593824,
0.05694,-4.102737073,0.05694,4.38516353,
0.05696,-4.833597661,0.05696,4.019733236,
0.05698,-2.275585602,0.05698,4.750593824,
0.057,-4.468167367,0.057,4.750593824,
0.05702,-3.00644619,0.05702,4.019733236,
0.05704,-1.910155308,0.05704,4.38516353,
0.05706,-2.275585602,0.05706,4.750593824,
0.05708,-1.910155308,0.05708,4.019733236,
0.0571,-3.371876485,0.0571,4.750593824,
0.05712,-1.544725014,0.05712,4.750593824,
0.05714,-0.8138644254,0.05714,4.750593824,
0.05716,-1.910155308,0.05716,4.38516353,
0.05718,-0.08300383702,0.05718,4.750593824,
0.0572,0.2824264572,0.0572,4.38516353,
0.05722,1.013287045,0.05722,4.750593824,
0.05724,2.109577928,0.05724,4.750593824,
0.05726,2.840438516,0.05726,4.38516353,
0.05728,2.840438516,0.05728,4.750593824,
0.0573,1.744147634,0.0573,4.38516353,
0.05732,1.37871734,0.05732,4.38516353,
0.05734,3.205868811,0.05734,4.750593824,
0.05736,2.840438516,0.05736,4.38516353,
0.05738,3.571299105,0.05738,4.750593824,
0.0574,4.667589987,0.0574,4.38516353,
0.05742,1.744147634,0.05742,4.38516353,
0.05744,3.936729399,0.05744,4.019733236,
0.05746,3.205868811,0.05746,4.38516353,
0.05748,2.475008222,0.05748,4.38516353,
0.0575,2.109577928,0.0575,4.38516353,
0.05752,2.840438516,0.05752,4.38516353,
0.05754,1.744147634,0.05754,4.38516353,
0.05756,2.475008222,0.05756,4.019733236,
0.05758,1.37871734,0.05758,4.38516353,
0.0576,-0.08300383702,0.0576,4.38516353,
0.05762,0.6478567513,0.05762,4.38516353,
0.05764,-0.4484341312,0.05764,4.750593824,
0.05766,-2.275585602,0.05766,4.38516353,
0.05768,-0.4484341312,0.05768,4.38516353,
0.0577,-1.544725014,0.0577,5.116024118,
0.05772,-2.641015896,0.05772,4.750593824,
0.05774,-1.910155308,0.05774,4.750593824,
0.05776,-1.910155308,0.05776,4.38516353,
0.05778,-2.641015896,0.05778,4.38516353,
0.0578,-1.544725014,0.0578,4.019733236,
0.05782,-3.737306779,0.05782,4.750593824,
0.05784,-4.102737073,0.05784,4.750593824,
0.05786,-3.00644619,0.05786,4.750593824,
0.05788,-3.371876485,0.05788,4.750593824,
0.0579,-2.641015896,0.0579,4.38516353,
0.05792,-4.102737073,0.05792,4.019733236,
0.05794,-3.371876485,0.05794,4.750593824,
0.05796,-3.00644619,0.05796,4.38516353,
0.05798,-2.641015896,0.05798,4.38516353,
0.058,-1.17929472,0.058,4.38516353,
0.05802,-2.275585602,0.05802,4.38516353,
0.05804,-2.275585602,0.05804,4.38516353,
0.05806,-1.17929472,0.05806,4.38516353,
0.05808,-1.17929472,0.05808,4.38516353,
0.0581,-0.08300383702,0.0581,4.750593824,
0.05812,-0.4484341312,0.05812,4.38516353,
0.05814,1.013287045,0.05814,4.019733236,
0.05816,1.37871734,0.05816,4.38516353,
0.05818,2.109577928,0.05818,4.38516353,
0.0582,1.37871734,0.0582,4.38516353,
0.05822,3.205868811,0.05822,4.38516353,
0.05824,3.205868811,0.05824,4.38516353,
0.05826,2.840438516,0.05826,4.750593824,
0.05828,3.571299105,0.05828,4.750593824,
0.0583,5.398450576,0.0583,4.38516353,
0.05832,3.205868811,0.05832,4.019733236,
0.05834,5.398450576,0.05834,4.019733236,
0.05836,3.571299105,0.05836,4.750593824,
0.05838,0.2824264572,0.05838,4.38516353,
0.0584,5.033020281,0.0584,5.116024118,
0.05842,4.302159693,0.05842,4.38516353,
0.05844,2.475008222,0.05844,4.38516353,
0.05846,3.205868811,0.05846,4.019733236,
0.05848,1.37871734,0.05848,4.750593824,
0.0585,0.6478567513,0.0585,4.019733236,
0.05852,1.37871734,0.05852,4.019733236,
0.05854,-0.8138644254,0.05854,4.38516353,
0.05856,-1.910155308,0.05856,4.750593824,
0.05858,0.6478567513,0.05858,4.019733236,
0.0586,-0.08300383702,0.0586,3.288872648,
0.05862,-1.544725014,0.05862,4.38516353,
0.05864,-1.544725014,0.05864,4.38516353,
0.05866,-1.544725014,0.05866,4.750593824,
0.05868,-3.00644619,0.05868,4.38516353,
0.0587,-3.371876485,0.0587,5.846884707,
0.05872,-1.544725014,0.05872,4.750593824,
0.05874,-3.737306779,0.05874,4.019733236,
0.05876,-1.910155308,0.05876,3.654302942,
0.05878,-4.102737073,0.05878,4.019733236,
0.0588,-2.641015896,0.0588,4.750593824,
0.05882,-3.00644619,0.05882,4.38516353,
0.05884,-3.737306779,0.05884,4.38516353,
0.05886,-3.00644619,0.05886,4.38516353,
0.05888,-2.275585602,0.05888,4.019733236,
0.0589,-4.468167367,0.0589,2.192581765,
