"A0_accX_x","A0_accX_y","A1_rmsX_x","A1_rmsX_y"
0,-5.571708387,0,4.750593824,
2e-05,-3.744556916,2e-05,4.750593824,
4e-05,-4.10998721,4e-05,4.019733236,
6e-05,-4.840847798,6e-05,4.38516353,
8e-05,-4.10998721,8e-05,4.019733236,
0.0001,-4.475417504,0.0001,4.019733236,
0.00012,-3.013696327,0.00012,4.750593824,
0.00014,-3.379126622,0.00014,4.38516353,
0.00016,-2.648266033,0.00016,4.38516353,
0.00018,-3.013696327,0.00018,4.38516353,
0.0002,-4.10998721,0.0002,4.019733236,
0.00022,-1.186544857,0.00022,3.654302942,
0.00024,-1.551975151,0.00024,4.750593824,
0.00026,-1.186544857,0.00026,4.019733236,
0.00028,-0.09025397405,0.00028,4.019733236,
0.0003,-0.09025397405,0.0003,5.116024118,
0.00032,0.2751763201,0.00032,4.38516353,
0.00034,1.371467203,0.00034,4.019733236,
0.00036,1.371467203,0.00036,5.116024118,
0.00038,2.102327791,0.00038,4.38516353,
0.0004,1.736897497,0.0004,4.019733236,
0.00042,2.467758085,0.00042,4.750593824,
0.00044,3.564048968,0.00044,4.019733236,
0.00046,2.833188379,0.00046,4.019733236,
0.00048,3.929479262,0.00048,4.38516353,
0.0005,2.833188379,0.0005,4.019733236,
0.00052,4.66033985,0.00052,4.38516353,
0.00054,5.391200439,0.00054,5.116024118,
0.00056,3.198618673,0.00056,4.750593824,
0.00058,3.564048968,0.00058,4.019733236,
0.0006,3.564048968,0.0006,4.750593824,
0.00062,3.564048968,0.00062,4.38516353,
0.00064,0.6406066143,0.00064,3.654302942,
0.00066,2.833188379,0.00066,4.750593824,
0.00068,0.6406066143,0.00068,4.019733236,
0.0007,1.006036908,0.0007,4.019733236,
0.00072,1.006036908,0.00072,4.750593824,
0.00074,-0.8211145624,0.00074,4.750593824,
0.00076,0.2751763201,0.00076,4.38516353,
0.00078,-0.4556842682,0.00078,4.750593824,
0.0008,-1.186544857,0.0008,4.750593824,
0.00082,-1.917405445,0.00082,4.019733236,
0.00084,-3.744556916,0.00084,4.38516353,
0.00086,-3.013696327,0.00086,4.019733236,
0.00088,-3.013696327,0.00088,4.38516353,
0.0009,-3.379126622,0.0009,4.750593824,
0.00092,-3.744556916,0.00092,4.019733236,
0.00094,-3.744556916,0.00094,3.288872648,
0.00096,-4.10998721,0.00096,4.750593824,
0.00098,-3.379126622,0.00098,4.019733236,
0.001,-4.475417504,0.001,4.019733236,
0.00102,-4.10998721,0.00102,4.38516353,
0.00104,-2.282835739,0.00104,4.38516353,
0.00106,-1.917405445,0.00106,4.38516353,
0.00108,-4.10998721,0.00108,4.750593824,
0.0011,-3.013696327,0.0011,4.019733236,
0.00112,-2.282835739,0.00112,4.38516353,
0.00114,-0.4556842682,0.00114,5.481454413,
0.00116,-0.8211145624,0.00116,4.38516353,
0.00118,-0.8211145624,0.00118,4.38516353,
0.0012,0.2751763201,0.0012,4.750593824,
0.00122,-0.09025397405,0.00122,4.38516353,
0.00124,0.6406066143,0.00124,4.750593824,
0.00126,1.371467203,0.00126,4.750593824,
0.00128,1.371467203,0.00128,4.750593824,
0.0013,1.736897497,0.0013,4.38516353,
0.00132,2.102327791,0.00132,5.116024118,
0.00134,2.102327791,0.00134,2.923442353,
0.00136,5.391200439,0.00136,4.38516353,
0.00138,2.833188379,0.00138,4.750593824,
0.0014,3.929479262,0.0014,4.38516353,
0.00142,3.929479262,0.00142,4.019733236,
0.00144,3.564048968,0.00144,6.577745295,
0.00146,2.833188379,0.00146,4.38516353,
0.00148,4.66033985,0.00148,4.38516353,
0.0015,3.929479262,0.0015,4.750593824,
0.00152,0.2751763201,0.00152,4.38516353,
0.00154,3.198618673,0.00154,2.558012059,
0.00156,2.467758085,0.00156,4.750593824,
0.00158,2.833188379,0.00158,4.38516353,
0.0016,1.371467203,0.0016,4.019733236,
0.00162,2.467758085,0.00162,5.116024118,
0.00164,-0.4556842682,0.00164,2.923442353,
0.00166,2.102327791,0.00166,4.019733236,
0.00168,0.2751763201,0.00168,5.116024118,
0.0017,-1.551975151,0.0017,4.38516353,
0.00172,-1.551975151,0.00172,4.019733236,
0.00174,-1.551975151,0.00174,5.846884707,
0.00176,-1.551975151,0.00176,4.019733236,
0.00178,-2.648266033,0.00178,4.019733236,
0.0018,-1.186544857,0.0018,4.750593824,
0.00182,-3.013696327,0.00182,4.019733236,
0.00184,-4.10998721,0.00184,4.019733236,
0.00186,-4.10998721,0.00186,4.750593824,
0.00188,-3.744556916,0.00188,4.750593824,
0.0019,-3.379126622,0.0019,4.019733236,
0.00192,-3.013696327,0.00192,4.750593824,
0.00194,-4.10998721,0.00194,4.019733236,
0.00196,-2.282835739,0.00196,4.38516353,
0.00198,-3.379126622,0.00198,5.116024118,
0.002,-3.379126622,0.002,4.750593824,
0.00202,-2.282835739,0.00202,4.019733236,
0.00204,-3.379126622,0.00204,4.38516353,
0.00206,-2.282835739,0.00206,4.750593824,
0.00208,-3.013696327,0.00208,4.019733236,
0.0021,-3.013696327,0.0021,4.38516353,
0.00212,-0.4556842682,0.00212,4.38516353,
0.00214,0.2751763201,0.00214,5.481454413,
0.00216,-0.09025397405,0.00216,4.750593824,
0.00218,0.6406066143,0.00218,4.750593824,
0.0022,1.371467203,0.0022,4.38516353,
0.00222,2.467758085,0.00222,4.750593824,
0.00224,1.736897497,0.00224,4.019733236,
0.00226,3.929479262,0.00226,4.38516353,
0.00228,4.66033985,0.00228,5.116024118,
0.0023,2.102327791,0.0023,4.019733236,
0.00232,3.929479262,0.00232,4.38516353,
0.00234,2.833188379,0.00234,3.654302942,
0.00236,2.833188379,0.00236,4.750593824,
0.00238,3.564048968,0.00238,4.38516353,
0.0024,4.294909556,0.0024,4.38516353,
0.00242,3.929479262,0.00242,4.750593824,
0.00244,3.929479262,0.00244,4.750593824,
0.00246,2.833188379,0.00246,4.750593824,
0.00248,2.102327791,0.00248,4.750593824,
0.0025,1.371467203,0.0025,4.38516353,
0.00252,3.564048968,0.00252,5.116024118,
0.00254,1.371467203,0.00254,5.481454413,
0.00256,1.006036908,0.00256,4.019733236,
0.00258,0.6406066143,0.00258,4.750593824,
0.0026,-1.186544857,0.0026,4.750593824,
0.00262,-0.09025397405,0.00262,4.750593824,
0.00264,0.2751763201,0.00264,5.116024118,
0.00266,-3.379126622,0.00266,4.38516353,
0.00268,-1.917405445,0.00268,4.750593824,
0.0027,-1.917405445,0.0027,5.116024118,
0.00272,-2.282835739,0.00272,4.38516353,
0.00274,-3.379126622,0.00274,4.019733236,
0.00276,-2.282835739,0.00276,4.750593824,
0.00278,-6.667999269,0.00278,4.38516353,
0.0028,-3.379126622,0.0028,5.116024118,
0.00282,-3.013696327,0.00282,5.116024118,
0.00284,-5.571708387,0.00284,4.750593824,
0.00286,-3.379126622,0.00286,4.38516353,
0.00288,-3.379126622,0.00288,4.750593824,
0.0029,-3.379126622,0.0029,4.019733236,
0.00292,-2.648266033,0.00292,4.019733236,
0.00294,-4.10998721,0.00294,4.019733236,
0.00296,-3.013696327,0.00296,4.38516353,
0.00298,-2.648266033,0.00298,4.38516353,
0.003,-4.10998721,0.003,4.019733236,
0.00302,-1.551975151,0.00302,4.38516353,
0.00304,-1.186544857,0.00304,4.019733236,
0.00306,-0.8211145624,0.00306,4.019733236,
0.00308,-0.09025397405,0.00308,4.38516353,
0.0031,1.006036908,0.0031,4.019733236,
0.00312,0.2751763201,0.00312,4.019733236,
0.00314,1.371467203,0.00314,4.750593824,
0.00316,2.833188379,0.00316,4.019733236,
0.00318,2.467758085,0.00318,4.38516353,
0.0032,3.929479262,0.0032,4.38516353,
0.00322,2.833188379,0.00322,4.019733236,
0.00324,1.371467203,0.00324,3.654302942,
0.00326,3.564048968,0.00326,4.019733236,
0.00328,3.564048968,0.00328,4.019733236,
0.0033,4.294909556,0.0033,4.019733236,
0.00332,4.294909556,0.00332,4.750593824,
0.00334,3.564048968,0.00334,4.019733236,
0.00336,3.564048968,0.00336,4.019733236,
0.00338,3.929479262,0.00338,4.019733236,
0.0034,3.564048968,0.0034,4.019733236,
0.00342,3.198618673,0.00342,4.019733236,
0.00344,2.833188379,0.00344,4.750593824,
0.00346,2.467758085,0.00346,4.38516353,
0.00348,2.833188379,0.00348,4.019733236,
0.0035,1.736897497,0.0035,4.019733236,
0.00352,0.6406066143,0.00352,4.38516353,
0.00354,0.2751763201,0.00354,4.019733236,
0.00356,-0.09025397405,0.00356,4.38516353,
0.00358,-0.09025397405,0.00358,4.38516353,
0.0036,-3.379126622,0.0036,3.654302942,
0.00362,-0.8211145624,0.00362,4.750593824,
0.00364,-1.186544857,0.00364,4.38516353,
0.00366,-2.648266033,0.00366,3.654302942,
0.00368,-2.648266033,0.00368,4.019733236,
0.0037,-2.648266033,0.0037,4.38516353,
0.00372,-4.475417504,0.00372,4.019733236,
0.00374,-3.013696327,0.00374,4.38516353,
0.00376,-3.744556916,0.00376,4.38516353,
0.00378,-4.10998721,0.00378,4.019733236,
0.0038,-3.013696327,0.0038,4.38516353,
0.00382,-3.013696327,0.00382,4.019733236,
0.00384,-3.744556916,0.00384,3.654302942,
0.00386,-1.551975151,0.00386,4.019733236,
0.00388,-2.282835739,0.00388,4.38516353,
0.0039,-4.475417504,0.0039,4.019733236,
0.00392,-1.551975151,0.00392,4.750593824,
0.00394,-1.917405445,0.00394,4.38516353,
0.00396,-1.186544857,0.00396,4.019733236,
0.00398,-0.09025397405,0.00398,4.38516353,
0.004,-0.09025397405,0.004,4.019733236,
0.00402,0.6406066143,0.00402,4.019733236,
0.00404,1.006036908,0.00404,4.019733236,
0.00406,0.6406066143,0.00406,4.019733236,
0.00408,2.833188379,0.00408,4.38516353,
0.0041,2.102327791,0.0041,4.019733236,
0.00412,2.102327791,0.00412,4.38516353,
0.00414,3.198618673,0.00414,4.019733236,
0.00416,2.102327791,0.00416,4.019733236,
0.00418,2.467758085,0.00418,4.750593824,
0.0042,3.198618673,0.0042,4.38516353,
0.00422,4.66033985,0.00422,4.38516353,
0.00424,3.929479262,0.00424,4.750593824,
0.00426,4.66033985,0.00426,4.019733236,
0.00428,4.66033985,0.00428,4.019733236,
0.0043,5.025770144,0.0043,4.38516353,
0.00432,3.929479262,0.00432,4.019733236,
0.00434,3.929479262,0.00434,4.750593824,
0.00436,2.102327791,0.00436,4.750593824,
0.00438,2.102327791,0.00438,4.019733236,
0.0044,1.736897497,0.0044,4.750593824,
0.00442,1.736897497,0.00442,4.750593824,
0.00444,0.2751763201,0.00444,4.38516353,
0.00446,1.371467203,0.00446,4.38516353,
0.00448,-0.8211145624,0.00448,4.38516353,
0.0045,0.2751763201,0.0045,4.750593824,
0.00452,-0.8211145624,0.00452,4.750593824,
0.00454,-1.551975151,0.00454,5.481454413,
0.00456,-1.551975151,0.00456,4.019733236,
0.00458,-3.744556916,0.00458,4.38516353,
0.0046,-3.379126622,0.0046,4.38516353,
0.00462,-2.282835739,0.00462,4.019733236,
0.00464,-3.013696327,0.00464,4.750593824,
0.00466,-3.744556916,0.00466,5.481454413,
0.00468,-3.013696327,0.00468,4.019733236,
0.0047,-3.379126622,0.0047,4.019733236,
0.00472,-3.744556916,0.00472,4.750593824,
0.00474,-4.840847798,0.00474,4.750593824,
0.00476,-4.475417504,0.00476,3.654302942,
0.00478,-3.744556916,0.00478,4.38516353,
0.0048,-2.648266033,0.0048,4.019733236,
0.00482,-2.282835739,0.00482,4.019733236,
0.00484,-2.282835739,0.00484,4.38516353,
0.00486,-1.917405445,0.00486,2.923442353,
0.00488,-2.282835739,0.00488,4.38516353,
0.0049,-1.551975151,0.0049,4.750593824,
0.00492,-0.8211145624,0.00492,4.750593824,
0.00494,-1.186544857,0.00494,4.38516353,
0.00496,-0.09025397405,0.00496,4.750593824,
0.00498,0.2751763201,0.00498,4.750593824,
0.005,2.102327791,0.005,5.116024118,
0.00502,1.371467203,0.00502,4.38516353,
0.00504,1.736897497,0.00504,4.38516353,
0.00506,3.198618673,0.00506,5.481454413,
0.00508,2.102327791,0.00508,4.750593824,
0.0051,3.198618673,0.0051,4.38516353,
0.00512,4.66033985,0.00512,4.38516353,
0.00514,3.564048968,0.00514,4.38516353,
0.00516,3.929479262,0.00516,4.019733236,
0.00518,5.391200439,0.00518,4.750593824,
0.0052,3.929479262,0.0052,4.750593824,
0.00522,5.756630733,0.00522,4.38516353,
0.00524,3.929479262,0.00524,4.750593824,
0.00526,2.467758085,0.00526,4.019733236,
0.00528,2.467758085,0.00528,4.38516353,
0.0053,2.102327791,0.0053,4.38516353,
0.00532,2.467758085,0.00532,4.38516353,
0.00534,1.736897497,0.00534,4.38516353,
0.00536,0.6406066143,0.00536,5.116024118,
0.00538,1.371467203,0.00538,4.38516353,
0.0054,0.2751763201,0.0054,4.38516353,
0.00542,-0.4556842682,0.00542,4.38516353,
0.00544,-0.4556842682,0.00544,4.750593824,
0.00546,-1.917405445,0.00546,3.654302942,
0.00548,-1.551975151,0.00548,4.750593824,
0.0055,-2.282835739,0.0055,4.38516353,
0.00552,-1.917405445,0.00552,4.38516353,
0.00554,-3.013696327,0.00554,4.750593824,
0.00556,-1.551975151,0.00556,4.38516353,
0.00558,-1.551975151,0.00558,4.019733236,
0.0056,-3.013696327,0.0056,4.019733236,
0.00562,-3.744556916,0.00562,4.750593824,
0.00564,-3.379126622,0.00564,4.38516353,
0.00566,-3.744556916,0.00566,5.481454413,
0.00568,-4.10998721,0.00568,4.750593824,
0.0057,-3.013696327,0.0057,4.38516353,
0.00572,-3.013696327,0.00572,4.750593824,
0.00574,-1.917405445,0.00574,4.38516353,
0.00576,-2.282835739,0.00576,4.38516353,
0.00578,-0.09025397405,0.00578,3.654302942,
0.0058,-0.8211145624,0.0058,4.019733236,
0.00582,-1.186544857,0.00582,4.019733236,
0.00584,-1.551975151,0.00584,4.019733236,
0.00586,0.2751763201,0.00586,4.019733236,
0.00588,-0.09025397405,0.00588,4.38516353,
0.0059,-0.4556842682,0.0059,4.38516353,
0.00592,1.371467203,0.00592,4.38516353,
0.00594,1.371467203,0.00594,4.019733236,
0.00596,3.198618673,0.00596,3.288872648,
0.00598,1.371467203,0.00598,4.019733236,
0.006,3.564048968,0.006,4.38516353,
0.00602,3.198618673,0.00602,4.019733236,
0.00604,3.198618673,0.00604,4.38516353,
0.00606,2.467758085,0.00606,4.750593824,
0.00608,2.102327791,0.00608,4.019733236,
0.0061,3.929479262,0.0061,4.38516353,
0.00612,3.929479262,0.00612,4.019733236,
0.00614,3.198618673,0.00614,4.019733236,
0.00616,3.929479262,0.00616,4.38516353,
0.00618,5.025770144,0.00618,4.38516353,
0.0062,0.2751763201,0.0062,4.38516353,
0.00622,2.467758085,0.00622,4.019733236,
0.00624,4.294909556,0.00624,4.38516353,
0.00626,1.736897497,0.00626,3.654302942,
0.00628,1.371467203,0.00628,4.38516353,
0.0063,1.736897497,0.0063,4.019733236,
0.00632,0.2751763201,0.00632,4.019733236,
0.00634,0.6406066143,0.00634,4.38516353,
0.00636,-1.551975151,0.00636,4.019733236,
0.00638,2.102327791,0.00638,3.288872648,
0.0064,-1.551975151,0.0064,4.38516353,
0.00642,-1.186544857,0.00642,4.38516353,
0.00644,-3.379126622,0.00644,3.654302942,
0.00646,-3.013696327,0.00646,4.750593824,
0.00648,0.6406066143,0.00648,4.38516353,
0.0065,-2.648266033,0.0065,4.019733236,
0.00652,-2.648266033,0.00652,4.38516353,
0.00654,-3.379126622,0.00654,4.38516353,
0.00656,-3.379126622,0.00656,4.019733236,
0.00658,-5.206278092,0.00658,4.38516353,
0.0066,-3.013696327,0.0066,4.38516353,
0.00662,-3.013696327,0.00662,4.019733236,
0.00664,-4.10998721,0.00664,4.38516353,
0.00666,-4.475417504,0.00666,4.38516353,
0.00668,-1.551975151,0.00668,4.019733236,
0.0067,-1.917405445,0.0067,4.750593824,
0.00672,-2.282835739,0.00672,4.750593824,
0.00674,-2.282835739,0.00674,4.019733236,
0.00676,0.2751763201,0.00676,4.38516353,
0.00678,-1.186544857,0.00678,4.38516353,
0.0068,0.2751763201,0.0068,4.019733236,
0.00682,0.6406066143,0.00682,4.38516353,
0.00684,0.2751763201,0.00684,4.750593824,
0.00686,-1.186544857,0.00686,4.38516353,
0.00688,1.736897497,0.00688,4.38516353,
0.0069,2.833188379,0.0069,4.38516353,
0.00692,2.833188379,0.00692,4.38516353,
0.00694,4.66033985,0.00694,4.38516353,
0.00696,3.198618673,0.00696,4.38516353,
0.00698,5.025770144,0.00698,3.654302942,
0.007,3.929479262,0.007,5.846884707,
0.00702,3.564048968,0.00702,4.019733236,
0.00704,4.294909556,0.00704,4.38516353,
0.00706,2.467758085,0.00706,4.750593824,
0.00708,3.929479262,0.00708,4.38516353,
0.0071,3.564048968,0.0071,4.38516353,
0.00712,3.929479262,0.00712,4.750593824,
0.00714,3.198618673,0.00714,4.38516353,
0.00716,2.467758085,0.00716,4.019733236,
0.00718,1.006036908,0.00718,4.019733236,
0.0072,2.102327791,0.0072,4.38516353,
0.00722,2.102327791,0.00722,4.38516353,
0.00724,1.006036908,0.00724,4.750593824,
0.00726,2.467758085,0.00726,4.019733236,
0.00728,-0.4556842682,0.00728,4.019733236,
0.0073,0.6406066143,0.0073,4.750593824,
0.00732,-0.09025397405,0.00732,4.750593824,
0.00734,-1.186544857,0.00734,4.019733236,
0.00736,-1.551975151,0.00736,4.38516353,
0.00738,-1.917405445,0.00738,4.38516353,
0.0074,-2.648266033,0.0074,4.38516353,
0.00742,-2.282835739,0.00742,3.654302942,
0.00744,-2.648266033,0.00744,4.019733236,
0.00746,-3.379126622,0.00746,4.019733236,
0.00748,-3.379126622,0.00748,4.38516353,
0.0075,-3.013696327,0.0075,4.019733236,
0.00752,-4.475417504,0.00752,3.654302942,
0.00754,-3.013696327,0.00754,4.019733236,
0.00756,-3.744556916,0.00756,4.750593824,
0.00758,-3.013696327,0.00758,4.38516353,
0.0076,-1.917405445,0.0076,4.38516353,
0.00762,-3.744556916,0.00762,4.38516353,
0.00764,-2.282835739,0.00764,4.019733236,
0.00766,-3.379126622,0.00766,4.38516353,
0.00768,-1.551975151,0.00768,4.38516353,
0.0077,-0.4556842682,0.0077,4.750593824,
0.00772,-0.8211145624,0.00772,4.019733236,
0.00774,0.2751763201,0.00774,4.019733236,
0.00776,0.6406066143,0.00776,5.116024118,
0.00778,-0.4556842682,0.00778,4.38516353,
0.0078,0.2751763201,0.0078,3.654302942,
0.00782,1.371467203,0.00782,4.750593824,
0.00784,2.102327791,0.00784,4.019733236,
0.00786,2.467758085,0.00786,4.019733236,
0.00788,1.736897497,0.00788,4.750593824,
0.0079,2.833188379,0.0079,4.38516353,
0.00792,2.102327791,0.00792,3.654302942,
0.00794,3.564048968,0.00794,4.750593824,
0.00796,2.467758085,0.00796,4.38516353,
0.00798,4.294909556,0.00798,3.288872648,
0.008,3.929479262,0.008,4.750593824,
0.00802,3.564048968,0.00802,4.38516353,
0.00804,3.198618673,0.00804,3.654302942,
0.00806,3.198618673,0.00806,4.750593824,
0.00808,3.198618673,0.00808,4.019733236,
0.0081,3.198618673,0.0081,4.38516353,
0.00812,2.467758085,0.00812,4.750593824,
0.00814,-0.09025397405,0.00814,4.38516353,
0.00816,1.371467203,0.00816,4.019733236,
0.00818,0.6406066143,0.00818,4.750593824,
0.0082,-0.09025397405,0.0082,4.38516353,
0.00822,-0.4556842682,0.00822,4.019733236,
0.00824,-0.8211145624,0.00824,4.750593824,
0.00826,-1.917405445,0.00826,4.019733236,
0.00828,-3.013696327,0.00828,4.38516353,
0.0083,-1.551975151,0.0083,4.38516353,
0.00832,-1.551975151,0.00832,4.38516353,
0.00834,-2.648266033,0.00834,4.019733236,
0.00836,-1.917405445,0.00836,4.38516353,
0.00838,-3.744556916,0.00838,4.019733236,
0.0084,-5.571708387,0.0084,4.019733236,
0.00842,-4.475417504,0.00842,5.481454413,
0.00844,-4.475417504,0.00844,4.019733236,
0.00846,-5.206278092,0.00846,4.38516353,
0.00848,-3.013696327,0.00848,4.38516353,
0.0085,-4.475417504,0.0085,4.38516353,
0.00852,-4.10998721,0.00852,4.019733236,
0.00854,-3.379126622,0.00854,4.750593824,
0.00856,-3.379126622,0.00856,4.38516353,
0.00858,-0.8211145624,0.00858,5.481454413,
0.0086,-1.551975151,0.0086,4.750593824,
0.00862,-3.744556916,0.00862,4.019733236,
0.00864,-1.917405445,0.00864,3.288872648,
0.00866,-1.186544857,0.00866,4.750593824,
0.00868,-0.09025397405,0.00868,4.38516353,
0.0087,1.371467203,0.0087,4.019733236,
0.00872,3.564048968,0.00872,4.750593824,
0.00874,1.371467203,0.00874,4.019733236,
0.00876,1.736897497,0.00876,4.019733236,
0.00878,1.371467203,0.00878,4.019733236,
0.0088,1.006036908,0.0088,4.019733236,
0.00882,1.371467203,0.00882,4.019733236,
0.00884,3.198618673,0.00884,5.116024118,
0.00886,3.198618673,0.00886,4.38516353,
0.00888,3.198618673,0.00888,3.288872648,
0.0089,3.564048968,0.0089,4.750593824,
0.00892,2.467758085,0.00892,4.750593824,
0.00894,3.564048968,0.00894,4.019733236,
0.00896,3.564048968,0.00896,5.116024118,
0.00898,2.467758085,0.00898,6.577745295,
0.009,2.833188379,0.009,4.019733236,
0.00902,4.294909556,0.00902,5.116024118,
0.00904,1.736897497,0.00904,4.38516353,
0.00906,1.736897497,0.00906,4.019733236,
0.00908,2.467758085,0.00908,4.38516353,
0.0091,-0.4556842682,0.0091,4.38516353,
0.00912,4.294909556,0.00912,4.38516353,
0.00914,-0.4556842682,0.00914,4.38516353,
0.00916,-0.09025397405,0.00916,4.750593824,
0.00918,-0.8211145624,0.00918,2.923442353,
0.0092,-0.09025397405,0.0092,4.38516353,
0.00922,-1.917405445,0.00922,4.38516353,
0.00924,-3.379126622,0.00924,4.38516353,
0.00926,-2.648266033,0.00926,4.750593824,
0.00928,-2.648266033,0.00928,5.116024118,
0.0093,-3.744556916,0.0093,4.750593824,
0.00932,-4.10998721,0.00932,4.750593824,
0.00934,-3.744556916,0.00934,4.750593824,
0.00936,-3.379126622,0.00936,4.38516353,
0.00938,-3.744556916,0.00938,5.481454413,
0.0094,-4.10998721,0.0094,4.38516353,
0.00942,-3.744556916,0.00942,4.750593824,
0.00944,-4.840847798,0.00944,4.38516353,
0.00946,-1.551975151,0.00946,4.38516353,
0.00948,-3.379126622,0.00948,2.923442353,
0.0095,-3.013696327,0.0095,5.116024118,
0.00952,-2.648266033,0.00952,3.288872648,
0.00954,-0.8211145624,0.00954,4.38516353,
0.00956,-0.09025397405,0.00956,5.481454413,
0.00958,1.006036908,0.00958,3.654302942,
0.0096,0.2751763201,0.0096,4.750593824,
0.00962,-0.09025397405,0.00962,4.750593824,
0.00964,0.6406066143,0.00964,4.019733236,
0.00966,1.371467203,0.00966,4.750593824,
0.00968,1.371467203,0.00968,4.750593824,
0.0097,3.198618673,0.0097,4.750593824,
0.00972,2.833188379,0.00972,4.750593824,
0.00974,2.833188379,0.00974,4.38516353,
0.00976,2.467758085,0.00976,4.750593824,
0.00978,6.122061027,0.00978,5.846884707,
0.0098,3.929479262,0.0098,4.38516353,
0.00982,5.756630733,0.00982,4.750593824,
0.00984,5.756630733,0.00984,4.750593824,
0.00986,3.198618673,0.00986,4.38516353,
0.00988,3.198618673,0.00988,4.019733236,
0.0099,2.467758085,0.0099,4.750593824,
0.00992,2.833188379,0.00992,4.750593824,
0.00994,2.833188379,0.00994,4.750593824,
0.00996,2.102327791,0.00996,5.116024118,
0.00998,0.6406066143,0.00998,4.019733236,
0.01,1.006036908,0.01,4.38516353,
0.01002,2.833188379,0.01002,4.750593824,
0.01004,0.2751763201,0.01004,4.750593824,
0.01006,0.2751763201,0.01006,4.38516353,
0.01008,-0.4556842682,0.01008,5.116024118,
0.0101,-0.09025397405,0.0101,4.38516353,
0.01012,1.006036908,0.01012,4.38516353,
0.01014,-2.282835739,0.01014,4.750593824,
0.01016,-0.8211145624,0.01016,4.750593824,
0.01018,-1.551975151,0.01018,5.116024118,
0.0102,-4.10998721,0.0102,4.38516353,
0.01022,-2.648266033,0.01022,4.38516353,
0.01024,-2.648266033,0.01024,4.38516353,
0.01026,-2.648266033,0.01026,4.750593824,
0.01028,-3.013696327,0.01028,4.019733236,
0.0103,-4.10998721,0.0103,4.019733236,
0.01032,-4.10998721,0.01032,5.116024118,
0.01034,-3.744556916,0.01034,4.38516353,
0.01036,-3.013696327,0.01036,4.019733236,
0.01038,-1.917405445,0.01038,4.750593824,
0.0104,-0.8211145624,0.0104,4.38516353,
0.01042,-3.744556916,0.01042,4.750593824,
0.01044,-2.648266033,0.01044,5.116024118,
0.01046,-0.8211145624,0.01046,4.750593824,
0.01048,-2.282835739,0.01048,4.38516353,
0.0105,-1.551975151,0.0105,4.750593824,
0.01052,-0.4556842682,0.01052,4.38516353,
0.01054,-0.8211145624,0.01054,3.654302942,
0.01056,-0.4556842682,0.01056,4.750593824,
0.01058,0.2751763201,0.01058,4.750593824,
0.0106,3.198618673,0.0106,4.38516353,
0.01062,3.929479262,0.01062,4.750593824,
0.01064,1.371467203,0.01064,4.38516353,
0.01066,3.564048968,0.01066,4.019733236,
0.01068,2.467758085,0.01068,5.116024118,
0.0107,1.371467203,0.0107,4.750593824,
0.01072,3.198618673,0.01072,4.38516353,
0.01074,5.391200439,0.01074,4.38516353,
0.01076,3.564048968,0.01076,4.38516353,
0.01078,3.929479262,0.01078,3.654302942,
0.0108,4.66033985,0.0108,5.481454413,
0.01082,3.198618673,0.01082,4.019733236,
0.01084,5.391200439,0.01084,4.38516353,
0.01086,3.198618673,0.01086,4.750593824,
0.01088,1.371467203,0.01088,4.38516353,
0.0109,3.929479262,0.0109,4.38516353,
0.01092,2.467758085,0.01092,4.750593824,
0.01094,1.371467203,0.01094,4.38516353,
0.01096,1.736897497,0.01096,4.38516353,
0.01098,0.6406066143,0.01098,5.116024118,
0.011,0.2751763201,0.011,4.38516353,
0.01102,0.2751763201,0.01102,4.019733236,
0.01104,-0.4556842682,0.01104,4.38516353,
0.01106,-1.917405445,0.01106,4.750593824,
0.01108,-2.648266033,0.01108,4.38516353,
0.0111,-1.186544857,0.0111,4.750593824,
0.01112,-2.648266033,0.01112,4.38516353,
0.01114,-2.282835739,0.01114,4.38516353,
0.01116,-3.379126622,0.01116,5.116024118,
0.01118,-4.840847798,0.01118,4.38516353,
0.0112,-3.744556916,0.0112,4.019733236,
0.01122,-1.917405445,0.01122,4.750593824,
0.01124,-3.744556916,0.01124,4.750593824,
0.01126,-2.648266033,0.01126,4.019733236,
0.01128,-3.013696327,0.01128,4.750593824,
0.0113,-4.10998721,0.0113,4.019733236,
0.01132,-2.282835739,0.01132,4.38516353,
0.01134,-2.648266033,0.01134,4.750593824,
0.01136,-3.379126622,0.01136,4.750593824,
0.01138,-2.648266033,0.01138,4.38516353,
0.0114,-0.8211145624,0.0114,4.38516353,
0.01142,-1.917405445,0.01142,4.750593824,
0.01144,-0.4556842682,0.01144,4.38516353,
0.01146,-1.551975151,0.01146,4.38516353,
0.01148,0.6406066143,0.01148,4.019733236,
0.0115,0.6406066143,0.0115,4.019733236,
0.01152,1.006036908,0.01152,4.019733236,
0.01154,2.467758085,0.01154,4.019733236,
0.01156,1.371467203,0.01156,4.38516353,
0.01158,2.467758085,0.01158,3.654302942,
0.0116,2.833188379,0.0116,4.750593824,
0.01162,2.467758085,0.01162,4.38516353,
0.01164,3.929479262,0.01164,4.019733236,
0.01166,3.564048968,0.01166,4.38516353,
0.01168,4.294909556,0.01168,4.38516353,
0.0117,3.564048968,0.0117,4.019733236,
0.01172,6.122061027,0.01172,4.38516353,
0.01174,3.929479262,0.01174,4.38516353,
0.01176,3.198618673,0.01176,4.019733236,
0.01178,2.833188379,0.01178,4.38516353,
0.0118,3.929479262,0.0118,4.38516353,
0.01182,2.467758085,0.01182,4.019733236,
0.01184,2.833188379,0.01184,4.019733236,
0.01186,2.102327791,0.01186,4.019733236,
0.01188,1.006036908,0.01188,4.019733236,
0.0119,2.102327791,0.0119,4.019733236,
0.01192,0.6406066143,0.01192,4.38516353,
0.01194,-0.09025397405,0.01194,4.019733236,
0.01196,-0.4556842682,0.01196,4.019733236,
0.01198,-1.186544857,0.01198,4.38516353,
0.012,-1.551975151,0.012,4.019733236,
0.01202,-1.186544857,0.01202,3.654302942,
0.01204,-2.282835739,0.01204,4.38516353,
0.01206,-2.648266033,0.01206,4.019733236,
0.01208,-3.013696327,0.01208,4.38516353,
0.0121,-3.013696327,0.0121,4.38516353,
0.01212,-3.744556916,0.01212,4.019733236,
0.01214,-3.013696327,0.01214,4.38516353,
0.01216,-5.206278092,0.01216,4.38516353,
0.01218,-3.013696327,0.01218,4.019733236,
0.0122,-4.475417504,0.0122,4.38516353,
0.01222,-2.648266033,0.01222,4.019733236,
0.01224,-3.744556916,0.01224,4.019733236,
0.01226,-2.282835739,0.01226,4.38516353,
0.01228,-1.186544857,0.01228,4.019733236,
0.0123,-1.551975151,0.0123,3.654302942,
0.01232,-1.186544857,0.01232,4.38516353,
0.01234,-1.186544857,0.01234,4.38516353,
0.01236,-0.8211145624,0.01236,4.38516353,
0.01238,-0.4556842682,0.01238,4.019733236,
0.0124,-0.09025397405,0.0124,5.116024118,
0.01242,0.2751763201,0.01242,4.019733236,
0.01244,2.102327791,0.01244,4.750593824,
0.01246,1.371467203,0.01246,4.38516353,
0.01248,1.006036908,0.01248,4.019733236,
0.0125,2.102327791,0.0125,4.38516353,
0.01252,2.102327791,0.01252,4.38516353,
0.01254,2.467758085,0.01254,3.654302942,
0.01256,3.198618673,0.01256,4.38516353,
0.01258,3.198618673,0.01258,4.019733236,
0.0126,3.198618673,0.0126,3.288872648,
0.01262,3.929479262,0.01262,4.38516353,
0.01264,5.025770144,0.01264,4.38516353,
0.01266,3.198618673,0.01266,3.654302942,
0.01268,4.66033985,0.01268,4.38516353,
0.0127,3.564048968,0.0127,4.38516353,
0.01272,1.736897497,0.01272,4.38516353,
0.01274,3.198618673,0.01274,4.38516353,
0.01276,2.467758085,0.01276,4.38516353,
0.01278,2.467758085,0.01278,4.019733236,
0.0128,3.929479262,0.0128,4.750593824,
0.01282,1.736897497,0.01282,4.38516353,
0.01284,2.102327791,0.01284,4.019733236,
0.01286,1.371467203,0.01286,4.019733236,
0.01288,1.736897497,0.01288,4.38516353,
0.0129,-1.186544857,0.0129,4.750593824,
0.01292,-0.09025397405,0.01292,4.38516353,
0.01294,-0.8211145624,0.01294,4.38516353,
0.01296,-2.282835739,0.01296,3.654302942,
0.01298,-1.551975151,0.01298,4.38516353,
0.013,-2.648266033,0.013,3.288872648,
0.01302,-2.282835739,0.01302,3.654302942,
0.01304,-3.744556916,0.01304,4.750593824,
0.01306,-3.013696327,0.01306,4.019733236,
0.01308,-3.744556916,0.01308,4.019733236,
0.0131,-3.379126622,0.0131,3.654302942,
0.01312,-3.379126622,0.01312,4.38516353,
0.01314,-3.744556916,0.01314,3.654302942,
0.01316,-3.013696327,0.01316,4.750593824,
0.01318,-2.282835739,0.01318,4.38516353,
0.0132,-0.4556842682,0.0132,5.116024118,
0.01322,-3.013696327,0.01322,4.38516353,
0.01324,-2.648266033,0.01324,4.019733236,
0.01326,-1.917405445,0.01326,4.019733236,
0.01328,-0.4556842682,0.01328,4.750593824,
0.0133,-1.186544857,0.0133,5.116024118,
0.01332,-0.8211145624,0.01332,3.654302942,
0.01334,0.6406066143,0.01334,4.38516353,
0.01336,-1.186544857,0.01336,4.019733236,
0.01338,-0.8211145624,0.01338,4.750593824,
0.0134,1.736897497,0.0134,5.481454413,
0.01342,0.6406066143,0.01342,4.019733236,
0.01344,2.833188379,0.01344,4.750593824,
0.01346,1.736897497,0.01346,4.38516353,
0.01348,3.198618673,0.01348,4.750593824,
0.0135,2.833188379,0.0135,3.654302942,
0.01352,1.736897497,0.01352,4.019733236,
0.01354,3.929479262,0.01354,4.750593824,
0.01356,4.294909556,0.01356,4.750593824,
0.01358,3.929479262,0.01358,4.019733236,
0.0136,3.198618673,0.0136,4.38516353,
0.01362,4.294909556,0.01362,4.750593824,
0.01364,2.833188379,0.01364,4.38516353,
0.01366,3.564048968,0.01366,4.38516353,
0.01368,2.467758085,0.01368,4.750593824,
0.0137,1.736897497,0.0137,5.116024118,
0.01372,3.564048968,0.01372,4.38516353,
0.01374,1.736897497,0.01374,5.116024118,
0.01376,-0.09025397405,0.01376,4.38516353,
0.01378,-0.4556842682,0.01378,4.019733236,
0.0138,0.2751763201,0.0138,4.38516353,
0.01382,-0.4556842682,0.01382,4.38516353,
0.01384,-1.186544857,0.01384,4.019733236,
0.01386,-1.186544857,0.01386,4.750593824,
0.01388,-3.379126622,0.01388,4.38516353,
0.0139,-2.282835739,0.0139,3.654302942,
0.01392,-7.033429563,0.01392,5.116024118,
0.01394,-3.013696327,0.01394,4.019733236,
0.01396,-3.744556916,0.01396,4.38516353,
0.01398,-3.379126622,0.01398,4.750593824,
0.014,-4.10998721,0.014,4.750593824,
0.01402,-4.840847798,0.01402,4.38516353,
0.01404,-3.744556916,0.01404,4.38516353,
0.01406,-3.013696327,0.01406,4.019733236,
0.01408,-3.744556916,0.01408,4.019733236,
0.0141,-4.475417504,0.0141,5.116024118,
0.01412,-1.551975151,0.01412,4.019733236,
0.01414,-1.917405445,0.01414,4.38516353,
0.01416,-3.379126622,0.01416,4.38516353,
0.01418,-1.917405445,0.01418,4.38516353,
0.0142,-1.917405445,0.0142,4.019733236,
0.01422,-3.013696327,0.01422,4.750593824,
0.01424,0.6406066143,0.01424,4.019733236,
0.01426,-1.186544857,0.01426,4.019733236,
0.01428,-0.09025397405,0.01428,4.38516353,
0.0143,1.371467203,0.0143,4.750593824,
0.01432,1.736897497,0.01432,4.38516353,
0.01434,1.371467203,0.01434,4.38516353,
0.01436,1.736897497,0.01436,4.750593824,
0.01438,2.102327791,0.01438,4.38516353,
0.0144,3.198618673,0.0144,4.38516353,
0.01442,6.487491321,0.01442,4.38516353,
0.01444,3.929479262,0.01444,4.750593824,
0.01446,3.929479262,0.01446,4.38516353,
0.01448,3.929479262,0.01448,4.38516353,
0.0145,3.929479262,0.0145,4.750593824,
0.01452,3.198618673,0.01452,4.38516353,
0.01454,2.833188379,0.01454,3.654302942,
0.01456,3.929479262,0.01456,3.654302942,
0.01458,3.929479262,0.01458,4.019733236,
0.0146,5.025770144,0.0146,4.019733236,
0.01462,1.371467203,0.01462,4.019733236,
0.01464,2.467758085,0.01464,4.38516353,
0.01466,2.467758085,0.01466,4.019733236,
0.01468,2.467758085,0.01468,4.019733236,
0.0147,1.006036908,0.0147,4.38516353,
0.01472,1.371467203,0.01472,3.654302942,
0.01474,-0.4556842682,0.01474,4.38516353,
0.01476,-0.8211145624,0.01476,4.750593824,
0.01478,-1.551975151,0.01478,4.019733236,
0.0148,-1.186544857,0.0148,4.38516353,
0.01482,-3.013696327,0.01482,4.38516353,
0.01484,-0.8211145624,0.01484,4.019733236,
0.01486,-1.186544857,0.01486,4.750593824,
0.01488,-2.648266033,0.01488,4.019733236,
0.0149,-3.744556916,0.0149,3.654302942,
0.01492,-3.013696327,0.01492,4.38516353,
0.01494,-2.648266033,0.01494,4.38516353,
0.01496,-4.10998721,0.01496,3.654302942,
0.01498,-4.475417504,0.01498,4.019733236,
0.015,-2.648266033,0.015,4.38516353,
0.01502,-3.744556916,0.01502,4.019733236,
0.01504,-3.379126622,0.01504,4.750593824,
0.01506,-0.8211145624,0.01506,3.654302942,
0.01508,-3.013696327,0.01508,4.019733236,
0.0151,-1.551975151,0.0151,4.750593824,
0.01512,-1.186544857,0.01512,4.38516353,
0.01514,-1.551975151,0.01514,3.654302942,
0.01516,-0.09025397405,0.01516,4.019733236,
0.01518,-0.4556842682,0.01518,4.019733236,
0.0152,-0.09025397405,0.0152,4.019733236,
0.01522,1.006036908,0.01522,4.38516353,
0.01524,0.6406066143,0.01524,4.019733236,
0.01526,1.736897497,0.01526,4.019733236,
0.01528,2.102327791,0.01528,4.38516353,
0.0153,1.371467203,0.0153,4.38516353,
0.01532,1.736897497,0.01532,4.019733236,
0.01534,3.564048968,0.01534,4.38516353,
0.01536,3.198618673,0.01536,4.38516353,
0.01538,3.198618673,0.01538,3.654302942,
0.0154,3.564048968,0.0154,4.38516353,
0.01542,4.294909556,0.01542,4.38516353,
0.01544,4.294909556,0.01544,4.019733236,
0.01546,5.756630733,0.01546,4.38516353,
0.01548,2.833188379,0.01548,4.38516353,
0.0155,3.198618673,0.0155,3.288872648,
0.01552,5.025770144,0.01552,4.019733236,
0.01554,2.833188379,0.01554,4.750593824,
0.01556,1.736897497,0.01556,3.654302942,
0.01558,2.102327791,0.01558,4.38516353,
0.0156,2.102327791,0.0156,4.38516353,
0.01562,1.006036908,0.01562,3.654302942,
0.01564,1.736897497,0.01564,4.38516353,
0.01566,-0.09025397405,0.01566,4.750593824,
0.01568,-0.09025397405,0.01568,3.654302942,
0.0157,0.2751763201,0.0157,4.38516353,
0.01572,-1.551975151,0.01572,4.750593824,
0.01574,-1.551975151,0.01574,3.654302942,
0.01576,-1.186544857,0.01576,4.38516353,
0.01578,-1.917405445,0.01578,4.38516353,
0.0158,-2.648266033,0.0158,4.019733236,
0.01582,-2.282835739,0.01582,3.654302942,
0.01584,-2.648266033,0.01584,4.019733236,
0.01586,-3.013696327,0.01586,4.019733236,
0.01588,-4.475417504,0.01588,4.019733236,
0.0159,-3.379126622,0.0159,4.38516353,
0.01592,-4.475417504,0.01592,4.38516353,
0.01594,-3.013696327,0.01594,4.38516353,
0.01596,-3.013696327,0.01596,4.38516353,
0.01598,-3.013696327,0.01598,4.019733236,
0.016,-3.013696327,0.016,4.38516353,
0.01602,-1.186544857,0.01602,4.750593824,
0.01604,-1.917405445,0.01604,4.019733236,
0.01606,-3.379126622,0.01606,4.38516353,
0.01608,-1.551975151,0.01608,4.019733236,
0.0161,-0.8211145624,0.0161,4.019733236,
0.01612,-1.917405445,0.01612,4.38516353,
0.01614,0.6406066143,0.01614,4.38516353,
0.01616,0.6406066143,0.01616,4.019733236,
0.01618,0.6406066143,0.01618,4.38516353,
0.0162,1.006036908,0.0162,4.38516353,
0.01622,0.6406066143,0.01622,5.846884707,
0.01624,1.736897497,0.01624,4.38516353,
0.01626,1.736897497,0.01626,4.38516353,
0.01628,3.564048968,0.01628,4.750593824,
0.0163,0.2751763201,0.0163,4.38516353,
0.01632,4.294909556,0.01632,2.558012059,
0.01634,3.929479262,0.01634,5.116024118,
0.01636,3.564048968,0.01636,4.019733236,
0.01638,3.564048968,0.01638,4.38516353,
0.0164,3.198618673,0.0164,4.750593824,
0.01642,3.564048968,0.01642,5.481454413,
0.01644,4.294909556,0.01644,4.019733236,
0.01646,2.467758085,0.01646,4.750593824,
0.01648,1.736897497,0.01648,4.019733236,
0.0165,2.467758085,0.0165,4.38516353,
0.01652,4.294909556,0.01652,5.116024118,
0.01654,2.102327791,0.01654,4.019733236,
0.01656,-0.09025397405,0.01656,4.38516353,
0.01658,0.2751763201,0.01658,4.750593824,
0.0166,-0.4556842682,0.0166,4.019733236,
0.01662,-0.4556842682,0.01662,4.38516353,
0.01664,0.2751763201,0.01664,4.750593824,
0.01666,-2.282835739,0.01666,4.38516353,
0.01668,-1.551975151,0.01668,4.38516353,
0.0167,-2.282835739,0.0167,5.116024118,
0.01672,-2.648266033,0.01672,4.750593824,
0.01674,-4.475417504,0.01674,4.38516353,
0.01676,-0.09025397405,0.01676,4.750593824,
0.01678,-3.744556916,0.01678,4.38516353,
0.0168,-1.917405445,0.0168,4.019733236,
0.01682,-3.379126622,0.01682,4.38516353,
0.01684,-4.840847798,0.01684,4.38516353,
0.01686,-4.475417504,0.01686,4.019733236,
0.01688,-3.013696327,0.01688,5.116024118,
0.0169,-3.013696327,0.0169,4.750593824,
0.01692,-5.571708387,0.01692,3.654302942,
0.01694,-1.551975151,0.01694,4.750593824,
0.01696,-4.10998721,0.01696,4.750593824,
0.01698,-2.648266033,0.01698,4.019733236,
0.017,-2.648266033,0.017,4.38516353,
0.01702,-2.282835739,0.01702,4.750593824,
0.01704,-2.282835739,0.01704,3.288872648,
0.01706,0.2751763201,0.01706,5.116024118,
0.01708,-0.09025397405,0.01708,4.019733236,
0.0171,1.006036908,0.0171,3.654302942,
0.01712,1.006036908,0.01712,5.116024118,
0.01714,0.2751763201,0.01714,4.38516353,
0.01716,2.467758085,0.01716,4.38516353,
0.01718,2.102327791,0.01718,4.750593824,
0.0172,1.736897497,0.0172,4.019733236,
0.01722,2.467758085,0.01722,3.654302942,
0.01724,3.198618673,0.01724,4.750593824,
0.01726,2.833188379,0.01726,4.019733236,
0.01728,3.198618673,0.01728,4.019733236,
0.0173,3.564048968,0.0173,4.38516353,
0.01732,4.294909556,0.01732,4.019733236,
0.01734,3.564048968,0.01734,4.019733236,
0.01736,3.564048968,0.01736,4.750593824,
0.01738,2.833188379,0.01738,4.38516353,
0.0174,3.564048968,0.0174,4.38516353,
0.01742,2.833188379,0.01742,5.116024118,
0.01744,2.102327791,0.01744,4.019733236,
0.01746,4.66033985,0.01746,4.38516353,
0.01748,1.371467203,0.01748,4.750593824,
0.0175,0.2751763201,0.0175,4.38516353,
0.01752,-0.09025397405,0.01752,4.019733236,
0.01754,-0.8211145624,0.01754,4.750593824,
0.01756,-0.8211145624,0.01756,4.019733236,
0.01758,-1.186544857,0.01758,4.019733236,
0.0176,-1.917405445,0.0176,4.750593824,
0.01762,-4.840847798,0.01762,4.019733236,
0.01764,-3.013696327,0.01764,4.38516353,
0.01766,-2.282835739,0.01766,5.116024118,
0.01768,-1.917405445,0.01768,4.38516353,
0.0177,-3.379126622,0.0177,4.019733236,
0.01772,-3.013696327,0.01772,5.481454413,
0.01774,-3.744556916,0.01774,4.38516353,
0.01776,-4.840847798,0.01776,4.019733236,
0.01778,-3.379126622,0.01778,5.116024118,
0.0178,-4.475417504,0.0178,4.019733236,
0.01782,-4.475417504,0.01782,4.38516353,
0.01784,-3.013696327,0.01784,4.750593824,
0.01786,-4.10998721,0.01786,4.38516353,
0.01788,-3.379126622,0.01788,4.019733236,
0.0179,-1.917405445,0.0179,4.750593824,
0.01792,0.2751763201,0.01792,4.38516353,
0.01794,-3.013696327,0.01794,4.019733236,
0.01796,-2.282835739,0.01796,4.750593824,
0.01798,-1.186544857,0.01798,4.750593824,
0.018,-1.917405445,0.018,3.654302942,
0.01802,0.2751763201,0.01802,4.38516353,
0.01804,-0.09025397405,0.01804,4.38516353,
0.01806,0.2751763201,0.01806,4.019733236,
0.01808,2.102327791,0.01808,5.116024118,
0.0181,2.102327791,0.0181,4.38516353,
0.01812,2.102327791,0.01812,4.019733236,
0.01814,2.833188379,0.01814,4.750593824,
0.01816,3.564048968,0.01816,4.750593824,
0.01818,2.833188379,0.01818,4.38516353,
0.0182,4.294909556,0.0182,4.750593824,
0.01822,3.564048968,0.01822,4.38516353,
0.01824,3.929479262,0.01824,4.750593824,
0.01826,3.564048968,0.01826,4.38516353,
0.01828,3.198618673,0.01828,4.38516353,
0.0183,1.736897497,0.0183,4.750593824,
0.01832,1.736897497,0.01832,4.750593824,
0.01834,2.833188379,0.01834,4.38516353,
0.01836,2.102327791,0.01836,4.019733236,
0.01838,2.467758085,0.01838,4.38516353,
0.0184,2.102327791,0.0184,4.38516353,
0.01842,2.102327791,0.01842,4.750593824,
0.01844,1.006036908,0.01844,4.750593824,
0.01846,-0.09025397405,0.01846,4.38516353,
0.01848,-0.09025397405,0.01848,4.019733236,
0.0185,-0.8211145624,0.0185,4.38516353,
0.01852,0.6406066143,0.01852,4.38516353,
0.01854,-1.186544857,0.01854,4.38516353,
0.01856,-2.282835739,0.01856,4.38516353,
0.01858,-1.551975151,0.01858,4.38516353,
0.0186,-2.648266033,0.0186,4.38516353,
0.01862,-3.379126622,0.01862,4.38516353,
0.01864,-3.013696327,0.01864,4.38516353,
0.01866,-3.379126622,0.01866,4.019733236,
0.01868,-3.744556916,0.01868,4.38516353,
0.0187,-4.10998721,0.0187,4.019733236,
0.01872,-4.10998721,0.01872,3.654302942,
0.01874,-4.10998721,0.01874,4.750593824,
0.01876,-4.475417504,0.01876,4.019733236,
0.01878,-2.648266033,0.01878,5.116024118,
0.0188,-2.648266033,0.0188,4.38516353,
0.01882,-3.379126622,0.01882,4.38516353,
0.01884,-3.013696327,0.01884,4.38516353,
0.01886,-4.840847798,0.01886,4.38516353,
0.01888,-0.4556842682,0.01888,4.38516353,
0.0189,0.2751763201,0.0189,4.38516353,
0.01892,-0.4556842682,0.01892,4.38516353,
0.01894,0.6406066143,0.01894,4.38516353,
0.01896,0.6406066143,0.01896,4.750593824,
0.01898,2.102327791,0.01898,4.38516353,
0.019,2.102327791,0.019,4.38516353,
0.01902,0.6406066143,0.01902,4.38516353,
0.01904,1.736897497,0.01904,4.38516353,
0.01906,3.198618673,0.01906,4.38516353,
0.01908,3.929479262,0.01908,5.116024118,
0.0191,2.833188379,0.0191,4.019733236,
0.01912,3.564048968,0.01912,4.38516353,
0.01914,3.564048968,0.01914,4.750593824,
0.01916,2.102327791,0.01916,4.019733236,
0.01918,4.294909556,0.01918,3.654302942,
0.0192,3.929479262,0.0192,4.38516353,
0.01922,3.198618673,0.01922,4.38516353,
0.01924,3.198618673,0.01924,3.654302942,
0.01926,2.467758085,0.01926,4.750593824,
0.01928,2.833188379,0.01928,4.38516353,
0.0193,2.467758085,0.0193,4.019733236,
0.01932,2.102327791,0.01932,5.846884707,
0.01934,1.371467203,0.01934,5.481454413,
0.01936,1.371467203,0.01936,4.019733236,
0.01938,0.6406066143,0.01938,4.019733236,
0.0194,-1.186544857,0.0194,4.019733236,
0.01942,-0.09025397405,0.01942,4.38516353,
0.01944,-0.4556842682,0.01944,5.116024118,
0.01946,-1.186544857,0.01946,4.019733236,
0.01948,-3.013696327,0.01948,4.38516353,
0.0195,-1.917405445,0.0195,4.38516353,
0.01952,-3.013696327,0.01952,4.019733236,
0.01954,-3.013696327,0.01954,3.654302942,
0.01956,-3.379126622,0.01956,4.750593824,
0.01958,-4.475417504,0.01958,4.38516353,
0.0196,-4.840847798,0.0196,5.116024118,
0.01962,-3.379126622,0.01962,4.38516353,
0.01964,-4.475417504,0.01964,3.288872648,
0.01966,-3.379126622,0.01966,4.019733236,
0.01968,-3.379126622,0.01968,4.38516353,
0.0197,-1.917405445,0.0197,4.750593824,
0.01972,-4.10998721,0.01972,4.38516353,
0.01974,-2.648266033,0.01974,5.116024118,
0.01976,-2.648266033,0.01976,4.750593824,
0.01978,-1.917405445,0.01978,4.750593824,
0.0198,-2.648266033,0.0198,4.38516353,
0.01982,-0.4556842682,0.01982,4.750593824,
0.01984,-1.186544857,0.01984,3.654302942,
0.01986,-0.4556842682,0.01986,4.38516353,
0.01988,0.6406066143,0.01988,4.38516353,
0.0199,-1.186544857,0.0199,4.750593824,
0.01992,1.371467203,0.01992,4.019733236,
0.01994,2.833188379,0.01994,5.481454413,
0.01996,-0.4556842682,0.01996,4.38516353,
0.01998,2.833188379,0.01998,4.38516353,
0.02,3.564048968,0.02,4.750593824,
0.02002,2.467758085,0.02002,4.38516353,
0.02004,3.564048968,0.02004,4.750593824,
0.02006,3.929479262,0.02006,4.38516353,
0.02008,4.294909556,0.02008,4.019733236,
0.0201,3.564048968,0.0201,4.38516353,
0.02012,4.294909556,0.02012,4.019733236,
0.02014,1.006036908,0.02014,3.654302942,
0.02016,3.564048968,0.02016,4.38516353,
0.02018,3.198618673,0.02018,4.750593824,
0.0202,2.102327791,0.0202,3.654302942,
0.02022,2.833188379,0.02022,4.38516353,
0.02024,2.833188379,0.02024,4.38516353,
0.02026,1.006036908,0.02026,3.654302942,
0.02028,1.736897497,0.02028,4.38516353,
0.0203,1.371467203,0.0203,4.38516353,
0.02032,0.6406066143,0.02032,4.38516353,
0.02034,-0.09025397405,0.02034,4.750593824,
0.02036,-0.4556842682,0.02036,4.38516353,
0.02038,0.2751763201,0.02038,3.654302942,
0.0204,-1.186544857,0.0204,4.019733236,
0.02042,-2.648266033,0.02042,4.019733236,
0.02044,-2.648266033,0.02044,3.654302942,
0.02046,0.2751763201,0.02046,4.38516353,
0.02048,-3.379126622,0.02048,4.019733236,
0.0205,-4.10998721,0.0205,3.654302942,
0.02052,-3.013696327,0.02052,4.38516353,
0.02054,-3.379126622,0.02054,4.019733236,
0.02056,-5.206278092,0.02056,3.654302942,
0.02058,-3.744556916,0.02058,4.38516353,
0.0206,-3.379126622,0.0206,4.019733236,
0.02062,-1.551975151,0.02062,4.38516353,
0.02064,-0.8211145624,0.02064,4.750593824,
0.02066,-2.648266033,0.02066,4.019733236,
0.02068,-2.282835739,0.02068,4.019733236,
0.0207,-1.917405445,0.0207,4.38516353,
0.02072,-1.186544857,0.02072,4.019733236,
0.02074,-1.186544857,0.02074,3.654302942,
0.02076,0.2751763201,0.02076,4.38516353,
0.02078,-0.4556842682,0.02078,4.019733236,
0.0208,-0.4556842682,0.0208,4.38516353,
0.02082,1.371467203,0.02082,4.38516353,
0.02084,1.006036908,0.02084,3.654302942,
0.02086,1.006036908,0.02086,4.019733236,
0.02088,2.833188379,0.02088,4.38516353,
0.0209,2.467758085,0.0209,4.38516353,
0.02092,2.467758085,0.02092,3.654302942,
0.02094,3.198618673,0.02094,4.750593824,
0.02096,4.294909556,0.02096,4.019733236,
0.02098,4.66033985,0.02098,4.019733236,
0.021,3.929479262,0.021,4.750593824,
0.02102,6.122061027,0.02102,4.019733236,
0.02104,3.929479262,0.02104,4.750593824,
0.02106,3.198618673,0.02106,4.750593824,
0.02108,3.198618673,0.02108,4.38516353,
0.0211,3.198618673,0.0211,3.654302942,
0.02112,3.929479262,0.02112,4.38516353,
0.02114,4.294909556,0.02114,4.38516353,
0.02116,2.467758085,0.02116,3.654302942,
0.02118,2.102327791,0.02118,4.38516353,
0.0212,1.006036908,0.0212,4.38516353,
0.02122,-0.09025397405,0.02122,3.654302942,
0.02124,1.006036908,0.02124,4.38516353,
0.02126,2.467758085,0.02126,4.38516353,
0.02128,0.2751763201,0.02128,4.019733236,
0.0213,-0.8211145624,0.0213,4.019733236,
0.02132,-1.551975151,0.02132,4.019733236,
0.02134,-1.551975151,0.02134,3.654302942,
0.02136,-1.917405445,0.02136,4.38516353,
0.02138,-1.551975151,0.02138,4.38516353,
0.0214,-4.475417504,0.0214,3.654302942,
0.02142,-1.917405445,0.02142,4.019733236,
0.02144,-2.648266033,0.02144,4.38516353,
0.02146,-4.840847798,0.02146,4.019733236,
0.02148,-3.013696327,0.02148,4.38516353,
0.0215,-4.10998721,0.0215,4.38516353,
0.02152,-3.379126622,0.02152,3.654302942,
0.02154,-3.013696327,0.02154,4.38516353,
0.02156,-3.379126622,0.02156,4.750593824,
0.02158,-3.013696327,0.02158,4.019733236,
0.0216,-2.648266033,0.0216,4.38516353,
0.02162,-3.379126622,0.02162,4.38516353,
0.02164,-4.10998721,0.02164,3.654302942,
0.02166,-1.551975151,0.02166,5.116024118,
0.02168,-1.917405445,0.02168,4.750593824,
0.0217,-1.186544857,0.0217,4.019733236,
0.02172,2.102327791,0.02172,4.750593824,
0.02174,-0.4556842682,0.02174,4.38516353,
0.02176,-0.09025397405,0.02176,4.019733236,
0.02178,1.736897497,0.02178,4.38516353,
0.0218,1.371467203,0.0218,4.38516353,
0.02182,2.102327791,0.02182,4.019733236,
0.02184,3.198618673,0.02184,4.38516353,
0.02186,2.102327791,0.02186,4.019733236,
0.02188,2.833188379,0.02188,4.019733236,
0.0219,3.929479262,0.0219,4.38516353,
0.02192,3.564048968,0.02192,4.38516353,
0.02194,1.371467203,0.02194,4.019733236,
0.02196,3.929479262,0.02196,4.38516353,
0.02198,3.929479262,0.02198,4.38516353,
0.022,3.198618673,0.022,4.019733236,
0.02202,3.564048968,0.02202,4.750593824,
0.02204,3.198618673,0.02204,4.38516353,
0.02206,3.929479262,0.02206,3.288872648,
0.02208,2.833188379,0.02208,4.750593824,
0.0221,1.736897497,0.0221,4.750593824,
0.02212,1.736897497,0.02212,4.019733236,
0.02214,1.371467203,0.02214,4.750593824,
0.02216,0.6406066143,0.02216,3.654302942,
0.02218,-1.917405445,0.02218,4.019733236,
0.0222,0.6406066143,0.0222,4.38516353,
0.02222,0.2751763201,0.02222,4.38516353,
0.02224,0.2751763201,0.02224,4.019733236,
0.02226,-1.917405445,0.02226,5.116024118,
0.02228,-2.648266033,0.02228,4.38516353,
0.0223,-1.917405445,0.0223,4.019733236,
0.02232,0.2751763201,0.02232,4.019733236,
0.02234,-1.551975151,0.02234,4.38516353,
0.02236,-5.206278092,0.02236,4.38516353,
0.02238,-3.379126622,0.02238,4.750593824,
0.0224,-3.744556916,0.0224,4.38516353,
0.02242,-4.840847798,0.02242,3.654302942,
0.02244,-2.648266033,0.02244,4.750593824,
0.02246,-3.379126622,0.02246,3.654302942,
0.02248,-3.744556916,0.02248,4.38516353,
0.0225,-3.744556916,0.0225,5.116024118,
0.02252,-3.013696327,0.02252,4.38516353,
0.02254,-3.744556916,0.02254,4.019733236,
0.02256,-1.186544857,0.02256,5.116024118,
0.02258,-1.917405445,0.02258,4.019733236,
0.0226,-2.648266033,0.0226,4.019733236,
0.02262,-1.917405445,0.02262,4.750593824,
0.02264,-0.8211145624,0.02264,4.019733236,
0.02266,-0.09025397405,0.02266,5.116024118,
0.02268,-0.4556842682,0.02268,4.750593824,
0.0227,0.6406066143,0.0227,4.019733236,
0.02272,1.006036908,0.02272,4.38516353,
0.02274,1.736897497,0.02274,4.750593824,
0.02276,1.736897497,0.02276,2.923442353,
0.02278,2.467758085,0.02278,4.019733236,
0.0228,1.736897497,0.0228,4.750593824,
0.02282,3.929479262,0.02282,4.019733236,
0.02284,3.198618673,0.02284,4.019733236,
0.02286,3.198618673,0.02286,3.654302942,
0.02288,4.294909556,0.02288,4.019733236,
0.0229,2.833188379,0.0229,4.38516353,
0.02292,3.564048968,0.02292,4.38516353,
0.02294,3.198618673,0.02294,4.38516353,
0.02296,2.467758085,0.02296,5.846884707,
0.02298,3.564048968,0.02298,4.019733236,
0.023,1.371467203,0.023,4.38516353,
0.02302,-0.8211145624,0.02302,4.019733236,
0.02304,3.198618673,0.02304,4.750593824,
0.02306,2.102327791,0.02306,2.558012059,
0.02308,1.371467203,0.02308,4.019733236,
0.0231,0.2751763201,0.0231,4.750593824,
0.02312,-1.551975151,0.02312,4.019733236,
0.02314,-0.09025397405,0.02314,4.019733236,
0.02316,-0.4556842682,0.02316,5.116024118,
0.02318,-1.186544857,0.02318,4.750593824,
0.0232,-1.551975151,0.0232,4.019733236,
0.02322,-1.917405445,0.02322,4.38516353,
0.02324,-3.013696327,0.02324,4.750593824,
0.02326,-3.013696327,0.02326,4.750593824,
0.02328,-4.10998721,0.02328,4.750593824,
0.0233,-3.013696327,0.0233,4.38516353,
0.02332,-3.013696327,0.02332,4.38516353,
0.02334,-3.744556916,0.02334,5.116024118,
0.02336,-3.744556916,0.02336,3.654302942,
0.02338,-3.744556916,0.02338,4.38516353,
0.0234,-2.648266033,0.0234,4.38516353,
0.02342,-3.744556916,0.02342,4.019733236,
0.02344,-3.379126622,0.02344,4.019733236,
0.02346,-2.648266033,0.02346,5.846884707,
0.02348,-1.917405445,0.02348,4.019733236,
0.0235,-2.282835739,0.0235,4.38516353,
0.02352,-1.917405445,0.02352,5.116024118,
0.02354,-1.551975151,0.02354,4.38516353,
0.02356,-1.186544857,0.02356,5.481454413,
0.02358,-1.917405445,0.02358,4.750593824,
0.0236,-0.8211145624,0.0236,4.019733236,
0.02362,0.6406066143,0.02362,4.38516353,
0.02364,-0.09025397405,0.02364,4.750593824,
0.02366,1.371467203,0.02366,3.288872648,
0.02368,2.467758085,0.02368,4.019733236,
0.0237,2.833188379,0.0237,4.38516353,
0.02372,2.833188379,0.02372,4.750593824,
0.02374,3.198618673,0.02374,4.019733236,
0.02376,2.467758085,0.02376,5.481454413,
0.02378,3.198618673,0.02378,4.38516353,
0.0238,2.102327791,0.0238,4.019733236,
0.02382,4.294909556,0.02382,4.38516353,
0.02384,3.564048968,0.02384,4.38516353,
0.02386,4.66033985,0.02386,4.019733236,
0.02388,1.736897497,0.02388,4.750593824,
0.0239,3.564048968,0.0239,4.38516353,
0.02392,6.487491321,0.02392,4.750593824,
0.02394,2.833188379,0.02394,4.750593824,
0.02396,2.467758085,0.02396,4.019733236,
0.02398,4.294909556,0.02398,4.750593824,
0.024,1.371467203,0.024,4.750593824,
0.02402,2.102327791,0.02402,4.38516353,
0.02404,-0.09025397405,0.02404,4.38516353,
0.02406,-0.4556842682,0.02406,4.750593824,
0.02408,-0.4556842682,0.02408,4.38516353,
0.0241,-1.186544857,0.0241,4.750593824,
0.02412,-1.917405445,0.02412,4.38516353,
0.02414,-1.186544857,0.02414,4.38516353,
0.02416,-2.282835739,0.02416,4.750593824,
0.02418,-2.282835739,0.02418,4.38516353,
0.0242,-3.744556916,0.0242,4.750593824,
0.02422,-3.379126622,0.02422,5.481454413,
0.02424,-3.744556916,0.02424,4.38516353,
0.02426,-2.648266033,0.02426,4.750593824,
0.02428,-4.475417504,0.02428,5.116024118,
0.0243,-3.744556916,0.0243,4.019733236,
0.02432,-3.013696327,0.02432,4.019733236,
0.02434,-3.744556916,0.02434,4.38516353,
0.02436,-3.379126622,0.02436,4.019733236,
0.02438,-3.013696327,0.02438,4.38516353,
0.0244,-2.282835739,0.0244,4.38516353,
0.02442,-3.013696327,0.02442,4.38516353,
0.02444,-1.917405445,0.02444,4.019733236,
0.02446,-3.744556916,0.02446,4.750593824,
0.02448,-1.186544857,0.02448,5.116024118,
0.0245,1.006036908,0.0245,4.38516353,
0.02452,-0.4556842682,0.02452,4.38516353,
0.02454,1.736897497,0.02454,4.38516353,
0.02456,0.2751763201,0.02456,5.116024118,
0.02458,0.2751763201,0.02458,4.38516353,
0.0246,1.006036908,0.0246,4.38516353,
0.02462,1.006036908,0.02462,4.38516353,
0.02464,2.102327791,0.02464,4.38516353,
0.02466,2.467758085,0.02466,4.750593824,
0.02468,2.833188379,0.02468,4.38516353,
0.0247,3.564048968,0.0247,4.750593824,
0.02472,3.564048968,0.02472,5.481454413,
0.02474,3.564048968,0.02474,4.38516353,
0.02476,3.564048968,0.02476,4.38516353,
0.02478,4.294909556,0.02478,4.750593824,
0.0248,3.198618673,0.0248,4.750593824,
0.02482,3.929479262,0.02482,4.750593824,
0.02484,2.833188379,0.02484,4.750593824,
0.02486,0.2751763201,0.02486,4.38516353,
0.02488,3.564048968,0.02488,4.750593824,
0.0249,1.006036908,0.0249,4.750593824,
0.02492,1.006036908,0.02492,4.750593824,
0.02494,1.371467203,0.02494,4.750593824,
0.02496,2.102327791,0.02496,5.116024118,
0.02498,-1.186544857,0.02498,4.38516353,
0.025,1.006036908,0.025,4.019733236,
0.02502,-0.8211145624,0.02502,4.38516353,
0.02504,-2.282835739,0.02504,4.750593824,
0.02506,-0.8211145624,0.02506,4.019733236,
0.02508,-1.551975151,0.02508,4.750593824,
0.0251,-3.013696327,0.0251,4.38516353,
0.02512,-3.379126622,0.02512,4.38516353,
0.02514,-3.379126622,0.02514,4.750593824,
0.02516,-4.10998721,0.02516,4.019733236,
0.02518,-4.10998721,0.02518,4.750593824,
0.0252,-3.013696327,0.0252,4.750593824,
0.02522,-4.10998721,0.02522,4.750593824,
0.02524,-3.379126622,0.02524,4.38516353,
0.02526,-3.744556916,0.02526,4.750593824,
0.02528,-3.013696327,0.02528,4.38516353,
0.0253,-2.282835739,0.0253,4.38516353,
0.02532,-2.648266033,0.02532,4.750593824,
0.02534,-3.379126622,0.02534,4.38516353,
0.02536,-1.917405445,0.02536,4.38516353,
0.02538,-1.551975151,0.02538,4.750593824,
0.0254,-1.551975151,0.0254,4.38516353,
0.02542,-0.4556842682,0.02542,4.38516353,
0.02544,-0.4556842682,0.02544,4.750593824,
0.02546,-1.186544857,0.02546,4.38516353,
0.02548,0.6406066143,0.02548,4.38516353,
0.0255,1.371467203,0.0255,4.750593824,
0.02552,-0.8211145624,0.02552,4.38516353,
0.02554,1.736897497,0.02554,4.38516353,
0.02556,3.198618673,0.02556,5.116024118,
0.02558,2.467758085,0.02558,5.481454413,
0.0256,2.467758085,0.0256,4.38516353,
0.02562,4.294909556,0.02562,5.116024118,
0.02564,3.564048968,0.02564,4.38516353,
0.02566,3.929479262,0.02566,4.019733236,
0.02568,2.467758085,0.02568,3.654302942,
0.0257,3.198618673,0.0257,4.750593824,
0.02572,2.833188379,0.02572,4.38516353,
0.02574,5.756630733,0.02574,4.38516353,
0.02576,3.198618673,0.02576,4.750593824,
0.02578,3.929479262,0.02578,3.288872648,
0.0258,2.467758085,0.0258,4.019733236,
0.02582,2.467758085,0.02582,3.654302942,
0.02584,1.371467203,0.02584,4.38516353,
0.02586,2.102327791,0.02586,4.019733236,
0.02588,2.833188379,0.02588,5.116024118,
0.0259,1.006036908,0.0259,4.38516353,
0.02592,-0.09025397405,0.02592,4.019733236,
0.02594,0.6406066143,0.02594,4.019733236,
0.02596,2.467758085,0.02596,4.38516353,
0.02598,-0.8211145624,0.02598,3.288872648,
0.026,-0.8211145624,0.026,3.654302942,
0.02602,-2.282835739,0.02602,4.38516353,
0.02604,-1.917405445,0.02604,4.38516353,
0.02606,-0.8211145624,0.02606,3.288872648,
0.02608,-1.917405445,0.02608,3.288872648,
0.0261,-3.013696327,0.0261,4.019733236,
0.02612,-3.013696327,0.02612,4.019733236,
0.02614,-3.013696327,0.02614,4.38516353,
0.02616,-3.013696327,0.02616,4.019733236,
0.02618,-3.379126622,0.02618,4.750593824,
0.0262,-3.744556916,0.0262,4.38516353,
0.02622,-3.013696327,0.02622,4.38516353,
0.02624,-4.475417504,0.02624,3.288872648,
0.02626,-2.282835739,0.02626,4.38516353,
0.02628,-2.282835739,0.02628,4.750593824,
0.0263,-2.282835739,0.0263,4.019733236,
0.02632,-1.551975151,0.02632,4.38516353,
0.02634,-1.917405445,0.02634,4.38516353,
0.02636,-0.8211145624,0.02636,3.654302942,
0.02638,-1.917405445,0.02638,3.654302942,
0.0264,-0.8211145624,0.0264,4.38516353,
0.02642,0.2751763201,0.02642,4.019733236,
0.02644,1.736897497,0.02644,4.38516353,
0.02646,2.102327791,0.02646,4.38516353,
0.02648,2.102327791,0.02648,4.750593824,
0.0265,2.833188379,0.0265,4.019733236,
0.02652,2.102327791,0.02652,4.38516353,
0.02654,1.371467203,0.02654,4.019733236,
0.02656,3.929479262,0.02656,4.019733236,
0.02658,3.564048968,0.02658,4.019733236,
0.0266,3.929479262,0.0266,4.019733236,
0.02662,5.025770144,0.02662,4.019733236,
0.02664,4.294909556,0.02664,4.38516353,
0.02666,3.198618673,0.02666,3.654302942,
0.02668,3.564048968,0.02668,4.019733236,
0.0267,2.102327791,0.0267,4.019733236,
0.02672,3.198618673,0.02672,4.019733236,
0.02674,3.564048968,0.02674,4.38516353,
0.02676,2.833188379,0.02676,4.38516353,
0.02678,2.467758085,0.02678,4.38516353,
0.0268,0.6406066143,0.0268,4.38516353,
0.02682,1.736897497,0.02682,4.38516353,
0.02684,-0.09025397405,0.02684,3.654302942,
0.02686,1.006036908,0.02686,4.38516353,
0.02688,-2.282835739,0.02688,4.750593824,
0.0269,0.2751763201,0.0269,3.654302942,
0.02692,0.2751763201,0.02692,4.750593824,
0.02694,-1.917405445,0.02694,4.38516353,
0.02696,-2.282835739,0.02696,4.019733236,
0.02698,-1.551975151,0.02698,4.019733236,
0.027,-4.475417504,0.027,4.019733236,
0.02702,-3.379126622,0.02702,4.019733236,
0.02704,-3.013696327,0.02704,4.38516353,
0.02706,-3.379126622,0.02706,4.019733236,
0.02708,-4.10998721,0.02708,3.654302942,
0.0271,-1.186544857,0.0271,4.38516353,
0.02712,-4.10998721,0.02712,4.019733236,
0.02714,-3.013696327,0.02714,4.38516353,
0.02716,-2.282835739,0.02716,4.38516353,
0.02718,-3.744556916,0.02718,4.019733236,
0.0272,-3.013696327,0.0272,4.019733236,
0.02722,-1.917405445,0.02722,4.38516353,
0.02724,-1.551975151,0.02724,4.38516353,
0.02726,-1.186544857,0.02726,4.019733236,
0.02728,-0.4556842682,0.02728,4.38516353,
0.0273,-1.917405445,0.0273,4.019733236,
0.02732,-0.4556842682,0.02732,4.38516353,
0.02734,0.2751763201,0.02734,4.750593824,
0.02736,1.371467203,0.02736,4.38516353,
0.02738,1.371467203,0.02738,4.38516353,
0.0274,1.006036908,0.0274,4.38516353,
0.02742,2.467758085,0.02742,4.019733236,
0.02744,2.467758085,0.02744,4.38516353,
0.02746,3.198618673,0.02746,4.38516353,
0.02748,4.294909556,0.02748,4.019733236,
0.0275,4.66033985,0.0275,3.654302942,
0.02752,4.66033985,0.02752,4.750593824,
0.02754,3.564048968,0.02754,4.019733236,
0.02756,4.66033985,0.02756,4.019733236,
0.02758,5.025770144,0.02758,4.38516353,
0.0276,4.66033985,0.0276,4.38516353,
0.02762,3.198618673,0.02762,4.019733236,
0.02764,3.198618673,0.02764,4.38516353,
0.02766,2.467758085,0.02766,4.019733236,
0.02768,2.102327791,0.02768,4.019733236,
0.0277,0.6406066143,0.0277,5.116024118,
0.02772,1.371467203,0.02772,4.38516353,
0.02774,1.006036908,0.02774,4.019733236,
0.02776,0.2751763201,0.02776,5.116024118,
0.02778,1.371467203,0.02778,4.38516353,
0.0278,-0.4556842682,0.0278,4.019733236,
0.02782,-0.8211145624,0.02782,4.750593824,
0.02784,-3.013696327,0.02784,4.38516353,
0.02786,-1.186544857,0.02786,4.38516353,
0.02788,-1.551975151,0.02788,5.116024118,
0.0279,-1.917405445,0.0279,4.750593824,
0.02792,-2.282835739,0.02792,3.654302942,
0.02794,-1.917405445,0.02794,5.116024118,
0.02796,-3.744556916,0.02796,4.38516353,
0.02798,-3.379126622,0.02798,4.38516353,
0.028,-3.013696327,0.028,4.750593824,
0.02802,-4.840847798,0.02802,4.38516353,
0.02804,-2.648266033,0.02804,4.019733236,
0.02806,-3.744556916,0.02806,4.750593824,
0.02808,-3.013696327,0.02808,4.38516353,
0.0281,-2.648266033,0.0281,4.019733236,
0.02812,-3.013696327,0.02812,4.750593824,
0.02814,-3.744556916,0.02814,4.38516353,
0.02816,-3.744556916,0.02816,4.019733236,
0.02818,-3.013696327,0.02818,4.750593824,
0.0282,-3.744556916,0.0282,4.750593824,
0.02822,-1.186544857,0.02822,4.019733236,
0.02824,-0.8211145624,0.02824,4.750593824,
0.02826,-0.8211145624,0.02826,4.750593824,
0.02828,0.2751763201,0.02828,4.019733236,
0.0283,1.371467203,0.0283,5.116024118,
0.02832,1.006036908,0.02832,4.38516353,
0.02834,1.371467203,0.02834,4.38516353,
0.02836,1.371467203,0.02836,4.38516353,
0.02838,2.467758085,0.02838,4.019733236,
0.0284,3.929479262,0.0284,4.019733236,
0.02842,3.198618673,0.02842,5.116024118,
0.02844,3.929479262,0.02844,4.38516353,
0.02846,2.833188379,0.02846,4.019733236,
0.02848,2.833188379,0.02848,4.750593824,
0.0285,3.929479262,0.0285,3.654302942,
0.02852,3.564048968,0.02852,4.38516353,
0.02854,5.391200439,0.02854,4.750593824,
0.02856,3.198618673,0.02856,4.019733236,
0.02858,3.929479262,0.02858,4.38516353,
0.0286,1.736897497,0.0286,5.481454413,
0.02862,2.467758085,0.02862,4.38516353,
0.02864,0.6406066143,0.02864,4.019733236,
0.02866,4.294909556,0.02866,4.38516353,
0.02868,-0.09025397405,0.02868,4.38516353,
0.0287,-0.8211145624,0.0287,3.288872648,
0.02872,0.6406066143,0.02872,4.750593824,
0.02874,-1.917405445,0.02874,4.38516353,
0.02876,-1.186544857,0.02876,4.019733236,
0.02878,-0.8211145624,0.02878,4.750593824,
0.0288,-1.551975151,0.0288,3.654302942,
0.02882,-2.282835739,0.02882,4.019733236,
0.02884,-2.282835739,0.02884,4.750593824,
0.02886,-5.571708387,0.02886,4.38516353,
0.02888,-3.379126622,0.02888,4.38516353,
0.0289,-2.282835739,0.0289,5.481454413,
0.02892,-3.744556916,0.02892,4.38516353,
0.02894,-4.10998721,0.02894,4.019733236,
0.02896,-1.551975151,0.02896,4.750593824,
0.02898,-4.10998721,0.02898,4.019733236,
0.029,-3.744556916,0.029,4.38516353,
0.02902,-2.282835739,0.02902,4.38516353,
0.02904,-2.648266033,0.02904,4.019733236,
0.02906,-6.667999269,0.02906,4.019733236,
0.02908,-1.917405445,0.02908,4.38516353,
0.0291,-3.379126622,0.0291,3.288872648,
0.02912,-1.917405445,0.02912,4.019733236,
0.02914,-3.379126622,0.02914,5.116024118,
0.02916,-0.8211145624,0.02916,4.38516353,
0.02918,-2.648266033,0.02918,4.019733236,
0.0292,0.6406066143,0.0292,5.846884707,
0.02922,-0.4556842682,0.02922,4.38516353,
0.02924,1.006036908,0.02924,4.019733236,
0.02926,2.467758085,0.02926,4.750593824,
0.02928,2.467758085,0.02928,4.38516353,
0.0293,2.467758085,0.0293,2.558012059,
0.02932,2.833188379,0.02932,4.750593824,
0.02934,3.198618673,0.02934,4.019733236,
0.02936,3.198618673,0.02936,4.019733236,
0.02938,4.294909556,0.02938,4.750593824,
0.0294,2.467758085,0.0294,3.288872648,
0.02942,4.66033985,0.02942,4.019733236,
0.02944,4.66033985,0.02944,5.481454413,
0.02946,3.198618673,0.02946,4.019733236,
0.02948,3.198618673,0.02948,4.019733236,
0.0295,1.736897497,0.0295,6.212315001,
0.02952,3.564048968,0.02952,4.019733236,
0.02954,5.025770144,0.02954,4.38516353,
0.02956,2.467758085,0.02956,4.750593824,
0.02958,2.102327791,0.02958,4.38516353,
0.0296,1.371467203,0.0296,4.019733236,
0.02962,0.6406066143,0.02962,4.38516353,
0.02964,-1.186544857,0.02964,4.750593824,
0.02966,-0.09025397405,0.02966,4.750593824,
0.02968,2.102327791,0.02968,4.019733236,
0.0297,-0.4556842682,0.0297,5.116024118,
0.02972,-1.551975151,0.02972,4.019733236,
0.02974,-1.917405445,0.02974,4.750593824,
0.02976,-1.917405445,0.02976,4.38516353,
0.02978,-2.282835739,0.02978,4.019733236,
0.0298,-2.648266033,0.0298,4.750593824,
0.02982,-3.744556916,0.02982,4.38516353,
0.02984,-5.206278092,0.02984,4.019733236,
0.02986,-3.379126622,0.02986,4.38516353,
0.02988,-4.10998721,0.02988,4.019733236,
0.0299,-3.013696327,0.0299,3.288872648,
0.02992,-3.379126622,0.02992,4.38516353,
0.02994,-3.379126622,0.02994,4.38516353,
0.02996,-3.744556916,0.02996,4.38516353,
0.02998,-4.10998721,0.02998,4.019733236,
0.03,-2.648266033,0.03,5.116024118,
0.03002,-3.744556916,0.03002,4.38516353,
0.03004,-1.917405445,0.03004,4.38516353,
0.03006,-0.8211145624,0.03006,4.38516353,
0.03008,-0.8211145624,0.03008,4.019733236,
0.0301,-0.4556842682,0.0301,3.654302942,
0.03012,-0.09025397405,0.03012,4.38516353,
0.03014,0.6406066143,0.03014,4.38516353,
0.03016,1.371467203,0.03016,4.750593824,
0.03018,1.006036908,0.03018,4.750593824,
0.0302,0.6406066143,0.0302,4.38516353,
0.03022,3.198618673,0.03022,4.019733236,
0.03024,2.833188379,0.03024,4.750593824,
0.03026,2.467758085,0.03026,4.750593824,
0.03028,3.929479262,0.03028,3.654302942,
0.0303,3.198618673,0.0303,4.750593824,
0.03032,1.006036908,0.03032,4.750593824,
0.03034,4.66033985,0.03034,4.38516353,
0.03036,3.564048968,0.03036,4.750593824,
0.03038,3.929479262,0.03038,4.750593824,
0.0304,3.564048968,0.0304,4.38516353,
0.03042,4.294909556,0.03042,4.750593824,
0.03044,2.467758085,0.03044,4.750593824,
0.03046,1.736897497,0.03046,4.750593824,
0.03048,4.294909556,0.03048,4.750593824,
0.0305,1.006036908,0.0305,4.38516353,
0.03052,1.006036908,0.03052,4.38516353,
0.03054,2.102327791,0.03054,4.38516353,
0.03056,1.006036908,0.03056,4.38516353,
0.03058,-0.4556842682,0.03058,4.019733236,
0.0306,0.6406066143,0.0306,4.750593824,
0.03062,-0.8211145624,0.03062,4.38516353,
0.03064,-0.8211145624,0.03064,4.019733236,
0.03066,-1.551975151,0.03066,4.750593824,
0.03068,-2.282835739,0.03068,4.38516353,
0.0307,-2.648266033,0.0307,4.750593824,
0.03072,-1.917405445,0.03072,4.750593824,
0.03074,-3.013696327,0.03074,4.38516353,
0.03076,-2.282835739,0.03076,4.38516353,
0.03078,-3.013696327,0.03078,4.750593824,
0.0308,-3.744556916,0.0308,4.750593824,
0.03082,-4.10998721,0.03082,4.38516353,
0.03084,-4.840847798,0.03084,4.38516353,
0.03086,-5.571708387,0.03086,4.38516353,
0.03088,-3.379126622,0.03088,4.019733236,
0.0309,-3.013696327,0.0309,4.750593824,
0.03092,-3.744556916,0.03092,4.019733236,
0.03094,-2.648266033,0.03094,4.019733236,
0.03096,-0.09025397405,0.03096,4.750593824,
0.03098,-1.186544857,0.03098,4.38516353,
0.031,-1.551975151,0.031,4.38516353,
0.03102,-0.8211145624,0.03102,5.116024118,
0.03104,-1.186544857,0.03104,4.750593824,
0.03106,0.2751763201,0.03106,4.38516353,
0.03108,0.6406066143,0.03108,4.38516353,
0.0311,0.2751763201,0.0311,4.750593824,
0.03112,1.006036908,0.03112,4.38516353,
0.03114,1.736897497,0.03114,4.750593824,
0.03116,1.736897497,0.03116,4.38516353,
0.03118,3.198618673,0.03118,4.38516353,
0.0312,3.564048968,0.0312,4.750593824,
0.03122,2.833188379,0.03122,4.38516353,
0.03124,5.391200439,0.03124,4.019733236,
0.03126,4.66033985,0.03126,4.38516353,
0.03128,2.467758085,0.03128,4.019733236,
0.0313,4.294909556,0.0313,4.750593824,
0.03132,4.294909556,0.03132,4.750593824,
0.03134,3.929479262,0.03134,4.750593824,
0.03136,2.833188379,0.03136,4.750593824,
0.03138,3.564048968,0.03138,4.750593824,
0.0314,1.736897497,0.0314,4.38516353,
0.03142,2.467758085,0.03142,4.019733236,
0.03144,0.6406066143,0.03144,5.116024118,
0.03146,1.371467203,0.03146,4.019733236,
0.03148,2.102327791,0.03148,4.38516353,
0.0315,1.006036908,0.0315,4.019733236,
0.03152,-2.282835739,0.03152,4.38516353,
0.03154,0.2751763201,0.03154,4.750593824,
0.03156,-0.09025397405,0.03156,4.019733236,
0.03158,-0.09025397405,0.03158,3.654302942,
0.0316,-1.186544857,0.0316,4.019733236,
0.03162,-1.917405445,0.03162,3.654302942,
0.03164,-3.013696327,0.03164,4.019733236,
0.03166,-3.013696327,0.03166,4.750593824,
0.03168,-3.379126622,0.03168,4.019733236,
0.0317,-2.648266033,0.0317,4.019733236,
0.03172,-5.206278092,0.03172,4.750593824,
0.03174,-5.206278092,0.03174,4.019733236,
0.03176,-4.10998721,0.03176,4.019733236,
0.03178,-2.648266033,0.03178,4.38516353,
0.0318,-3.013696327,0.0318,4.750593824,
0.03182,-3.379126622,0.03182,3.654302942,
0.03184,-2.648266033,0.03184,4.38516353,
0.03186,-1.917405445,0.03186,4.750593824,
0.03188,-3.013696327,0.03188,4.019733236,
0.0319,-2.648266033,0.0319,4.38516353,
0.03192,-1.551975151,0.03192,3.654302942,
0.03194,-1.917405445,0.03194,4.019733236,
0.03196,-0.4556842682,0.03196,4.019733236,
0.03198,-0.09025397405,0.03198,4.38516353,
0.032,0.2751763201,0.032,4.019733236,
0.03202,1.006036908,0.03202,5.481454413,
0.03204,2.102327791,0.03204,4.019733236,
0.03206,1.736897497,0.03206,4.019733236,
0.03208,2.467758085,0.03208,4.38516353,
0.0321,3.198618673,0.0321,4.019733236,
0.03212,3.198618673,0.03212,4.38516353,
0.03214,2.833188379,0.03214,4.019733236,
0.03216,2.102327791,0.03216,4.750593824,
0.03218,2.467758085,0.03218,4.019733236,
0.0322,3.929479262,0.0322,4.019733236,
0.03222,3.929479262,0.03222,5.116024118,
0.03224,3.929479262,0.03224,3.654302942,
0.03226,3.929479262,0.03226,4.750593824,
0.03228,3.564048968,0.03228,4.38516353,
0.0323,3.198618673,0.0323,4.38516353,
0.03232,3.564048968,0.03232,3.288872648,
0.03234,2.102327791,0.03234,4.019733236,
0.03236,1.371467203,0.03236,4.019733236,
0.03238,2.102327791,0.03238,4.019733236,
0.0324,1.006036908,0.0324,4.019733236,
0.03242,0.6406066143,0.03242,4.38516353,
0.03244,0.2751763201,0.03244,4.38516353,
0.03246,1.371467203,0.03246,4.38516353,
0.03248,1.736897497,0.03248,4.019733236,
0.0325,-0.09025397405,0.0325,4.750593824,
0.03252,-0.8211145624,0.03252,4.019733236,
0.03254,0.2751763201,0.03254,4.019733236,
0.03256,-3.744556916,0.03256,4.38516353,
0.03258,-1.917405445,0.03258,4.019733236,
0.0326,-4.10998721,0.0326,4.019733236,
0.03262,-3.379126622,0.03262,4.38516353,
0.03264,-4.475417504,0.03264,4.38516353,
0.03266,-3.744556916,0.03266,4.019733236,
0.03268,-3.013696327,0.03268,4.750593824,
0.0327,-1.551975151,0.0327,4.38516353,
0.03272,-3.379126622,0.03272,4.750593824,
0.03274,-2.648266033,0.03274,5.116024118,
0.03276,-2.648266033,0.03276,4.38516353,
0.03278,-1.917405445,0.03278,4.019733236,
0.0328,-2.282835739,0.0328,4.38516353,
0.03282,-1.551975151,0.03282,3.654302942,
0.03284,-3.379126622,0.03284,4.019733236,
0.03286,1.371467203,0.03286,4.750593824,
0.03288,-0.4556842682,0.03288,3.654302942,
0.0329,-1.551975151,0.0329,4.019733236,
0.03292,0.6406066143,0.03292,4.38516353,
0.03294,2.102327791,0.03294,4.019733236,
0.03296,1.006036908,0.03296,4.38516353,
0.03298,0.2751763201,0.03298,4.38516353,
0.033,2.102327791,0.033,4.019733236,
0.03302,2.102327791,0.03302,4.019733236,
0.03304,3.929479262,0.03304,4.38516353,
0.03306,3.564048968,0.03306,4.019733236,
0.03308,2.833188379,0.03308,4.019733236,
0.0331,5.025770144,0.0331,4.38516353,
0.03312,5.025770144,0.03312,4.019733236,
0.03314,1.371467203,0.03314,4.019733236,
0.03316,3.564048968,0.03316,4.019733236,
0.03318,4.294909556,0.03318,4.38516353,
0.0332,4.294909556,0.0332,4.019733236,
0.03322,3.564048968,0.03322,4.38516353,
0.03324,5.025770144,0.03324,4.019733236,
0.03326,3.929479262,0.03326,4.019733236,
0.03328,2.833188379,0.03328,4.750593824,
0.0333,2.467758085,0.0333,4.019733236,
0.03332,1.736897497,0.03332,3.654302942,
0.03334,2.467758085,0.03334,4.019733236,
0.03336,-0.4556842682,0.03336,4.019733236,
0.03338,-0.8211145624,0.03338,4.750593824,
0.0334,-1.186544857,0.0334,5.481454413,
0.03342,-0.8211145624,0.03342,4.019733236,
0.03344,-0.4556842682,0.03344,4.38516353,
0.03346,-1.917405445,0.03346,4.38516353,
0.03348,-2.282835739,0.03348,4.38516353,
0.0335,-0.4556842682,0.0335,5.116024118,
0.03352,-1.917405445,0.03352,4.38516353,
0.03354,-4.475417504,0.03354,4.38516353,
0.03356,-3.744556916,0.03356,4.750593824,
0.03358,-3.013696327,0.03358,4.019733236,
0.0336,-3.744556916,0.0336,4.38516353,
0.03362,-3.379126622,0.03362,4.750593824,
0.03364,-3.744556916,0.03364,4.019733236,
0.03366,-4.10998721,0.03366,4.019733236,
0.03368,-4.475417504,0.03368,4.750593824,
0.0337,-4.10998721,0.0337,4.38516353,
0.03372,-2.648266033,0.03372,4.38516353,
0.03374,-1.917405445,0.03374,4.750593824,
0.03376,-1.917405445,0.03376,4.019733236,
0.03378,-3.379126622,0.03378,4.019733236,
0.0338,-1.917405445,0.0338,4.750593824,
0.03382,-1.186544857,0.03382,4.019733236,
0.03384,0.2751763201,0.03384,4.019733236,
0.03386,0.2751763201,0.03386,4.750593824,
0.03388,-0.09025397405,0.03388,4.019733236,
0.0339,-0.09025397405,0.0339,4.019733236,
0.03392,0.2751763201,0.03392,4.750593824,
0.03394,2.833188379,0.03394,4.38516353,
0.03396,2.102327791,0.03396,4.019733236,
0.03398,0.2751763201,0.03398,4.750593824,
0.034,2.102327791,0.034,4.38516353,
0.03402,2.833188379,0.03402,4.38516353,
0.03404,1.736897497,0.03404,4.750593824,
0.03406,3.564048968,0.03406,4.38516353,
0.03408,2.102327791,0.03408,4.019733236,
0.0341,5.391200439,0.0341,5.116024118,
0.03412,3.929479262,0.03412,4.019733236,
0.03414,3.564048968,0.03414,4.019733236,
0.03416,2.833188379,0.03416,4.750593824,
0.03418,2.467758085,0.03418,4.38516353,
0.0342,2.833188379,0.0342,4.019733236,
0.03422,2.102327791,0.03422,4.750593824,
0.03424,0.2751763201,0.03424,4.38516353,
0.03426,0.2751763201,0.03426,4.019733236,
0.03428,1.736897497,0.03428,4.750593824,
0.0343,0.2751763201,0.0343,4.38516353,
0.03432,-0.09025397405,0.03432,4.019733236,
0.03434,-0.8211145624,0.03434,5.116024118,
0.03436,-3.379126622,0.03436,4.019733236,
0.03438,-1.186544857,0.03438,4.38516353,
0.0344,-1.186544857,0.0344,5.116024118,
0.03442,-4.840847798,0.03442,4.38516353,
0.03444,-3.744556916,0.03444,3.654302942,
0.03446,-2.648266033,0.03446,4.750593824,
0.03448,-3.744556916,0.03448,4.38516353,
0.0345,-3.379126622,0.0345,4.38516353,
0.03452,-3.744556916,0.03452,5.116024118,
0.03454,-3.379126622,0.03454,3.288872648,
0.03456,-4.10998721,0.03456,4.019733236,
0.03458,-3.744556916,0.03458,5.116024118,
0.0346,-3.013696327,0.0346,4.750593824,
0.03462,-3.379126622,0.03462,4.019733236,
0.03464,-1.551975151,0.03464,6.212315001,
0.03466,-3.379126622,0.03466,4.38516353,
0.03468,-2.648266033,0.03468,4.019733236,
0.0347,-2.282835739,0.0347,4.750593824,
0.03472,0.6406066143,0.03472,3.654302942,
0.03474,-1.186544857,0.03474,4.38516353,
0.03476,-1.551975151,0.03476,4.38516353,
0.03478,-0.4556842682,0.03478,4.38516353,
0.0348,1.736897497,0.0348,4.750593824,
0.03482,0.2751763201,0.03482,4.019733236,
0.03484,0.2751763201,0.03484,3.654302942,
0.03486,2.833188379,0.03486,4.38516353,
0.03488,2.102327791,0.03488,4.38516353,
0.0349,2.467758085,0.0349,4.38516353,
0.03492,2.833188379,0.03492,4.38516353,
0.03494,2.833188379,0.03494,6.212315001,
0.03496,4.294909556,0.03496,4.38516353,
0.03498,3.564048968,0.03498,4.019733236,
0.035,3.564048968,0.035,4.38516353,
0.03502,4.294909556,0.03502,4.750593824,
0.03504,4.66033985,0.03504,3.654302942,
0.03506,3.564048968,0.03506,4.750593824,
0.03508,3.198618673,0.03508,4.38516353,
0.0351,3.198618673,0.0351,4.750593824,
0.03512,4.66033985,0.03512,5.116024118,
0.03514,2.833188379,0.03514,2.923442353,
0.03516,3.198618673,0.03516,4.019733236,
0.03518,4.66033985,0.03518,4.38516353,
0.0352,1.006036908,0.0352,4.38516353,
0.03522,1.006036908,0.03522,4.38516353,
0.03524,1.006036908,0.03524,5.481454413,
0.03526,0.2751763201,0.03526,4.38516353,
0.03528,-0.4556842682,0.03528,4.750593824,
0.0353,-1.186544857,0.0353,4.750593824,
0.03532,-1.186544857,0.03532,4.019733236,
0.03534,-1.186544857,0.03534,4.38516353,
0.03536,-1.917405445,0.03536,4.750593824,
0.03538,-2.282835739,0.03538,4.38516353,
0.0354,-3.379126622,0.0354,4.750593824,
0.03542,-3.744556916,0.03542,4.750593824,
0.03544,-3.379126622,0.03544,4.019733236,
0.03546,-2.282835739,0.03546,4.38516353,
0.03548,-4.475417504,0.03548,4.750593824,
0.0355,-3.013696327,0.0355,4.019733236,
0.03552,-1.917405445,0.03552,4.38516353,
0.03554,-3.013696327,0.03554,5.846884707,
0.03556,-3.379126622,0.03556,4.38516353,
0.03558,-1.551975151,0.03558,4.750593824,
0.0356,-4.10998721,0.0356,4.38516353,
0.03562,-1.917405445,0.03562,4.38516353,
0.03564,-1.917405445,0.03564,5.116024118,
0.03566,-2.282835739,0.03566,4.750593824,
0.03568,-0.8211145624,0.03568,4.019733236,
0.0357,-1.186544857,0.0357,4.750593824,
0.03572,-0.09025397405,0.03572,4.38516353,
0.03574,1.006036908,0.03574,3.654302942,
0.03576,2.102327791,0.03576,4.750593824,
0.03578,-0.09025397405,0.03578,4.38516353,
0.0358,3.564048968,0.0358,4.38516353,
0.03582,1.736897497,0.03582,4.38516353,
0.03584,2.102327791,0.03584,5.481454413,
0.03586,6.852921615,0.03586,4.019733236,
0.03588,4.294909556,0.03588,4.750593824,
0.0359,3.564048968,0.0359,4.750593824,
0.03592,3.929479262,0.03592,4.750593824,
0.03594,3.929479262,0.03594,4.750593824,
0.03596,3.564048968,0.03596,4.38516353,
0.03598,3.929479262,0.03598,4.750593824,
0.036,2.833188379,0.036,4.750593824,
0.03602,3.929479262,0.03602,4.38516353,
0.03604,4.294909556,0.03604,4.019733236,
0.03606,2.833188379,0.03606,4.38516353,
0.03608,2.102327791,0.03608,4.38516353,
0.0361,2.467758085,0.0361,4.019733236,
0.03612,1.736897497,0.03612,4.38516353,
0.03614,2.833188379,0.03614,4.38516353,
0.03616,1.371467203,0.03616,4.38516353,
0.03618,0.2751763201,0.03618,4.38516353,
0.0362,0.2751763201,0.0362,4.38516353,
0.03622,-0.09025397405,0.03622,3.654302942,
0.03624,-1.551975151,0.03624,4.38516353,
0.03626,-2.282835739,0.03626,4.750593824,
0.03628,-3.013696327,0.03628,4.38516353,
0.0363,-2.282835739,0.0363,4.019733236,
0.03632,-3.013696327,0.03632,4.750593824,
0.03634,-3.744556916,0.03634,3.654302942,
0.03636,-1.917405445,0.03636,4.38516353,
0.03638,-4.10998721,0.03638,4.750593824,
0.0364,-3.744556916,0.0364,4.38516353,
0.03642,-3.744556916,0.03642,4.019733236,
0.03644,-2.648266033,0.03644,4.750593824,
0.03646,-2.648266033,0.03646,4.38516353,
0.03648,-4.10998721,0.03648,4.38516353,
0.0365,-3.379126622,0.0365,4.750593824,
0.03652,-2.282835739,0.03652,4.38516353,
0.03654,-2.282835739,0.03654,4.38516353,
0.03656,-1.917405445,0.03656,4.750593824,
0.03658,-1.917405445,0.03658,4.750593824,
0.0366,-1.186544857,0.0366,4.019733236,
0.03662,-1.551975151,0.03662,4.750593824,
0.03664,-1.186544857,0.03664,3.654302942,
0.03666,-0.8211145624,0.03666,4.019733236,
0.03668,0.2751763201,0.03668,5.116024118,
0.0367,1.006036908,0.0367,4.38516353,
0.03672,-0.09025397405,0.03672,4.019733236,
0.03674,1.736897497,0.03674,5.116024118,
0.03676,1.371467203,0.03676,4.38516353,
0.03678,2.833188379,0.03678,4.38516353,
0.0368,4.294909556,0.0368,4.750593824,
0.03682,2.833188379,0.03682,4.38516353,
0.03684,2.467758085,0.03684,4.38516353,
0.03686,4.294909556,0.03686,5.116024118,
0.03688,3.564048968,0.03688,4.38516353,
0.0369,2.833188379,0.0369,4.019733236,
0.03692,4.294909556,0.03692,4.38516353,
0.03694,3.198618673,0.03694,4.750593824,
0.03696,3.198618673,0.03696,4.019733236,
0.03698,4.294909556,0.03698,4.38516353,
0.037,3.564048968,0.037,4.38516353,
0.03702,1.736897497,0.03702,4.38516353,
0.03704,2.467758085,0.03704,4.750593824,
0.03706,1.736897497,0.03706,4.019733236,
0.03708,1.006036908,0.03708,4.38516353,
0.0371,0.6406066143,0.0371,4.750593824,
0.03712,-0.8211145624,0.03712,4.019733236,
0.03714,-0.8211145624,0.03714,4.38516353,
0.03716,-0.4556842682,0.03716,4.38516353,
0.03718,2.833188379,0.03718,4.38516353,
0.0372,-2.282835739,0.0372,3.654302942,
0.03722,-2.282835739,0.03722,5.116024118,
0.03724,-3.013696327,0.03724,4.38516353,
0.03726,-2.648266033,0.03726,4.019733236,
0.03728,-3.379126622,0.03728,4.750593824,
0.0373,-3.013696327,0.0373,4.38516353,
0.03732,-5.206278092,0.03732,4.019733236,
0.03734,-5.571708387,0.03734,4.750593824,
0.03736,-4.10998721,0.03736,4.38516353,
0.03738,-3.379126622,0.03738,4.019733236,
0.0374,-3.379126622,0.0374,4.750593824,
0.03742,-5.937138681,0.03742,4.019733236,
0.03744,-3.013696327,0.03744,4.38516353,
0.03746,-2.648266033,0.03746,4.38516353,
0.03748,-2.282835739,0.03748,4.38516353,
0.0375,-1.551975151,0.0375,4.38516353,
0.03752,-1.186544857,0.03752,4.750593824,
0.03754,-0.8211145624,0.03754,4.38516353,
0.03756,1.006036908,0.03756,4.38516353,
0.03758,-0.09025397405,0.03758,5.481454413,
0.0376,-0.09025397405,0.0376,4.38516353,
0.03762,1.736897497,0.03762,4.38516353,
0.03764,2.467758085,0.03764,4.38516353,
0.03766,1.736897497,0.03766,4.38516353,
0.03768,2.833188379,0.03768,4.750593824,
0.0377,1.736897497,0.0377,4.750593824,
0.03772,2.467758085,0.03772,4.38516353,
0.03774,3.198618673,0.03774,4.38516353,
0.03776,4.66033985,0.03776,5.116024118,
0.03778,3.929479262,0.03778,4.38516353,
0.0378,3.198618673,0.0378,4.38516353,
0.03782,5.025770144,0.03782,4.750593824,
0.03784,3.929479262,0.03784,4.750593824,
0.03786,3.564048968,0.03786,4.019733236,
0.03788,2.833188379,0.03788,5.116024118,
0.0379,3.564048968,0.0379,4.019733236,
0.03792,2.467758085,0.03792,4.019733236,
0.03794,2.467758085,0.03794,4.750593824,
0.03796,1.371467203,0.03796,3.654302942,
0.03798,2.102327791,0.03798,4.019733236,
0.038,3.198618673,0.038,5.116024118,
0.03802,0.6406066143,0.03802,4.38516353,
0.03804,0.2751763201,0.03804,4.019733236,
0.03806,0.2751763201,0.03806,5.116024118,
0.03808,-1.186544857,0.03808,4.38516353,
0.0381,-1.186544857,0.0381,4.019733236,
0.03812,1.006036908,0.03812,4.750593824,
0.03814,-2.648266033,0.03814,4.38516353,
0.03816,-1.186544857,0.03816,4.750593824,
0.03818,-1.551975151,0.03818,4.750593824,
0.0382,-2.648266033,0.0382,4.38516353,
0.03822,-2.648266033,0.03822,4.38516353,
0.03824,-2.648266033,0.03824,4.750593824,
0.03826,-5.937138681,0.03826,4.019733236,
0.03828,-3.744556916,0.03828,4.38516353,
0.0383,-2.648266033,0.0383,4.38516353,
0.03832,-3.744556916,0.03832,4.38516353,
0.03834,-3.013696327,0.03834,4.38516353,
0.03836,-1.917405445,0.03836,4.750593824,
0.03838,-3.744556916,0.03838,4.38516353,
0.0384,-2.648266033,0.0384,4.019733236,
0.03842,-2.282835739,0.03842,4.38516353,
0.03844,-2.282835739,0.03844,3.654302942,
0.03846,-1.551975151,0.03846,5.116024118,
0.03848,-0.09025397405,0.03848,4.750593824,
0.0385,-1.917405445,0.0385,5.116024118,
0.03852,0.2751763201,0.03852,4.38516353,
0.03854,1.371467203,0.03854,4.38516353,
0.03856,1.006036908,0.03856,3.654302942,
0.03858,1.006036908,0.03858,4.38516353,
0.0386,1.736897497,0.0386,4.750593824,
0.03862,1.736897497,0.03862,4.750593824,
0.03864,3.564048968,0.03864,4.019733236,
0.03866,3.564048968,0.03866,5.116024118,
0.03868,2.833188379,0.03868,5.116024118,
0.0387,3.198618673,0.0387,4.38516353,
0.03872,4.294909556,0.03872,4.750593824,
0.03874,3.929479262,0.03874,4.38516353,
0.03876,2.833188379,0.03876,5.116024118,
0.03878,5.391200439,0.03878,4.38516353,
0.0388,3.929479262,0.0388,4.38516353,
0.03882,7.218351909,0.03882,4.750593824,
0.03884,3.564048968,0.03884,4.750593824,
0.03886,-0.4556842682,0.03886,4.019733236,
0.03888,2.467758085,0.03888,4.38516353,
0.0389,1.736897497,0.0389,4.750593824,
0.03892,1.736897497,0.03892,4.38516353,
0.03894,0.6406066143,0.03894,4.750593824,
0.03896,-1.186544857,0.03896,4.38516353,
0.03898,-1.186544857,0.03898,4.38516353,
0.039,-0.4556842682,0.039,4.750593824,
0.03902,-1.917405445,0.03902,4.38516353,
0.03904,-1.917405445,0.03904,4.750593824,
0.03906,-1.186544857,0.03906,5.116024118,
0.03908,1.371467203,0.03908,4.750593824,
0.0391,-2.648266033,0.0391,4.38516353,
0.03912,-2.282835739,0.03912,4.38516353,
0.03914,-3.744556916,0.03914,4.38516353,
0.03916,-3.379126622,0.03916,4.38516353,
0.03918,-4.840847798,0.03918,4.38516353,
0.0392,-5.206278092,0.0392,4.750593824,
0.03922,-4.840847798,0.03922,4.750593824,
0.03924,-0.09025397405,0.03924,4.38516353,
0.03926,-2.282835739,0.03926,5.116024118,
0.03928,-1.186544857,0.03928,4.750593824,
0.0393,-2.648266033,0.0393,4.38516353,
0.03932,-3.013696327,0.03932,4.750593824,
0.03934,-3.379126622,0.03934,4.38516353,
0.03936,-1.917405445,0.03936,3.654302942,
0.03938,-2.648266033,0.03938,4.750593824,
0.0394,-1.551975151,0.0394,4.38516353,
0.03942,-0.4556842682,0.03942,4.750593824,
0.03944,-0.4556842682,0.03944,5.116024118,
0.03946,0.6406066143,0.03946,4.38516353,
0.03948,1.371467203,0.03948,4.38516353,
0.0395,-0.8211145624,0.0395,4.750593824,
0.03952,1.006036908,0.03952,4.750593824,
0.03954,1.736897497,0.03954,4.38516353,
0.03956,2.833188379,0.03956,4.750593824,
0.03958,3.564048968,0.03958,4.019733236,
0.0396,1.371467203,0.0396,4.019733236,
0.03962,3.929479262,0.03962,4.750593824,
0.03964,3.198618673,0.03964,4.38516353,
0.03966,2.833188379,0.03966,4.019733236,
0.03968,1.736897497,0.03968,4.38516353,
0.0397,3.198618673,0.0397,5.116024118,
0.03972,3.198618673,0.03972,4.38516353,
0.03974,3.564048968,0.03974,4.38516353,
0.03976,2.467758085,0.03976,4.750593824,
0.03978,3.198618673,0.03978,4.019733236,
0.0398,2.833188379,0.0398,4.750593824,
0.03982,2.467758085,0.03982,4.750593824,
0.03984,2.102327791,0.03984,4.019733236,
0.03986,2.102327791,0.03986,4.019733236,
0.03988,2.467758085,0.03988,4.38516353,
0.0399,0.2751763201,0.0399,4.38516353,
0.03992,2.102327791,0.03992,4.38516353,
0.03994,0.2751763201,0.03994,4.38516353,
0.03996,-0.4556842682,0.03996,4.38516353,
0.03998,-3.379126622,0.03998,4.38516353,
0.04,-2.282835739,0.04,4.38516353,
0.04002,-1.186544857,0.04002,4.38516353,
0.04004,-3.744556916,0.04004,4.019733236,
0.04006,-2.648266033,0.04006,4.38516353,
0.04008,-3.013696327,0.04008,4.38516353,
0.0401,-3.379126622,0.0401,4.38516353,
0.04012,-3.744556916,0.04012,4.38516353,
0.04014,-2.648266033,0.04014,4.019733236,
0.04016,-3.379126622,0.04016,3.654302942,
0.04018,-2.648266033,0.04018,4.38516353,
0.0402,-3.379126622,0.0402,3.654302942,
0.04022,-1.917405445,0.04022,4.38516353,
0.04024,-3.744556916,0.04024,4.38516353,
0.04026,-3.379126622,0.04026,4.019733236,
0.04028,-1.551975151,0.04028,4.750593824,
0.0403,0.6406066143,0.0403,4.750593824,
0.04032,-1.551975151,0.04032,4.019733236,
0.04034,-0.4556842682,0.04034,4.38516353,
0.04036,0.2751763201,0.04036,4.38516353,
0.04038,-0.4556842682,0.04038,4.019733236,
0.0404,1.006036908,0.0404,4.38516353,
0.04042,1.371467203,0.04042,4.019733236,
0.04044,1.006036908,0.04044,3.288872648,
0.04046,2.102327791,0.04046,4.750593824,
0.04048,2.102327791,0.04048,4.38516353,
0.0405,2.102327791,0.0405,4.019733236,
0.04052,2.102327791,0.04052,4.38516353,
0.04054,2.833188379,0.04054,4.750593824,
0.04056,3.929479262,0.04056,4.38516353,
0.04058,2.833188379,0.04058,4.019733236,
0.0406,4.66033985,0.0406,4.019733236,
0.04062,3.564048968,0.04062,4.019733236,
0.04064,3.564048968,0.04064,4.38516353,
0.04066,4.66033985,0.04066,4.38516353,
0.04068,4.294909556,0.04068,4.38516353,
0.0407,2.467758085,0.0407,4.38516353,
0.04072,3.564048968,0.04072,4.38516353,
0.04074,2.467758085,0.04074,3.654302942,
0.04076,1.006036908,0.04076,4.019733236,
0.04078,3.198618673,0.04078,4.38516353,
0.0408,1.371467203,0.0408,4.019733236,
0.04082,1.371467203,0.04082,4.750593824,
0.04084,1.371467203,0.04084,4.019733236,
0.04086,-0.4556842682,0.04086,4.019733236,
0.04088,-0.09025397405,0.04088,4.38516353,
0.0409,-0.09025397405,0.0409,4.019733236,
0.04092,-1.186544857,0.04092,4.019733236,
0.04094,-2.282835739,0.04094,3.654302942,
0.04096,-0.4556842682,0.04096,4.019733236,
0.04098,-3.744556916,0.04098,4.019733236,
0.041,-2.282835739,0.041,4.38516353,
0.04102,-2.648266033,0.04102,4.38516353,
0.04104,-3.013696327,0.04104,3.654302942,
0.04106,-3.013696327,0.04106,4.38516353,
0.04108,-1.551975151,0.04108,3.654302942,
0.0411,-3.744556916,0.0411,4.019733236,
0.04112,-3.013696327,0.04112,4.38516353,
0.04114,-4.475417504,0.04114,4.750593824,
0.04116,-3.744556916,0.04116,4.38516353,
0.04118,-1.917405445,0.04118,5.481454413,
0.0412,-4.10998721,0.0412,4.38516353,
0.04122,-1.551975151,0.04122,4.019733236,
0.04124,-2.648266033,0.04124,4.38516353,
0.04126,-1.186544857,0.04126,4.019733236,
0.04128,-1.551975151,0.04128,4.019733236,
0.0413,-0.8211145624,0.0413,4.38516353,
0.04132,1.371467203,0.04132,4.38516353,
0.04134,1.371467203,0.04134,3.654302942,
0.04136,-0.8211145624,0.04136,4.750593824,
0.04138,1.736897497,0.04138,2.923442353,
0.0414,1.371467203,0.0414,3.654302942,
0.04142,3.198618673,0.04142,4.019733236,
0.04144,2.102327791,0.04144,4.38516353,
0.04146,4.294909556,0.04146,4.019733236,
0.04148,2.833188379,0.04148,6.212315001,
0.0415,3.198618673,0.0415,4.019733236,
0.04152,3.198618673,0.04152,3.654302942,
0.04154,3.929479262,0.04154,4.38516353,
0.04156,5.391200439,0.04156,4.019733236,
0.04158,3.564048968,0.04158,2.192581765,
0.0416,3.929479262,0.0416,4.38516353,
0.04162,2.467758085,0.04162,4.38516353,
0.04164,2.467758085,0.04164,4.019733236,
0.04166,2.467758085,0.04166,4.38516353,
0.04168,2.467758085,0.04168,4.750593824,
0.0417,3.198618673,0.0417,4.019733236,
0.04172,0.2751763201,0.04172,4.38516353,
0.04174,1.006036908,0.04174,4.38516353,
0.04176,1.006036908,0.04176,3.654302942,
0.04178,0.6406066143,0.04178,5.481454413,
0.0418,-1.186544857,0.0418,4.38516353,
0.04182,-0.4556842682,0.04182,4.38516353,
0.04184,-1.551975151,0.04184,4.38516353,
0.04186,-1.186544857,0.04186,4.38516353,
0.04188,-1.917405445,0.04188,3.288872648,
0.0419,-1.551975151,0.0419,5.116024118,
0.04192,-3.744556916,0.04192,4.38516353,
0.04194,-3.379126622,0.04194,4.019733236,
0.04196,-5.206278092,0.04196,4.750593824,
0.04198,-4.10998721,0.04198,5.116024118,
0.042,-3.744556916,0.042,4.019733236,
0.04202,-1.186544857,0.04202,5.116024118,
0.04204,-4.10998721,0.04204,4.019733236,
0.04206,-3.744556916,0.04206,4.019733236,
0.04208,-3.744556916,0.04208,4.019733236,
0.0421,-5.937138681,0.0421,4.38516353,
0.04212,-3.013696327,0.04212,4.019733236,
0.04214,-2.648266033,0.04214,5.116024118,
0.04216,-2.648266033,0.04216,5.116024118,
0.04218,-2.648266033,0.04218,4.019733236,
0.0422,-1.186544857,0.0422,4.019733236,
0.04222,-1.186544857,0.04222,4.750593824,
0.04224,-0.4556842682,0.04224,4.38516353,
0.04226,-0.09025397405,0.04226,4.750593824,
0.04228,-0.09025397405,0.04228,4.750593824,
0.0423,0.2751763201,0.0423,4.019733236,
0.04232,1.371467203,0.04232,4.38516353,
0.04234,-0.8211145624,0.04234,4.38516353,
0.04236,1.371467203,0.04236,4.38516353,
0.04238,3.564048968,0.04238,5.116024118,
0.0424,2.833188379,0.0424,4.019733236,
0.04242,3.929479262,0.04242,4.38516353,
0.04244,3.564048968,0.04244,4.750593824,
0.04246,2.467758085,0.04246,4.38516353,
0.04248,3.564048968,0.04248,4.019733236,
0.0425,4.66033985,0.0425,4.750593824,
0.04252,3.564048968,0.04252,4.019733236,
0.04254,1.371467203,0.04254,4.38516353,
0.04256,2.467758085,0.04256,4.750593824,
0.04258,2.833188379,0.04258,4.750593824,
0.0426,2.467758085,0.0426,4.38516353,
0.04262,2.467758085,0.04262,4.750593824,
0.04264,1.006036908,0.04264,4.38516353,
0.04266,-0.09025397405,0.04266,4.38516353,
0.04268,0.6406066143,0.04268,4.750593824,
0.0427,-1.186544857,0.0427,4.019733236,
0.04272,0.2751763201,0.04272,4.38516353,
0.04274,-1.186544857,0.04274,4.750593824,
0.04276,-0.4556842682,0.04276,4.019733236,
0.04278,0.2751763201,0.04278,4.019733236,
0.0428,-1.186544857,0.0428,4.38516353,
0.04282,-2.282835739,0.04282,4.38516353,
0.04284,-3.379126622,0.04284,4.38516353,
0.04286,-2.282835739,0.04286,4.750593824,
0.04288,-3.744556916,0.04288,4.750593824,
0.0429,-3.744556916,0.0429,4.38516353,
0.04292,-2.648266033,0.04292,5.116024118,
0.04294,-2.648266033,0.04294,4.019733236,
0.04296,-3.744556916,0.04296,4.019733236,
0.04298,-4.10998721,0.04298,4.38516353,
0.043,-3.013696327,0.043,4.38516353,
0.04302,-3.013696327,0.04302,4.38516353,
0.04304,-1.186544857,0.04304,5.116024118,
0.04306,-3.013696327,0.04306,4.019733236,
0.04308,-2.648266033,0.04308,4.019733236,
0.0431,-1.917405445,0.0431,4.750593824,
0.04312,-3.013696327,0.04312,3.654302942,
0.04314,-1.917405445,0.04314,4.019733236,
0.04316,0.2751763201,0.04316,4.750593824,
0.04318,-0.09025397405,0.04318,4.750593824,
0.0432,0.2751763201,0.0432,4.38516353,
0.04322,-0.4556842682,0.04322,4.750593824,
0.04324,0.6406066143,0.04324,4.38516353,
0.04326,1.371467203,0.04326,4.38516353,
0.04328,2.833188379,0.04328,5.116024118,
0.0433,2.102327791,0.0433,4.38516353,
0.04332,-0.09025397405,0.04332,4.019733236,
0.04334,3.564048968,0.04334,4.750593824,
0.04336,2.833188379,0.04336,4.019733236,
0.04338,3.929479262,0.04338,4.019733236,
0.0434,3.929479262,0.0434,4.750593824,
0.04342,3.564048968,0.04342,4.019733236,
0.04344,1.736897497,0.04344,5.116024118,
0.04346,3.929479262,0.04346,4.750593824,
0.04348,2.833188379,0.04348,4.38516353,
0.0435,3.198618673,0.0435,4.38516353,
0.04352,2.833188379,0.04352,4.38516353,
0.04354,2.467758085,0.04354,4.38516353,
0.04356,1.371467203,0.04356,4.38516353,
0.04358,2.102327791,0.04358,4.750593824,
0.0436,0.6406066143,0.0436,4.38516353,
0.04362,2.102327791,0.04362,4.019733236,
0.04364,-0.8211145624,0.04364,4.750593824,
0.04366,-0.8211145624,0.04366,4.38516353,
0.04368,-0.4556842682,0.04368,4.38516353,
0.0437,-0.4556842682,0.0437,4.750593824,
0.04372,-2.282835739,0.04372,4.019733236,
0.04374,-2.648266033,0.04374,4.38516353,
0.04376,-1.917405445,0.04376,4.38516353,
0.04378,-3.379126622,0.04378,4.38516353,
0.0438,-3.744556916,0.0438,4.019733236,
0.04382,-2.648266033,0.04382,4.750593824,
0.04384,-3.379126622,0.04384,4.750593824,
0.04386,-4.10998721,0.04386,4.750593824,
0.04388,-4.10998721,0.04388,4.750593824,
0.0439,-3.379126622,0.0439,4.019733236,
0.04392,-3.379126622,0.04392,4.750593824,
0.04394,-3.379126622,0.04394,4.38516353,
0.04396,-2.648266033,0.04396,4.38516353,
0.04398,-2.282835739,0.04398,4.38516353,
0.044,-3.379126622,0.044,4.750593824,
0.04402,-2.282835739,0.04402,4.750593824,
0.04404,-1.917405445,0.04404,5.116024118,
0.04406,-1.186544857,0.04406,4.019733236,
0.04408,-2.282835739,0.04408,4.019733236,
0.0441,-0.4556842682,0.0441,5.116024118,
0.04412,1.371467203,0.04412,4.019733236,
0.04414,2.467758085,0.04414,4.38516353,
0.04416,1.736897497,0.04416,4.750593824,
0.04418,1.371467203,0.04418,4.019733236,
0.0442,2.102327791,0.0442,4.019733236,
0.04422,2.833188379,0.04422,4.750593824,
0.04424,2.833188379,0.04424,4.38516353,
0.04426,2.833188379,0.04426,4.019733236,
0.04428,4.294909556,0.04428,4.750593824,
0.0443,2.467758085,0.0443,5.481454413,
0.04432,3.564048968,0.04432,4.38516353,
0.04434,4.66033985,0.04434,4.750593824,
0.04436,2.833188379,0.04436,4.750593824,
0.04438,3.564048968,0.04438,4.38516353,
0.0444,4.294909556,0.0444,4.019733236,
0.04442,3.929479262,0.04442,4.750593824,
0.04444,3.929479262,0.04444,4.019733236,
0.04446,3.564048968,0.04446,5.116024118,
0.04448,1.371467203,0.04448,4.38516353,
0.0445,2.102327791,0.0445,5.116024118,
0.04452,1.006036908,0.04452,4.750593824,
0.04454,-0.09025397405,0.04454,4.38516353,
0.04456,3.564048968,0.04456,4.38516353,
0.04458,0.2751763201,0.04458,4.750593824,
0.0446,-2.282835739,0.0446,5.116024118,
0.04462,-1.551975151,0.04462,4.019733236,
0.04464,0.2751763201,0.04464,4.750593824,
0.04466,-1.551975151,0.04466,4.750593824,
0.04468,-1.551975151,0.04468,5.481454413,
0.0447,-2.282835739,0.0447,4.38516353,
0.04472,-2.648266033,0.04472,4.019733236,
0.04474,-3.744556916,0.04474,4.38516353,
0.04476,-2.648266033,0.04476,4.750593824,
0.04478,-5.206278092,0.04478,4.38516353,
0.0448,-4.475417504,0.0448,5.116024118,
0.04482,-2.282835739,0.04482,4.38516353,
0.04484,-4.475417504,0.04484,4.38516353,
0.04486,-3.744556916,0.04486,4.019733236,
0.04488,-2.282835739,0.04488,4.750593824,
0.0449,-3.013696327,0.0449,3.654302942,
0.04492,-5.571708387,0.04492,4.38516353,
0.04494,-0.8211145624,0.04494,4.750593824,
0.04496,-1.551975151,0.04496,4.750593824,
0.04498,-0.4556842682,0.04498,4.750593824,
0.045,-0.4556842682,0.045,5.116024118,
0.04502,-1.917405445,0.04502,4.38516353,
0.04504,-0.09025397405,0.04504,4.38516353,
0.04506,-0.09025397405,0.04506,4.750593824,
0.04508,0.6406066143,0.04508,4.019733236,
0.0451,4.66033985,0.0451,4.750593824,
0.04512,3.564048968,0.04512,4.750593824,
0.04514,2.102327791,0.04514,4.750593824,
0.04516,3.929479262,0.04516,5.116024118,
0.04518,4.294909556,0.04518,4.38516353,
0.0452,2.833188379,0.0452,4.019733236,
0.04522,3.564048968,0.04522,4.019733236,
0.04524,2.467758085,0.04524,4.38516353,
0.04526,3.564048968,0.04526,4.38516353,
0.04528,2.833188379,0.04528,4.38516353,
0.0453,3.198618673,0.0453,4.750593824,
0.04532,4.66033985,0.04532,3.654302942,
0.04534,3.564048968,0.04534,5.116024118,
0.04536,3.198618673,0.04536,4.38516353,
0.04538,3.564048968,0.04538,4.019733236,
0.0454,2.467758085,0.0454,4.38516353,
0.04542,1.371467203,0.04542,4.38516353,
0.04544,1.371467203,0.04544,4.019733236,
0.04546,1.736897497,0.04546,4.750593824,
0.04548,0.6406066143,0.04548,4.38516353,
0.0455,-0.8211145624,0.0455,4.019733236,
0.04552,2.467758085,0.04552,4.750593824,
0.04554,-2.648266033,0.04554,4.750593824,
0.04556,-0.8211145624,0.04556,4.019733236,
0.04558,-1.551975151,0.04558,4.750593824,
0.0456,-2.282835739,0.0456,4.38516353,
0.04562,-1.186544857,0.04562,4.38516353,
0.04564,-2.282835739,0.04564,5.116024118,
0.04566,-3.379126622,0.04566,4.38516353,
0.04568,-4.10998721,0.04568,4.38516353,
0.0457,-3.744556916,0.0457,5.116024118,
0.04572,-6.667999269,0.04572,4.38516353,
0.04574,-3.013696327,0.04574,4.019733236,
0.04576,-3.379126622,0.04576,5.116024118,
0.04578,-5.937138681,0.04578,4.38516353,
0.0458,-4.840847798,0.0458,4.019733236,
0.04582,-3.013696327,0.04582,4.750593824,
0.04584,-3.744556916,0.04584,4.38516353,
0.04586,-4.475417504,0.04586,4.38516353,
0.04588,-1.551975151,0.04588,4.38516353,
0.0459,-2.648266033,0.0459,4.019733236,
0.04592,-3.379126622,0.04592,4.019733236,
0.04594,-1.186544857,0.04594,4.750593824,
0.04596,-0.4556842682,0.04596,4.750593824,
0.04598,1.371467203,0.04598,4.38516353,
0.046,0.2751763201,0.046,4.750593824,
0.04602,0.2751763201,0.04602,4.750593824,
0.04604,1.006036908,0.04604,4.019733236,
0.04606,2.467758085,0.04606,4.750593824,
0.04608,-1.551975151,0.04608,4.019733236,
0.0461,2.467758085,0.0461,4.38516353,
0.04612,2.467758085,0.04612,5.116024118,
0.04614,3.198618673,0.04614,4.38516353,
0.04616,3.198618673,0.04616,4.019733236,
0.04618,2.833188379,0.04618,4.38516353,
0.0462,3.564048968,0.0462,4.750593824,
0.04622,3.198618673,0.04622,4.019733236,
0.04624,4.294909556,0.04624,5.481454413,
0.04626,2.833188379,0.04626,4.38516353,
0.04628,3.198618673,0.04628,4.019733236,
0.0463,3.198618673,0.0463,4.38516353,
0.04632,3.198618673,0.04632,4.38516353,
0.04634,1.736897497,0.04634,4.019733236,
0.04636,1.736897497,0.04636,4.750593824,
0.04638,1.371467203,0.04638,4.38516353,
0.0464,1.371467203,0.0464,4.019733236,
0.04642,0.2751763201,0.04642,5.116024118,
0.04644,-0.09025397405,0.04644,4.019733236,
0.04646,-0.8211145624,0.04646,4.019733236,
0.04648,-0.4556842682,0.04648,4.750593824,
0.0465,0.2751763201,0.0465,4.38516353,
0.04652,-1.917405445,0.04652,4.019733236,
0.04654,-1.917405445,0.04654,4.750593824,
0.04656,-3.379126622,0.04656,4.019733236,
0.04658,-3.379126622,0.04658,4.38516353,
0.0466,-4.475417504,0.0466,4.750593824,
0.04662,-3.013696327,0.04662,4.019733236,
0.04664,-3.379126622,0.04664,4.019733236,
0.04666,-3.744556916,0.04666,4.38516353,
0.04668,-3.744556916,0.04668,4.38516353,
0.0467,-3.744556916,0.0467,4.750593824,
0.04672,-2.648266033,0.04672,4.38516353,
0.04674,-3.013696327,0.04674,4.019733236,
0.04676,-3.013696327,0.04676,4.38516353,
0.04678,-4.10998721,0.04678,4.750593824,
0.0468,-2.282835739,0.0468,4.38516353,
0.04682,-1.917405445,0.04682,4.750593824,
0.04684,-1.917405445,0.04684,4.38516353,
0.04686,-0.09025397405,0.04686,4.38516353,
0.04688,-1.917405445,0.04688,4.38516353,
0.0469,-0.8211145624,0.0469,4.38516353,
0.04692,-1.551975151,0.04692,4.750593824,
0.04694,0.6406066143,0.04694,4.38516353,
0.04696,0.6406066143,0.04696,4.750593824,
0.04698,1.736897497,0.04698,4.38516353,
0.047,2.467758085,0.047,4.750593824,
0.04702,1.006036908,0.04702,4.38516353,
0.04704,3.564048968,0.04704,4.38516353,
0.04706,3.198618673,0.04706,4.38516353,
0.04708,3.198618673,0.04708,4.38516353,
0.0471,4.294909556,0.0471,4.38516353,
0.04712,3.198618673,0.04712,4.38516353,
0.04714,3.564048968,0.04714,4.750593824,
0.04716,4.294909556,0.04716,4.019733236,
0.04718,3.929479262,0.04718,4.750593824,
0.0472,3.198618673,0.0472,4.38516353,
0.04722,4.66033985,0.04722,3.654302942,
0.04724,2.833188379,0.04724,4.38516353,
0.04726,1.736897497,0.04726,4.38516353,
0.04728,2.833188379,0.04728,4.019733236,
0.0473,2.102327791,0.0473,4.38516353,
0.04732,1.736897497,0.04732,5.846884707,
0.04734,1.371467203,0.04734,4.019733236,
0.04736,1.371467203,0.04736,4.750593824,
0.04738,-0.09025397405,0.04738,4.750593824,
0.0474,-0.09025397405,0.0474,4.019733236,
0.04742,-0.8211145624,0.04742,3.288872648,
0.04744,-2.648266033,0.04744,4.38516353,
0.04746,-1.917405445,0.04746,4.019733236,
0.04748,-2.648266033,0.04748,4.750593824,
0.0475,-3.379126622,0.0475,4.750593824,
0.04752,-4.475417504,0.04752,4.019733236,
0.04754,-3.013696327,0.04754,4.750593824,
0.04756,-3.013696327,0.04756,4.38516353,
0.04758,-3.379126622,0.04758,4.38516353,
0.0476,-0.09025397405,0.0476,4.750593824,
0.04762,-4.10998721,0.04762,6.212315001,
0.04764,-3.013696327,0.04764,4.38516353,
0.04766,-2.282835739,0.04766,4.750593824,
0.04768,-4.10998721,0.04768,4.38516353,
0.0477,-3.013696327,0.0477,4.38516353,
0.04772,-4.840847798,0.04772,4.019733236,
0.04774,-3.379126622,0.04774,4.38516353,
0.04776,-1.551975151,0.04776,4.019733236,
0.04778,-1.917405445,0.04778,4.38516353,
0.0478,-1.917405445,0.0478,4.38516353,
0.04782,0.2751763201,0.04782,4.750593824,
0.04784,1.371467203,0.04784,4.38516353,
0.04786,-0.8211145624,0.04786,4.750593824,
0.04788,-0.09025397405,0.04788,4.38516353,
0.0479,1.006036908,0.0479,4.750593824,
0.04792,1.736897497,0.04792,4.750593824,
0.04794,1.006036908,0.04794,4.38516353,
0.04796,2.833188379,0.04796,4.750593824,
0.04798,2.833188379,0.04798,4.38516353,
0.048,3.198618673,0.048,4.019733236,
0.04802,3.929479262,0.04802,3.654302942,
0.04804,3.198618673,0.04804,4.38516353,
0.04806,2.833188379,0.04806,4.38516353,
0.04808,4.66033985,0.04808,4.38516353,
0.0481,3.198618673,0.0481,4.019733236,
0.04812,3.564048968,0.04812,2.923442353,
0.04814,3.929479262,0.04814,4.750593824,
0.04816,2.833188379,0.04816,4.38516353,
0.04818,3.564048968,0.04818,4.38516353,
0.0482,3.198618673,0.0482,4.38516353,
0.04822,2.467758085,0.04822,5.481454413,
0.04824,3.198618673,0.04824,4.019733236,
0.04826,1.736897497,0.04826,4.750593824,
0.04828,0.6406066143,0.04828,4.38516353,
0.0483,0.2751763201,0.0483,4.019733236,
0.04832,1.371467203,0.04832,5.846884707,
0.04834,-1.551975151,0.04834,4.38516353,
0.04836,-0.8211145624,0.04836,4.38516353,
0.04838,-0.09025397405,0.04838,5.116024118,
0.0484,-2.648266033,0.0484,4.38516353,
0.04842,-1.551975151,0.04842,3.288872648,
0.04844,-1.186544857,0.04844,4.38516353,
0.04846,-3.013696327,0.04846,4.38516353,
0.04848,-3.013696327,0.04848,3.288872648,
0.0485,-4.10998721,0.0485,4.38516353,
0.04852,-3.744556916,0.04852,4.750593824,
0.04854,-2.282835739,0.04854,4.38516353,
0.04856,-3.379126622,0.04856,4.38516353,
0.04858,-3.379126622,0.04858,4.38516353,
0.0486,-2.648266033,0.0486,4.750593824,
0.04862,-4.475417504,0.04862,4.38516353,
0.04864,-2.648266033,0.04864,4.38516353,
0.04866,-1.917405445,0.04866,4.019733236,
0.04868,-2.282835739,0.04868,4.019733236,
0.0487,-1.186544857,0.0487,4.38516353,
0.04872,-1.186544857,0.04872,3.654302942,
0.04874,-0.4556842682,0.04874,4.019733236,
0.04876,-0.09025397405,0.04876,4.38516353,
0.04878,-1.186544857,0.04878,4.019733236,
0.0488,0.2751763201,0.0488,3.654302942,
0.04882,0.6406066143,0.04882,4.38516353,
0.04884,1.736897497,0.04884,4.38516353,
0.04886,1.736897497,0.04886,3.654302942,
0.04888,1.736897497,0.04888,4.750593824,
0.0489,2.833188379,0.0489,4.38516353,
0.04892,2.833188379,0.04892,4.019733236,
0.04894,1.736897497,0.04894,4.38516353,
0.04896,3.929479262,0.04896,4.38516353,
0.04898,3.564048968,0.04898,4.019733236,
0.049,3.929479262,0.049,4.38516353,
0.04902,4.294909556,0.04902,3.654302942,
0.04904,3.198618673,0.04904,3.654302942,
0.04906,4.294909556,0.04906,4.38516353,
0.04908,1.371467203,0.04908,4.38516353,
0.0491,2.102327791,0.0491,3.654302942,
0.04912,3.564048968,0.04912,4.38516353,
0.04914,2.833188379,0.04914,4.019733236,
0.04916,3.564048968,0.04916,3.654302942,
0.04918,1.736897497,0.04918,4.38516353,
0.0492,2.102327791,0.0492,4.38516353,
0.04922,-0.8211145624,0.04922,4.019733236,
0.04924,0.6406066143,0.04924,4.38516353,
0.04926,0.2751763201,0.04926,4.019733236,
0.04928,-1.551975151,0.04928,3.654302942,
0.0493,-0.4556842682,0.0493,4.750593824,
0.04932,-1.551975151,0.04932,4.38516353,
0.04934,-1.917405445,0.04934,4.019733236,
0.04936,-1.917405445,0.04936,4.38516353,
0.04938,-2.648266033,0.04938,4.38516353,
0.0494,-3.013696327,0.0494,3.288872648,
0.04942,-3.379126622,0.04942,4.750593824,
0.04944,-3.379126622,0.04944,4.019733236,
0.04946,-3.744556916,0.04946,4.019733236,
0.04948,-2.648266033,0.04948,4.38516353,
0.0495,-3.379126622,0.0495,4.38516353,
0.04952,-1.917405445,0.04952,3.654302942,
0.04954,-3.013696327,0.04954,4.38516353,
0.04956,-3.744556916,0.04956,4.38516353,
0.04958,-3.379126622,0.04958,4.019733236,
0.0496,-1.551975151,0.0496,4.019733236,
0.04962,-1.186544857,0.04962,4.38516353,
0.04964,-3.013696327,0.04964,4.019733236,
0.04966,-0.4556842682,0.04966,4.38516353,
0.04968,-0.8211145624,0.04968,4.750593824,
0.0497,-1.186544857,0.0497,4.38516353,
0.04972,-0.09025397405,0.04972,4.750593824,
0.04974,1.371467203,0.04974,4.38516353,
0.04976,3.198618673,0.04976,4.019733236,
0.04978,0.6406066143,0.04978,4.019733236,
0.0498,2.102327791,0.0498,4.750593824,
0.04982,2.102327791,0.04982,4.019733236,
0.04984,3.929479262,0.04984,4.750593824,
0.04986,3.198618673,0.04986,4.019733236,
0.04988,2.833188379,0.04988,4.019733236,
0.0499,3.929479262,0.0499,4.38516353,
0.04992,4.294909556,0.04992,4.38516353,
0.04994,3.929479262,0.04994,3.654302942,
0.04996,4.66033985,0.04996,4.750593824,
0.04998,4.294909556,0.04998,4.38516353,
0.05,3.929479262,0.05,4.019733236,
0.05002,3.198618673,0.05002,4.750593824,
0.05004,2.102327791,0.05004,4.38516353,
0.05006,2.833188379,0.05006,4.019733236,
0.05008,2.467758085,0.05008,4.38516353,
0.0501,1.006036908,0.0501,4.38516353,
0.05012,1.006036908,0.05012,4.750593824,
0.05014,-0.09025397405,0.05014,4.38516353,
0.05016,-0.4556842682,0.05016,4.750593824,
0.05018,0.2751763201,0.05018,5.116024118,
0.0502,0.2751763201,0.0502,4.750593824,
0.05022,-0.8211145624,0.05022,4.38516353,
0.05024,-1.551975151,0.05024,3.654302942,
0.05026,-0.8211145624,0.05026,4.38516353,
0.05028,-1.917405445,0.05028,4.750593824,
0.0503,-2.282835739,0.0503,4.38516353,
0.05032,-3.013696327,0.05032,4.38516353,
0.05034,-4.10998721,0.05034,5.116024118,
0.05036,-3.013696327,0.05036,4.38516353,
0.05038,-3.379126622,0.05038,4.019733236,
0.0504,-3.379126622,0.0504,3.654302942,
0.05042,-4.10998721,0.05042,4.38516353,
0.05044,-4.10998721,0.05044,4.38516353,
0.05046,-2.648266033,0.05046,4.38516353,
0.05048,-3.013696327,0.05048,4.750593824,
0.0505,-3.379126622,0.0505,4.38516353,
0.05052,-2.648266033,0.05052,4.38516353,
0.05054,-4.10998721,0.05054,4.750593824,
0.05056,-3.379126622,0.05056,4.019733236,
0.05058,2.467758085,0.05058,4.38516353,
0.0506,-1.551975151,0.0506,4.38516353,
0.05062,1.736897497,0.05062,4.38516353,
0.05064,-0.4556842682,0.05064,4.38516353,
0.05066,0.2751763201,0.05066,4.38516353,
0.05068,1.006036908,0.05068,4.019733236,
0.0507,1.736897497,0.0507,4.750593824,
0.05072,0.6406066143,0.05072,4.38516353,
0.05074,2.102327791,0.05074,3.654302942,
0.05076,2.102327791,0.05076,4.38516353,
0.05078,3.929479262,0.05078,3.654302942,
0.0508,2.833188379,0.0508,4.019733236,
0.05082,2.833188379,0.05082,4.38516353,
0.05084,2.467758085,0.05084,5.116024118,
0.05086,3.564048968,0.05086,4.019733236,
0.05088,4.294909556,0.05088,4.750593824,
0.0509,2.833188379,0.0509,4.38516353,
0.05092,2.833188379,0.05092,4.38516353,
0.05094,2.102327791,0.05094,5.481454413,
0.05096,3.564048968,0.05096,3.654302942,
0.05098,2.467758085,0.05098,4.019733236,
0.051,2.467758085,0.051,4.750593824,
0.05102,2.102327791,0.05102,4.38516353,
0.05104,1.736897497,0.05104,2.923442353,
0.05106,1.371467203,0.05106,4.38516353,
0.05108,-0.09025397405,0.05108,4.019733236,
0.0511,1.006036908,0.0511,4.38516353,
0.05112,-0.4556842682,0.05112,4.38516353,
0.05114,-0.8211145624,0.05114,3.654302942,
0.05116,-2.282835739,0.05116,4.38516353,
0.05118,-1.551975151,0.05118,5.116024118,
0.0512,-1.551975151,0.0512,4.38516353,
0.05122,-2.282835739,0.05122,4.019733236,
0.05124,-3.013696327,0.05124,5.116024118,
0.05126,-5.206278092,0.05126,4.38516353,
0.05128,-3.379126622,0.05128,4.019733236,
0.0513,-3.379126622,0.0513,4.38516353,
0.05132,-4.10998721,0.05132,4.019733236,
0.05134,-4.475417504,0.05134,4.38516353,
0.05136,-2.282835739,0.05136,4.750593824,
0.05138,-3.379126622,0.05138,4.750593824,
0.0514,-4.10998721,0.0514,4.019733236,
0.05142,-3.013696327,0.05142,4.38516353,
0.05144,-2.648266033,0.05144,4.38516353,
0.05146,-1.917405445,0.05146,4.019733236,
0.05148,-4.10998721,0.05148,4.750593824,
0.0515,-1.551975151,0.0515,5.116024118,
0.05152,-0.4556842682,0.05152,4.38516353,
0.05154,-0.8211145624,0.05154,4.38516353,
0.05156,-3.013696327,0.05156,4.38516353,
0.05158,-0.09025397405,0.05158,4.019733236,
0.0516,1.006036908,0.0516,4.750593824,
0.05162,0.6406066143,0.05162,4.38516353,
0.05164,1.736897497,0.05164,4.750593824,
0.05166,2.467758085,0.05166,5.116024118,
0.05168,2.102327791,0.05168,4.38516353,
0.0517,1.371467203,0.0517,4.019733236,
0.05172,3.198618673,0.05172,4.38516353,
0.05174,2.102327791,0.05174,4.38516353,
0.05176,3.929479262,0.05176,4.019733236,
0.05178,3.198618673,0.05178,4.750593824,
0.0518,1.371467203,0.0518,4.38516353,
0.05182,2.467758085,0.05182,3.654302942,
0.05184,3.564048968,0.05184,4.750593824,
0.05186,2.467758085,0.05186,4.38516353,
0.05188,4.66033985,0.05188,4.019733236,
0.0519,3.564048968,0.0519,4.38516353,
0.05192,2.467758085,0.05192,4.38516353,
0.05194,2.467758085,0.05194,4.019733236,
0.05196,3.198618673,0.05196,4.38516353,
0.05198,1.371467203,0.05198,4.019733236,
0.052,1.006036908,0.052,4.019733236,
0.05202,1.736897497,0.05202,5.116024118,
0.05204,0.2751763201,0.05204,4.38516353,
0.05206,1.371467203,0.05206,3.654302942,
0.05208,-0.4556842682,0.05208,4.38516353,
0.0521,-1.186544857,0.0521,4.38516353,
0.05212,-2.282835739,0.05212,4.019733236,
0.05214,-1.917405445,0.05214,4.750593824,
0.05216,-3.379126622,0.05216,4.38516353,
0.05218,-3.379126622,0.05218,4.019733236,
0.0522,-3.013696327,0.0522,5.481454413,
0.05222,-3.379126622,0.05222,4.750593824,
0.05224,-2.282835739,0.05224,4.019733236,
0.05226,-5.206278092,0.05226,4.750593824,
0.05228,-4.10998721,0.05228,4.38516353,
0.0523,-4.475417504,0.0523,4.38516353,
0.05232,-3.744556916,0.05232,4.750593824,
0.05234,-2.648266033,0.05234,4.38516353,
0.05236,-2.648266033,0.05236,4.38516353,
0.05238,-4.10998721,0.05238,4.750593824,
0.0524,-2.648266033,0.0524,4.750593824,
0.05242,-1.186544857,0.05242,4.38516353,
0.05244,-2.648266033,0.05244,4.750593824,
0.05246,-0.8211145624,0.05246,4.750593824,
0.05248,-0.09025397405,0.05248,4.38516353,
0.0525,-0.4556842682,0.0525,4.750593824,
0.05252,-2.282835739,0.05252,5.116024118,
0.05254,1.736897497,0.05254,4.38516353,
0.05256,-0.09025397405,0.05256,4.38516353,
0.05258,1.006036908,0.05258,4.750593824,
0.0526,2.833188379,0.0526,4.38516353,
0.05262,2.467758085,0.05262,4.38516353,
0.05264,2.102327791,0.05264,4.750593824,
0.05266,5.391200439,0.05266,4.38516353,
0.05268,3.929479262,0.05268,4.750593824,
0.0527,3.564048968,0.0527,4.38516353,
0.05272,3.564048968,0.05272,4.38516353,
0.05274,3.564048968,0.05274,4.750593824,
0.05276,2.833188379,0.05276,4.38516353,
0.05278,3.929479262,0.05278,4.38516353,
0.0528,3.564048968,0.0528,4.38516353,
0.05282,4.66033985,0.05282,4.38516353,
0.05284,3.198618673,0.05284,4.750593824,
0.05286,4.66033985,0.05286,4.38516353,
0.05288,2.102327791,0.05288,4.38516353,
0.0529,1.006036908,0.0529,4.38516353,
0.05292,2.467758085,0.05292,4.750593824,
0.05294,0.2751763201,0.05294,4.750593824,
0.05296,-0.4556842682,0.05296,4.38516353,
0.05298,-0.09025397405,0.05298,4.750593824,
0.053,-1.186544857,0.053,4.38516353,
0.05302,-0.8211145624,0.05302,4.750593824,
0.05304,-2.648266033,0.05304,4.750593824,
0.05306,-4.10998721,0.05306,4.38516353,
0.05308,-1.551975151,0.05308,4.019733236,
0.0531,-3.744556916,0.0531,4.750593824,
0.05312,-3.013696327,0.05312,4.750593824,
0.05314,-3.379126622,0.05314,4.019733236,
0.05316,-3.379126622,0.05316,4.750593824,
0.05318,-4.10998721,0.05318,4.750593824,
0.0532,-2.648266033,0.0532,4.019733236,
0.05322,-3.379126622,0.05322,4.38516353,
0.05324,-4.10998721,0.05324,4.38516353,
0.05326,-4.475417504,0.05326,4.019733236,
0.05328,-3.744556916,0.05328,4.750593824,
0.0533,-3.379126622,0.0533,4.38516353,
0.05332,-2.282835739,0.05332,4.38516353,
0.05334,-1.917405445,0.05334,4.750593824,
0.05336,-3.379126622,0.05336,4.750593824,
0.05338,-0.8211145624,0.05338,4.38516353,
0.0534,-0.8211145624,0.0534,5.116024118,
0.05342,-0.8211145624,0.05342,4.38516353,
0.05344,-0.09025397405,0.05344,4.38516353,
0.05346,-0.09025397405,0.05346,4.750593824,
0.05348,-0.4556842682,0.05348,3.288872648,
0.0535,1.736897497,0.0535,4.38516353,
0.05352,2.102327791,0.05352,4.38516353,
0.05354,1.736897497,0.05354,4.38516353,
0.05356,3.198618673,0.05356,3.288872648,
0.05358,3.198618673,0.05358,4.38516353,
0.0536,2.467758085,0.0536,4.750593824,
0.05362,4.294909556,0.05362,4.38516353,
0.05364,3.929479262,0.05364,4.38516353,
0.05366,5.025770144,0.05366,4.750593824,
0.05368,2.833188379,0.05368,4.019733236,
0.0537,4.294909556,0.0537,3.654302942,
0.05372,3.564048968,0.05372,4.019733236,
0.05374,3.929479262,0.05374,4.019733236,
0.05376,4.294909556,0.05376,5.481454413,
0.05378,3.198618673,0.05378,4.38516353,
0.0538,2.467758085,0.0538,4.38516353,
0.05382,1.736897497,0.05382,4.750593824,
0.05384,1.736897497,0.05384,4.019733236,
0.05386,1.736897497,0.05386,3.654302942,
0.05388,1.371467203,0.05388,4.750593824,
0.0539,-0.09025397405,0.0539,4.38516353,
0.05392,-0.09025397405,0.05392,4.38516353,
0.05394,-1.186544857,0.05394,4.750593824,
0.05396,-1.917405445,0.05396,3.288872648,
0.05398,-1.186544857,0.05398,4.019733236,
0.054,-2.282835739,0.054,4.750593824,
0.05402,-1.551975151,0.05402,4.750593824,
0.05404,-2.648266033,0.05404,4.38516353,
0.05406,-5.206278092,0.05406,6.212315001,
0.05408,-4.475417504,0.05408,4.38516353,
0.0541,-3.744556916,0.0541,4.38516353,
0.05412,-2.648266033,0.05412,4.750593824,
0.05414,-4.475417504,0.05414,4.38516353,
0.05416,-1.551975151,0.05416,4.019733236,
0.05418,-5.571708387,0.05418,4.750593824,
0.0542,-3.013696327,0.0542,3.654302942,
0.05422,-3.013696327,0.05422,4.38516353,
0.05424,-4.10998721,0.05424,5.116024118,
0.05426,-1.551975151,0.05426,2.923442353,
0.05428,-0.8211145624,0.05428,4.38516353,
0.0543,-2.648266033,0.0543,4.750593824,
0.05432,-1.917405445,0.05432,4.019733236,
0.05434,-2.282835739,0.05434,4.38516353,
0.05436,-2.282835739,0.05436,5.116024118,
0.05438,-1.551975151,0.05438,4.38516353,
0.0544,-0.09025397405,0.0544,4.38516353,
0.05442,0.6406066143,0.05442,4.019733236,
0.05444,2.102327791,0.05444,4.38516353,
0.05446,2.102327791,0.05446,3.288872648,
0.05448,1.736897497,0.05448,3.654302942,
0.0545,1.736897497,0.0545,4.38516353,
0.05452,2.833188379,0.05452,4.019733236,
0.05454,3.198618673,0.05454,3.288872648,
0.05456,3.929479262,0.05456,4.750593824,
0.05458,4.66033985,0.05458,4.38516353,
0.0546,4.294909556,0.0546,4.38516353,
0.05462,2.833188379,0.05462,4.38516353,
0.05464,4.294909556,0.05464,4.38516353,
0.05466,3.564048968,0.05466,5.116024118,
0.05468,3.564048968,0.05468,4.019733236,
0.0547,3.929479262,0.0547,4.019733236,
0.05472,3.198618673,0.05472,4.38516353,
0.05474,3.198618673,0.05474,3.654302942,
0.05476,2.467758085,0.05476,5.116024118,
0.05478,1.006036908,0.05478,4.019733236,
0.0548,1.736897497,0.0548,4.019733236,
0.05482,2.102327791,0.05482,4.38516353,
0.05484,-0.4556842682,0.05484,3.654302942,
0.05486,0.6406066143,0.05486,3.288872648,
0.05488,-0.4556842682,0.05488,4.38516353,
0.0549,-1.186544857,0.0549,4.019733236,
0.05492,-0.8211145624,0.05492,4.38516353,
0.05494,-1.551975151,0.05494,4.38516353,
0.05496,-4.10998721,0.05496,5.116024118,
0.05498,-2.282835739,0.05498,4.019733236,
0.055,-2.282835739,0.055,4.38516353,
0.05502,-3.744556916,0.05502,4.019733236,
0.05504,-2.648266033,0.05504,4.019733236,
0.05506,-3.013696327,0.05506,4.750593824,
0.05508,-4.475417504,0.05508,3.654302942,
0.0551,-2.648266033,0.0551,4.38516353,
0.05512,-2.282835739,0.05512,4.019733236,
0.05514,-3.013696327,0.05514,4.38516353,
0.05516,-2.648266033,0.05516,4.019733236,
0.05518,-2.282835739,0.05518,4.38516353,
0.0552,-2.648266033,0.0552,4.38516353,
0.05522,-2.648266033,0.05522,4.38516353,
0.05524,-1.186544857,0.05524,3.654302942,
0.05526,-1.917405445,0.05526,4.019733236,
0.05528,-0.09025397405,0.05528,4.38516353,
0.0553,-0.09025397405,0.0553,4.019733236,
0.05532,0.2751763201,0.05532,4.38516353,
0.05534,1.371467203,0.05534,4.019733236,
0.05536,1.371467203,0.05536,4.750593824,
0.05538,1.006036908,0.05538,4.750593824,
0.0554,0.2751763201,0.0554,4.38516353,
0.05542,2.467758085,0.05542,4.38516353,
0.05544,3.564048968,0.05544,4.38516353,
0.05546,1.371467203,0.05546,4.019733236,
0.05548,2.833188379,0.05548,4.38516353,
0.0555,3.929479262,0.0555,4.38516353,
0.05552,2.833188379,0.05552,4.38516353,
0.05554,5.025770144,0.05554,4.750593824,
0.05556,3.929479262,0.05556,4.38516353,
0.05558,3.929479262,0.05558,4.750593824,
0.0556,4.66033985,0.0556,4.750593824,
0.05562,2.102327791,0.05562,4.750593824,
0.05564,4.294909556,0.05564,4.38516353,
0.05566,2.102327791,0.05566,4.750593824,
0.05568,2.467758085,0.05568,4.38516353,
0.0557,3.198618673,0.0557,4.38516353,
0.05572,1.736897497,0.05572,4.750593824,
0.05574,0.2751763201,0.05574,4.38516353,
0.05576,1.371467203,0.05576,4.38516353,
0.05578,0.2751763201,0.05578,4.750593824,
0.0558,1.371467203,0.0558,4.750593824,
0.05582,-1.917405445,0.05582,4.019733236,
0.05584,-0.4556842682,0.05584,4.750593824,
0.05586,-2.648266033,0.05586,4.750593824,
0.05588,-2.282835739,0.05588,4.38516353,
0.0559,-2.282835739,0.0559,4.750593824,
0.05592,-4.840847798,0.05592,4.38516353,
0.05594,-3.744556916,0.05594,4.38516353,
0.05596,-2.648266033,0.05596,4.38516353,
0.05598,-3.379126622,0.05598,4.019733236,
0.056,-2.648266033,0.056,4.019733236,
0.05602,-3.379126622,0.05602,4.750593824,
0.05604,-4.840847798,0.05604,4.750593824,
0.05606,-2.648266033,0.05606,4.38516353,
0.05608,-3.379126622,0.05608,5.116024118,
0.0561,-3.379126622,0.0561,4.019733236,
0.05612,-3.013696327,0.05612,4.750593824,
0.05614,-1.551975151,0.05614,4.750593824,
0.05616,-1.917405445,0.05616,4.750593824,
0.05618,-0.4556842682,0.05618,4.38516353,
0.0562,-1.186544857,0.0562,4.750593824,
0.05622,3.198618673,0.05622,4.750593824,
0.05624,0.6406066143,0.05624,4.019733236,
0.05626,-0.8211145624,0.05626,5.116024118,
0.05628,1.006036908,0.05628,4.38516353,
0.0563,1.006036908,0.0563,4.019733236,
0.05632,2.102327791,0.05632,4.750593824,
0.05634,0.2751763201,0.05634,4.019733236,
0.05636,2.467758085,0.05636,4.019733236,
0.05638,2.467758085,0.05638,4.750593824,
0.0564,3.198618673,0.0564,4.38516353,
0.05642,3.564048968,0.05642,4.38516353,
0.05644,2.467758085,0.05644,4.750593824,
0.05646,3.564048968,0.05646,4.019733236,
0.05648,3.929479262,0.05648,4.019733236,
0.0565,3.564048968,0.0565,4.750593824,
0.05652,1.736897497,0.05652,4.38516353,
0.05654,3.929479262,0.05654,4.019733236,
0.05656,4.294909556,0.05656,5.116024118,
0.05658,2.833188379,0.05658,4.38516353,
0.0566,1.006036908,0.0566,4.38516353,
0.05662,2.102327791,0.05662,5.116024118,
0.05664,2.467758085,0.05664,4.38516353,
0.05666,2.467758085,0.05666,4.019733236,
0.05668,1.006036908,0.05668,4.750593824,
0.0567,0.2751763201,0.0567,4.38516353,
0.05672,-0.09025397405,0.05672,4.019733236,
0.05674,-0.09025397405,0.05674,4.750593824,
0.05676,-2.648266033,0.05676,4.019733236,
0.05678,-1.917405445,0.05678,4.019733236,
0.0568,-0.8211145624,0.0568,4.750593824,
0.05682,-3.013696327,0.05682,4.38516353,
0.05684,-3.744556916,0.05684,3.654302942,
0.05686,-3.379126622,0.05686,4.38516353,
0.05688,-5.206278092,0.05688,4.38516353,
0.0569,-3.744556916,0.0569,4.38516353,
0.05692,-3.379126622,0.05692,4.750593824,
0.05694,-3.013696327,0.05694,4.38516353,
0.05696,-3.013696327,0.05696,4.38516353,
0.05698,-4.475417504,0.05698,4.019733236,
0.057,-3.744556916,0.057,4.019733236,
0.05702,-3.379126622,0.05702,3.654302942,
0.05704,-1.186544857,0.05704,4.750593824,
0.05706,-1.551975151,0.05706,4.38516353,
0.05708,-2.648266033,0.05708,4.38516353,
0.0571,-1.186544857,0.0571,4.750593824,
0.05712,-2.282835739,0.05712,4.38516353,
0.05714,-1.186544857,0.05714,4.019733236,
0.05716,-0.09025397405,0.05716,5.116024118,
0.05718,1.006036908,0.05718,4.38516353,
0.0572,-0.09025397405,0.0572,4.019733236,
0.05722,-1.186544857,0.05722,4.38516353,
0.05724,1.736897497,0.05724,4.38516353,
0.05726,1.736897497,0.05726,4.38516353,
0.05728,2.467758085,0.05728,5.481454413,
0.0573,2.467758085,0.0573,4.019733236,
0.05732,3.198618673,0.05732,4.38516353,
0.05734,4.294909556,0.05734,4.750593824,
0.05736,1.736897497,0.05736,4.38516353,
0.05738,3.564048968,0.05738,3.654302942,
0.0574,5.025770144,0.0574,5.116024118,
0.05742,3.564048968,0.05742,4.38516353,
0.05744,3.564048968,0.05744,4.019733236,
0.05746,3.564048968,0.05746,5.116024118,
0.05748,2.467758085,0.05748,5.116024118,
0.0575,1.736897497,0.0575,4.019733236,
0.05752,2.833188379,0.05752,4.750593824,
0.05754,2.102327791,0.05754,4.38516353,
0.05756,3.198618673,0.05756,4.019733236,
0.05758,2.102327791,0.05758,5.116024118,
0.0576,0.2751763201,0.0576,4.38516353,
0.05762,1.006036908,0.05762,4.38516353,
0.05764,0.2751763201,0.05764,4.750593824,
0.05766,0.6406066143,0.05766,4.019733236,
0.05768,-1.917405445,0.05768,3.654302942,
0.0577,-1.186544857,0.0577,5.116024118,
0.05772,-2.648266033,0.05772,4.38516353,
0.05774,-2.282835739,0.05774,4.019733236,
0.05776,-3.379126622,0.05776,4.750593824,
0.05778,-4.475417504,0.05778,4.750593824,
0.0578,-2.282835739,0.0578,4.019733236,
0.05782,-3.379126622,0.05782,4.750593824,
0.05784,-4.10998721,0.05784,4.019733236,
0.05786,-4.10998721,0.05786,4.019733236,
0.05788,-4.10998721,0.05788,4.38516353,
0.0579,-3.379126622,0.0579,4.38516353,
0.05792,-3.744556916,0.05792,4.38516353,
0.05794,-1.551975151,0.05794,5.116024118,
0.05796,-4.10998721,0.05796,4.38516353,
0.05798,-2.282835739,0.05798,3.654302942,
0.058,-4.475417504,0.058,5.116024118,
0.05802,-2.282835739,0.05802,4.38516353,
0.05804,-2.282835739,0.05804,3.654302942,
0.05806,-2.282835739,0.05806,5.116024118,
0.05808,-0.8211145624,0.05808,4.750593824,
0.0581,-0.4556842682,0.0581,4.38516353,
0.05812,0.2751763201,0.05812,4.38516353,
0.05814,0.6406066143,0.05814,4.750593824,
0.05816,1.371467203,0.05816,4.38516353,
0.05818,2.102327791,0.05818,5.116024118,
0.0582,3.564048968,0.0582,4.019733236,
0.05822,2.467758085,0.05822,4.38516353,
0.05824,3.929479262,0.05824,4.750593824,
0.05826,3.198618673,0.05826,4.38516353,
0.05828,5.391200439,0.05828,4.019733236,
0.0583,1.371467203,0.0583,4.38516353,
0.05832,2.467758085,0.05832,4.019733236,
0.05834,4.294909556,0.05834,4.38516353,
0.05836,3.564048968,0.05836,4.38516353,
0.05838,3.198618673,0.05838,4.750593824,
0.0584,3.564048968,0.0584,4.019733236,
0.05842,3.929479262,0.05842,4.750593824,
0.05844,4.66033985,0.05844,4.750593824,
0.05846,4.294909556,0.05846,3.654302942,
0.05848,2.833188379,0.05848,4.38516353,
0.0585,0.2751763201,0.0585,4.38516353,
0.05852,1.736897497,0.05852,4.019733236,
0.05854,1.736897497,0.05854,4.38516353,
0.05856,1.006036908,0.05856,4.38516353,
0.05858,-1.186544857,0.05858,4.38516353,
0.0586,1.736897497,0.0586,4.750593824,
0.05862,-3.013696327,0.05862,4.38516353,
0.05864,-1.551975151,0.05864,4.38516353,
0.05866,-1.186544857,0.05866,4.750593824,
0.05868,-1.551975151,0.05868,4.750593824,
0.0587,-1.917405445,0.0587,4.38516353,
0.05872,-3.013696327,0.05872,4.750593824,
0.05874,-5.206278092,0.05874,4.38516353,
