"A0_accX_x","A0_accX_y","A1_rmsX_x","A1_rmsX_y"
0,-5.749548694,0,8.77032706,
2e-05,-9.769281929,2e-05,8.77032706,
4e-05,-9.038421341,4e-05,8.404896766,
6e-05,-8.672991047,6e-05,8.77032706,
8e-05,-9.403851635,8e-05,8.404896766,
0.0001,-9.403851635,0.0001,8.404896766,
0.00012,-8.307560753,0.00012,8.77032706,
0.00014,-9.403851635,0.00014,8.404896766,
0.00016,-7.21126987,0.00016,8.039466472,
0.00018,-2.460676046,0.00018,8.77032706,
0.0002,-5.749548694,0.0002,8.404896766,
0.00022,-4.653257811,0.00022,8.404896766,
0.00024,-4.653257811,0.00024,8.404896766,
0.00026,-2.460676046,0.00026,8.77032706,
0.00028,1.193626896,0.00028,8.039466472,
0.0003,1.193626896,0.0003,8.77032706,
0.00032,2.655348072,0.00032,8.404896766,
0.00034,4.482499543,0.00034,8.404896766,
0.00036,4.117069249,0.00036,8.039466472,
0.00038,7.040511602,0.00038,8.77032706,
0.0004,7.771372191,0.0004,8.77032706,
0.00042,8.136802485,0.00042,8.039466472,
0.00044,5.213360132,0.00044,8.404896766,
0.00046,8.136802485,0.00046,8.77032706,
0.00048,8.867663073,0.00048,8.039466472,
0.0005,7.771372191,0.0005,8.77032706,
0.00052,8.136802485,0.00052,8.404896766,
0.00054,8.136802485,0.00054,8.404896766,
0.00056,9.598523662,0.00056,8.404896766,
0.00058,7.771372191,0.00058,8.77032706,
0.0006,7.771372191,0.0006,8.77032706,
0.00062,7.405941897,0.00062,8.77032706,
0.00064,5.94422072,0.00064,8.039466472,
0.00066,8.136802485,0.00066,8.77032706,
0.00068,4.482499543,0.00068,8.404896766,
0.0007,2.655348072,0.0007,9.135757354,
0.00072,3.751638955,0.00072,8.404896766,
0.00074,2.289917778,0.00074,8.77032706,
0.00076,1.193626896,0.00076,8.77032706,
0.00078,-2.095245752,0.00078,8.404896766,
0.0008,-3.191536634,0.0008,7.674036178,
0.00082,-2.82610634,0.00082,9.135757354,
0.00084,-5.018688105,0.00084,8.404896766,
0.00086,-5.749548694,0.00086,7.674036178,
0.00088,-7.21126987,0.00088,8.77032706,
0.0009,-7.21126987,0.0009,8.039466472,
0.00092,-9.038421341,0.00092,7.674036178,
0.00094,-9.038421341,0.00094,8.77032706,
0.00096,-9.038421341,0.00096,8.039466472,
0.00098,-9.403851635,0.00098,8.039466472,
0.001,-7.942130459,0.001,9.135757354,
0.00102,-9.769281929,0.00102,8.404896766,
0.00104,-11.23100311,0.00104,8.404896766,
0.00106,-7.942130459,0.00106,8.404896766,
0.00108,-8.307560753,0.00108,8.039466472,
0.0011,-7.942130459,0.0011,7.674036178,
0.00112,-5.384118399,0.00112,8.404896766,
0.00114,-8.307560753,0.00114,8.404896766,
0.00116,-4.653257811,0.00116,8.039466472,
0.00118,-2.82610634,0.00118,8.77032706,
0.0012,-2.460676046,0.0012,7.674036178,
0.00122,-0.268094281,0.00122,8.039466472,
0.00124,0.8281966015,0.00124,8.77032706,
0.00126,1.55905719,0.00126,8.039466472,
0.00128,4.117069249,0.00128,8.039466472,
0.0013,5.94422072,0.0013,10.23204824,
0.00132,6.675081308,0.00132,8.404896766,
0.00134,6.309651014,0.00134,8.404896766,
0.00136,8.136802485,0.00136,8.77032706,
0.00138,5.94422072,0.00138,8.404896766,
0.0014,8.136802485,0.0014,6.577745295,
0.00142,7.771372191,0.00142,9.135757354,
0.00144,7.771372191,0.00144,8.039466472,
0.00146,6.675081308,0.00146,8.404896766,
0.00148,8.136802485,0.00148,8.77032706,
0.0015,6.309651014,0.0015,9.501187648,
0.00152,8.136802485,0.00152,8.039466472,
0.00154,8.136802485,0.00154,8.77032706,
0.00156,7.405941897,0.00156,8.404896766,
0.00158,7.040511602,0.00158,8.404896766,
0.0016,7.040511602,0.0016,7.308605883,
0.00162,4.482499543,0.00162,8.039466472,
0.00164,3.751638955,0.00164,8.039466472,
0.00166,3.020778367,0.00166,8.77032706,
0.00168,1.193626896,0.00168,8.039466472,
0.0017,-1.364385164,0.0017,7.674036178,
0.00172,-0.9989548694,0.00172,8.404896766,
0.00174,-2.82610634,0.00174,8.77032706,
0.00176,-3.922397223,0.00176,8.039466472,
0.00178,-4.653257811,0.00178,8.77032706,
0.0018,-6.114978988,0.0018,9.135757354,
0.00182,-6.114978988,0.00182,8.404896766,
0.00184,-7.576700164,0.00184,8.77032706,
0.00186,-8.672991047,0.00186,8.404896766,
0.00188,-7.576700164,0.00188,8.039466472,
0.0019,-9.038421341,0.0019,7.674036178,
0.00192,-9.403851635,0.00192,8.404896766,
0.00194,-10.86557281,0.00194,8.404896766,
0.00196,-9.403851635,0.00196,9.135757354,
0.00198,-9.403851635,0.00198,8.039466472,
0.002,-7.942130459,0.002,9.501187648,
0.00202,-8.307560753,0.00202,8.404896766,
0.00204,-6.845839576,0.00204,8.404896766,
0.00206,-6.114978988,0.00206,9.135757354,
0.00208,-7.576700164,0.00208,8.77032706,
0.0021,-3.556966929,0.0021,8.039466472,
0.00212,-2.460676046,0.00212,8.404896766,
0.00214,-0.9989548694,0.00214,8.77032706,
0.00216,0.4627663073,0.00216,8.404896766,
0.00218,3.020778367,0.00218,8.77032706,
0.0022,3.020778367,0.0022,8.039466472,
0.00222,5.94422072,0.00222,8.404896766,
0.00224,6.675081308,0.00224,8.77032706,
0.00226,9.598523662,0.00226,8.404896766,
0.00228,8.502232779,0.00228,8.404896766,
0.0023,7.405941897,0.0023,9.501187648,
0.00232,2.655348072,0.00232,9.501187648,
0.00234,8.502232779,0.00234,8.77032706,
0.00236,7.771372191,0.00236,8.404896766,
0.00238,8.867663073,0.00238,8.77032706,
0.0024,9.963953956,0.0024,8.039466472,
0.00242,8.136802485,0.00242,8.77032706,
0.00244,7.771372191,0.00244,8.404896766,
0.00246,8.136802485,0.00246,8.404896766,
0.00248,8.136802485,0.00248,8.77032706,
0.0025,7.040511602,0.0025,9.501187648,
0.00252,8.502232779,0.00252,8.404896766,
0.00254,6.309651014,0.00254,8.77032706,
0.00256,4.482499543,0.00256,8.77032706,
0.00258,4.482499543,0.00258,8.404896766,
0.0026,3.020778367,0.0026,8.77032706,
0.00262,-1.364385164,0.00262,8.77032706,
0.00264,-2.82610634,0.00264,8.039466472,
0.00266,-2.095245752,0.00266,8.77032706,
0.00268,-3.191536634,0.00268,8.039466472,
0.0027,-5.018688105,0.0027,8.404896766,
0.00272,-6.114978988,0.00272,8.404896766,
0.00274,-7.21126987,0.00274,8.404896766,
0.00276,-7.942130459,0.00276,8.404896766,
0.00278,-9.038421341,0.00278,8.77032706,
0.0028,-9.769281929,0.0028,8.77032706,
0.00282,-9.038421341,0.00282,8.404896766,
0.00284,-9.403851635,0.00284,8.77032706,
0.00286,-9.769281929,0.00286,8.404896766,
0.00288,-9.403851635,0.00288,8.404896766,
0.0029,-9.038421341,0.0029,8.77032706,
0.00292,-10.13471222,0.00292,8.039466472,
0.00294,-7.942130459,0.00294,8.404896766,
0.00296,-7.576700164,0.00296,8.77032706,
0.00298,-6.845839576,0.00298,8.77032706,
0.003,-5.018688105,0.003,8.039466472,
0.00302,-4.653257811,0.00302,8.77032706,
0.00304,-3.922397223,0.00304,8.404896766,
0.00306,-1.729815458,0.00306,8.404896766,
0.00308,-1.364385164,0.00308,8.404896766,
0.0031,1.193626896,0.0031,8.77032706,
0.00312,2.289917778,0.00312,8.039466472,
0.00314,5.213360132,0.00314,8.404896766,
0.00316,3.751638955,0.00316,8.039466472,
0.00318,6.309651014,0.00318,8.404896766,
0.0032,7.405941897,0.0032,8.404896766,
0.00322,6.675081308,0.00322,8.404896766,
0.00324,7.405941897,0.00324,8.039466472,
0.00326,8.502232779,0.00326,8.77032706,
0.00328,7.040511602,0.00328,8.77032706,
0.0033,8.502232779,0.0033,8.404896766,
0.00332,8.136802485,0.00332,8.77032706,
0.00334,8.136802485,0.00334,8.77032706,
0.00336,8.502232779,0.00336,8.039466472,
0.00338,8.136802485,0.00338,8.77032706,
0.0034,8.136802485,0.0034,8.77032706,
0.00342,7.771372191,0.00342,8.404896766,
0.00344,8.136802485,0.00344,8.039466472,
0.00346,6.309651014,0.00346,8.404896766,
0.00348,5.94422072,0.00348,8.404896766,
0.0035,3.751638955,0.0035,8.404896766,
0.00352,3.020778367,0.00352,8.77032706,
0.00354,1.193626896,0.00354,8.404896766,
0.00356,0.8281966015,0.00356,8.77032706,
0.00358,-0.6335245752,0.00358,8.039466472,
0.0036,-2.095245752,0.0036,8.039466472,
0.00362,-3.556966929,0.00362,9.135757354,
0.00364,-5.018688105,0.00364,8.039466472,
0.00366,-6.845839576,0.00366,8.039466472,
0.00368,-6.480409282,0.00368,8.77032706,
0.0037,-7.942130459,0.0037,8.404896766,
0.00372,-9.769281929,0.00372,8.039466472,
0.00374,-8.307560753,0.00374,8.039466472,
0.00376,-10.50014252,0.00376,8.77032706,
0.00378,-9.038421341,0.00378,8.404896766,
0.0038,-9.038421341,0.0038,8.77032706,
0.00382,-9.403851635,0.00382,8.77032706,
0.00384,-8.307560753,0.00384,8.404896766,
0.00386,-9.769281929,0.00386,8.404896766,
0.00388,-8.307560753,0.00388,8.404896766,
0.0039,-5.018688105,0.0039,8.039466472,
0.00392,-5.384118399,0.00392,7.674036178,
0.00394,-4.653257811,0.00394,8.404896766,
0.00396,-3.922397223,0.00396,8.404896766,
0.00398,-1.729815458,0.00398,8.039466472,
0.004,-1.729815458,0.004,8.404896766,
0.00402,1.193626896,0.00402,7.308605883,
0.00404,0.8281966015,0.00404,8.039466472,
0.00406,3.020778367,0.00406,8.404896766,
0.00408,5.578790426,0.00408,8.039466472,
0.0041,5.213360132,0.0041,7.674036178,
0.00412,7.040511602,0.00412,9.135757354,
0.00414,7.405941897,0.00414,8.039466472,
0.00416,7.405941897,0.00416,7.674036178,
0.00418,9.233093367,0.00418,8.039466472,
0.0042,6.675081308,0.0042,8.404896766,
0.00422,7.771372191,0.00422,8.039466472,
0.00424,8.867663073,0.00424,8.404896766,
0.00426,8.136802485,0.00426,8.404896766,
0.00428,7.771372191,0.00428,7.674036178,
0.0043,9.233093367,0.0043,8.404896766,
0.00432,7.771372191,0.00432,7.308605883,
0.00434,8.136802485,0.00434,7.674036178,
0.00436,7.771372191,0.00436,8.77032706,
0.00438,8.502232779,0.00438,8.039466472,
0.0044,7.405941897,0.0044,7.308605883,
0.00442,5.94422072,0.00442,8.039466472,
0.00444,3.386208661,0.00444,8.77032706,
0.00446,2.655348072,0.00446,8.039466472,
0.00448,1.55905719,0.00448,8.404896766,
0.0045,0.09733601316,0.0045,8.404896766,
0.00452,-1.364385164,0.00452,8.77032706,
0.00454,-1.729815458,0.00454,8.404896766,
0.00456,-4.287827517,0.00456,8.404896766,
0.00458,-6.480409282,0.00458,8.039466472,
0.0046,-6.114978988,0.0046,8.039466472,
0.00462,-7.21126987,0.00462,8.039466472,
0.00464,-7.942130459,0.00464,8.039466472,
0.00466,-7.942130459,0.00466,8.404896766,
0.00468,-9.403851635,0.00468,8.404896766,
0.0047,-8.672991047,0.0047,8.404896766,
0.00472,-9.403851635,0.00472,7.674036178,
0.00474,-10.50014252,0.00474,8.404896766,
0.00476,-8.672991047,0.00476,8.039466472,
0.00478,-9.038421341,0.00478,8.77032706,
0.0048,-7.942130459,0.0048,8.404896766,
0.00482,-7.576700164,0.00482,8.039466472,
0.00484,-5.018688105,0.00484,8.039466472,
0.00486,-5.384118399,0.00486,8.404896766,
0.00488,-4.653257811,0.00488,8.404896766,
0.0049,-1.729815458,0.0049,7.674036178,
0.00492,-1.729815458,0.00492,7.674036178,
0.00494,-0.6335245752,0.00494,7.674036178,
0.00496,1.193626896,0.00496,8.039466472,
0.00498,1.55905719,0.00498,8.77032706,
0.005,3.386208661,0.005,8.039466472,
0.00502,4.482499543,0.00502,8.404896766,
0.00504,7.405941897,0.00504,8.404896766,
0.00506,6.675081308,0.00506,8.039466472,
0.00508,7.040511602,0.00508,8.039466472,
0.0051,7.771372191,0.0051,8.039466472,
0.00512,7.771372191,0.00512,7.674036178,
0.00514,9.598523662,0.00514,8.404896766,
0.00516,7.771372191,0.00516,8.039466472,
0.00518,8.502232779,0.00518,7.674036178,
0.0052,7.771372191,0.0052,8.404896766,
0.00522,8.502232779,0.00522,8.404896766,
0.00524,7.040511602,0.00524,8.404896766,
0.00526,7.771372191,0.00526,8.404896766,
0.00528,9.598523662,0.00528,8.039466472,
0.0053,7.771372191,0.0053,8.039466472,
0.00532,7.405941897,0.00532,8.404896766,
0.00534,5.94422072,0.00534,8.404896766,
0.00536,5.578790426,0.00536,7.674036178,
0.00538,4.117069249,0.00538,8.039466472,
0.0054,3.020778367,0.0054,8.039466472,
0.00542,0.8281966015,0.00542,8.404896766,
0.00544,-0.6335245752,0.00544,8.77032706,
0.00546,-2.82610634,0.00546,8.404896766,
0.00548,-2.82610634,0.00548,8.404896766,
0.0055,-4.653257811,0.0055,8.77032706,
0.00552,-5.384118399,0.00552,8.404896766,
0.00554,-7.942130459,0.00554,8.404896766,
0.00556,-7.576700164,0.00556,8.77032706,
0.00558,-8.307560753,0.00558,8.404896766,
0.0056,-8.307560753,0.0056,8.404896766,
0.00562,-9.769281929,0.00562,8.404896766,
0.00564,-9.403851635,0.00564,8.404896766,
0.00566,-9.769281929,0.00566,8.77032706,
0.00568,-10.13471222,0.00568,8.404896766,
0.0057,-9.038421341,0.0057,8.039466472,
0.00572,-8.672991047,0.00572,8.77032706,
0.00574,-6.114978988,0.00574,8.404896766,
0.00576,-8.307560753,0.00576,8.404896766,
0.00578,-7.576700164,0.00578,8.77032706,
0.0058,-7.576700164,0.0058,9.135757354,
0.00582,-6.480409282,0.00582,8.039466472,
0.00584,-3.922397223,0.00584,8.039466472,
0.00586,-1.729815458,0.00586,8.039466472,
0.00588,0.09733601316,0.00588,8.77032706,
0.0059,0.4627663073,0.0059,8.404896766,
0.00592,1.924487484,0.00592,8.404896766,
0.00594,2.655348072,0.00594,8.77032706,
0.00596,4.847929837,0.00596,8.039466472,
0.00598,5.213360132,0.00598,8.77032706,
0.006,7.405941897,0.006,8.77032706,
0.00602,5.213360132,0.00602,8.404896766,
0.00604,7.771372191,0.00604,8.404896766,
0.00606,6.675081308,0.00606,9.135757354,
0.00608,8.502232779,0.00608,8.77032706,
0.0061,7.405941897,0.0061,8.039466472,
0.00612,7.405941897,0.00612,9.135757354,
0.00614,4.847929837,0.00614,8.404896766,
0.00616,7.040511602,0.00616,8.039466472,
0.00618,7.771372191,0.00618,8.77032706,
0.0062,7.771372191,0.0062,8.039466472,
0.00622,7.771372191,0.00622,8.039466472,
0.00624,6.675081308,0.00624,8.404896766,
0.00626,7.040511602,0.00626,8.404896766,
0.00628,4.117069249,0.00628,8.039466472,
0.0063,4.117069249,0.0063,8.77032706,
0.00632,2.289917778,0.00632,8.404896766,
0.00634,1.55905719,0.00634,8.039466472,
0.00636,0.4627663073,0.00636,8.77032706,
0.00638,-1.729815458,0.00638,8.404896766,
0.0064,-2.460676046,0.0064,8.039466472,
0.00642,-4.653257811,0.00642,8.77032706,
0.00644,-4.653257811,0.00644,8.404896766,
0.00646,-6.114978988,0.00646,7.674036178,
0.00648,-7.576700164,0.00648,8.77032706,
0.0065,-8.307560753,0.0065,8.404896766,
0.00652,-9.403851635,0.00652,7.674036178,
0.00654,-9.769281929,0.00654,9.135757354,
0.00656,-9.038421341,0.00656,8.404896766,
0.00658,-10.86557281,0.00658,7.674036178,
0.0066,-7.576700164,0.0066,8.404896766,
0.00662,-9.403851635,0.00662,8.039466472,
0.00664,-10.50014252,0.00664,8.039466472,
0.00666,-8.307560753,0.00666,8.77032706,
0.00668,-7.942130459,0.00668,8.404896766,
0.0067,-7.942130459,0.0067,8.404896766,
0.00672,-5.749548694,0.00672,9.135757354,
0.00674,-4.653257811,0.00674,8.77032706,
0.00676,-3.922397223,0.00676,8.039466472,
0.00678,-2.82610634,0.00678,8.404896766,
0.0068,-2.095245752,0.0068,8.404896766,
0.00682,-0.6335245752,0.00682,8.039466472,
0.00684,1.924487484,0.00684,9.866617943,
0.00686,3.386208661,0.00686,8.039466472,
0.00688,4.117069249,0.00688,8.039466472,
0.0069,5.578790426,0.0069,8.77032706,
0.00692,6.675081308,0.00692,8.404896766,
0.00694,10.32938425,0.00694,6.943175589,
0.00696,7.771372191,0.00696,8.77032706,
0.00698,7.040511602,0.00698,8.77032706,
0.007,8.502232779,0.007,8.039466472,
0.00702,7.771372191,0.00702,8.77032706,
0.00704,9.963953956,0.00704,9.135757354,
0.00706,7.771372191,0.00706,9.135757354,
0.00708,7.771372191,0.00708,8.77032706,
0.0071,6.309651014,0.0071,8.404896766,
0.00712,7.771372191,0.00712,8.404896766,
0.00714,8.136802485,0.00714,8.404896766,
0.00716,9.963953956,0.00716,8.404896766,
0.00718,7.771372191,0.00718,8.404896766,
0.0072,7.405941897,0.0072,8.404896766,
0.00722,4.847929837,0.00722,8.039466472,
0.00724,3.751638955,0.00724,6.577745295,
0.00726,3.020778367,0.00726,8.77032706,
0.00728,0.8281966015,0.00728,8.039466472,
0.0073,-0.6335245752,0.0073,8.404896766,
0.00732,-1.364385164,0.00732,8.77032706,
0.00734,-3.191536634,0.00734,9.135757354,
0.00736,-4.287827517,0.00736,8.039466472,
0.00738,-4.653257811,0.00738,8.77032706,
0.0074,-6.480409282,0.0074,8.404896766,
0.00742,-7.21126987,0.00742,7.308605883,
0.00744,-9.769281929,0.00744,8.77032706,
0.00746,-10.86557281,0.00746,8.404896766,
0.00748,-9.403851635,0.00748,7.674036178,
0.0075,-10.13471222,0.0075,8.77032706,
0.00752,-9.769281929,0.00752,8.404896766,
0.00754,-10.86557281,0.00754,7.308605883,
0.00756,-9.403851635,0.00756,8.404896766,
0.00758,-9.403851635,0.00758,8.039466472,
0.0076,-9.769281929,0.0076,8.404896766,
0.00762,-7.576700164,0.00762,8.404896766,
0.00764,-6.480409282,0.00764,9.501187648,
0.00766,-6.845839576,0.00766,7.674036178,
0.00768,-5.018688105,0.00768,8.77032706,
0.0077,-3.191536634,0.0077,8.039466472,
0.00772,-0.6335245752,0.00772,8.404896766,
0.00774,-1.364385164,0.00774,8.039466472,
0.00776,-0.268094281,0.00776,8.404896766,
0.00778,2.289917778,0.00778,8.404896766,
0.0078,3.386208661,0.0078,8.77032706,
0.00782,4.482499543,0.00782,8.404896766,
0.00784,6.675081308,0.00784,8.039466472,
0.00786,7.405941897,0.00786,8.77032706,
0.00788,7.405941897,0.00788,8.039466472,
0.0079,7.405941897,0.0079,8.77032706,
0.00792,7.040511602,0.00792,8.404896766,
0.00794,7.771372191,0.00794,9.135757354,
0.00796,7.405941897,0.00796,8.039466472,
0.00798,6.675081308,0.00798,8.77032706,
0.008,7.771372191,0.008,8.404896766,
0.00802,7.405941897,0.00802,8.77032706,
0.00804,8.867663073,0.00804,8.77032706,
0.00806,7.040511602,0.00806,8.404896766,
0.00808,7.771372191,0.00808,8.77032706,
0.0081,8.502232779,0.0081,8.77032706,
0.00812,7.405941897,0.00812,8.404896766,
0.00814,4.847929837,0.00814,8.404896766,
0.00816,5.213360132,0.00816,8.77032706,
0.00818,4.847929837,0.00818,8.404896766,
0.0082,1.924487484,0.0082,8.404896766,
0.00822,0.09733601316,0.00822,8.039466472,
0.00824,-2.095245752,0.00824,8.404896766,
0.00826,-2.460676046,0.00826,8.404896766,
0.00828,-4.287827517,0.00828,8.77032706,
0.0083,-3.922397223,0.0083,8.404896766,
0.00832,-5.018688105,0.00832,8.039466472,
0.00834,-6.480409282,0.00834,8.77032706,
0.00836,-7.21126987,0.00836,8.77032706,
0.00838,-8.672991047,0.00838,8.404896766,
0.0084,-8.672991047,0.0084,9.135757354,
0.00842,-10.13471222,0.00842,8.039466472,
0.00844,-9.403851635,0.00844,8.404896766,
0.00846,-9.403851635,0.00846,8.77032706,
0.00848,-8.672991047,0.00848,8.77032706,
0.0085,-9.038421341,0.0085,8.404896766,
0.00852,-9.403851635,0.00852,8.77032706,
0.00854,-9.038421341,0.00854,8.404896766,
0.00856,-8.672991047,0.00856,8.404896766,
0.00858,-6.480409282,0.00858,8.404896766,
0.0086,-5.749548694,0.0086,8.77032706,
0.00862,-3.191536634,0.00862,8.404896766,
0.00864,-3.922397223,0.00864,9.135757354,
0.00866,-0.9989548694,0.00866,8.404896766,
0.00868,0.09733601316,0.00868,8.404896766,
0.0087,2.289917778,0.0087,8.404896766,
0.00872,2.289917778,0.00872,8.404896766,
0.00874,4.482499543,0.00874,8.404896766,
0.00876,5.213360132,0.00876,8.404896766,
0.00878,6.309651014,0.00878,8.404896766,
0.0088,9.233093367,0.0088,8.039466472,
0.00882,7.405941897,0.00882,8.77032706,
0.00884,7.771372191,0.00884,8.404896766,
0.00886,9.233093367,0.00886,8.404896766,
0.00888,8.136802485,0.00888,8.77032706,
0.0089,7.771372191,0.0089,8.039466472,
0.00892,9.233093367,0.00892,8.404896766,
0.00894,7.405941897,0.00894,8.404896766,
0.00896,7.771372191,0.00896,8.404896766,
0.00898,8.136802485,0.00898,8.039466472,
0.009,8.867663073,0.009,8.77032706,
0.00902,6.675081308,0.00902,8.039466472,
0.00904,7.771372191,0.00904,8.039466472,
0.00906,7.771372191,0.00906,8.77032706,
0.00908,4.847929837,0.00908,8.404896766,
0.0091,3.751638955,0.0091,8.404896766,
0.00912,1.924487484,0.00912,8.77032706,
0.00914,0.8281966015,0.00914,9.135757354,
0.00916,3.020778367,0.00916,8.404896766,
0.00918,-2.460676046,0.00918,8.77032706,
0.0092,-3.191536634,0.0092,8.77032706,
0.00922,-3.556966929,0.00922,8.404896766,
0.00924,-5.384118399,0.00924,8.77032706,
0.00926,-7.21126987,0.00926,8.039466472,
0.00928,-6.845839576,0.00928,8.404896766,
0.0093,-7.21126987,0.0093,8.404896766,
0.00932,-9.769281929,0.00932,8.404896766,
0.00934,-9.769281929,0.00934,8.404896766,
0.00936,-9.403851635,0.00936,9.135757354,
0.00938,-10.86557281,0.00938,8.404896766,
0.0094,-10.50014252,0.0094,8.404896766,
0.00942,-9.038421341,0.00942,8.404896766,
0.00944,-9.769281929,0.00944,8.404896766,
0.00946,-8.672991047,0.00946,8.404896766,
0.00948,-7.21126987,0.00948,9.135757354,
0.0095,-7.21126987,0.0095,8.77032706,
0.00952,-5.018688105,0.00952,8.404896766,
0.00954,-3.922397223,0.00954,8.77032706,
0.00956,-3.556966929,0.00956,8.039466472,
0.00958,-1.364385164,0.00958,8.77032706,
0.0096,-0.9989548694,0.0096,8.77032706,
0.00962,-0.268094281,0.00962,7.674036178,
0.00964,1.924487484,0.00964,9.135757354,
0.00966,3.386208661,0.00966,8.77032706,
0.00968,4.847929837,0.00968,8.039466472,
0.0097,7.405941897,0.0097,8.404896766,
0.00972,6.675081308,0.00972,7.674036178,
0.00974,7.040511602,0.00974,8.039466472,
0.00976,4.847929837,0.00976,8.039466472,
0.00978,8.136802485,0.00978,8.039466472,
0.0098,7.771372191,0.0098,8.77032706,
0.00982,8.502232779,0.00982,8.039466472,
0.00984,7.405941897,0.00984,8.404896766,
0.00986,8.136802485,0.00986,8.404896766,
0.00988,7.040511602,0.00988,8.039466472,
0.0099,7.771372191,0.0099,7.674036178,
0.00992,7.771372191,0.00992,8.404896766,
0.00994,8.502232779,0.00994,8.404896766,
0.00996,6.309651014,0.00996,9.135757354,
0.00998,9.598523662,0.00998,8.404896766,
0.01,8.502232779,0.01,8.039466472,
0.01002,5.213360132,0.01002,8.039466472,
0.01004,4.117069249,0.01004,8.404896766,
0.01006,2.655348072,0.01006,9.135757354,
0.01008,1.55905719,0.01008,8.039466472,
0.0101,-0.268094281,0.0101,8.404896766,
0.01012,-0.9989548694,0.01012,8.404896766,
0.01014,-4.653257811,0.01014,8.039466472,
0.01016,-3.922397223,0.01016,8.039466472,
0.01018,-5.018688105,0.01018,8.404896766,
0.0102,-6.845839576,0.0102,8.039466472,
0.01022,-7.942130459,0.01022,8.039466472,
0.01024,-8.307560753,0.01024,8.039466472,
0.01026,-8.307560753,0.01026,7.674036178,
0.01028,-9.038421341,0.01028,8.404896766,
0.0103,-12.69272428,0.0103,8.404896766,
0.01032,-9.769281929,0.01032,8.039466472,
0.01034,-8.672991047,0.01034,8.039466472,
0.01036,-9.403851635,0.01036,9.135757354,
0.01038,-9.403851635,0.01038,7.674036178,
0.0104,-9.038421341,0.0104,8.77032706,
0.01042,-7.21126987,0.01042,8.404896766,
0.01044,-7.21126987,0.01044,8.039466472,
0.01046,-5.384118399,0.01046,7.308605883,
0.01048,-5.384118399,0.01048,8.039466472,
0.0105,-3.556966929,0.0105,7.674036178,
0.01052,-0.6335245752,0.01052,8.404896766,
0.01054,-0.268094281,0.01054,8.404896766,
0.01056,1.193626896,0.01056,8.404896766,
0.01058,0.4627663073,0.01058,8.77032706,
0.0106,3.751638955,0.0106,8.77032706,
0.01062,4.482499543,0.01062,8.039466472,
0.01064,6.675081308,0.01064,8.404896766,
0.01066,6.309651014,0.01066,8.77032706,
0.01068,8.502232779,0.01068,8.77032706,
0.0107,8.136802485,0.0107,8.404896766,
0.01072,7.040511602,0.01072,7.674036178,
0.01074,7.040511602,0.01074,8.404896766,
0.01076,7.771372191,0.01076,8.404896766,
0.01078,9.233093367,0.01078,8.404896766,
0.0108,7.405941897,0.0108,8.77032706,
0.01082,8.867663073,0.01082,8.77032706,
0.01084,7.040511602,0.01084,8.404896766,
0.01086,7.405941897,0.01086,8.404896766,
0.01088,7.040511602,0.01088,8.404896766,
0.0109,8.502232779,0.0109,8.404896766,
0.01092,7.771372191,0.01092,8.404896766,
0.01094,5.578790426,0.01094,8.039466472,
0.01096,4.117069249,0.01096,8.404896766,
0.01098,2.289917778,0.01098,8.77032706,
0.011,1.55905719,0.011,8.039466472,
0.01102,0.4627663073,0.01102,8.404896766,
0.01104,-0.268094281,0.01104,8.77032706,
0.01106,-1.364385164,0.01106,9.135757354,
0.01108,-3.556966929,0.01108,8.77032706,
0.0111,-3.191536634,0.0111,8.404896766,
0.01112,-6.845839576,0.01112,8.404896766,
0.01114,-6.480409282,0.01114,8.77032706,
0.01116,-7.576700164,0.01116,9.135757354,
0.01118,-6.845839576,0.01118,8.039466472,
0.0112,-7.576700164,0.0112,8.404896766,
0.01122,-9.403851635,0.01122,8.77032706,
0.01124,-9.403851635,0.01124,8.77032706,
0.01126,-9.403851635,0.01126,7.674036178,
0.01128,-10.50014252,0.01128,8.039466472,
0.0113,-8.672991047,0.0113,8.039466472,
0.01132,-7.21126987,0.01132,8.77032706,
0.01134,-7.942130459,0.01134,8.404896766,
0.01136,-6.480409282,0.01136,8.039466472,
0.01138,-5.018688105,0.01138,9.135757354,
0.0114,-5.749548694,0.0114,8.404896766,
0.01142,-4.653257811,0.01142,8.404896766,
0.01144,-2.460676046,0.01144,8.77032706,
0.01146,-0.9989548694,0.01146,8.77032706,
0.01148,1.55905719,0.01148,8.404896766,
0.0115,0.4627663073,0.0115,8.404896766,
0.01152,2.289917778,0.01152,8.404896766,
0.01154,3.386208661,0.01154,7.308605883,
0.01156,4.847929837,0.01156,8.404896766,
0.01158,4.482499543,0.01158,8.404896766,
0.0116,7.405941897,0.0116,8.039466472,
0.01162,9.233093367,0.01162,8.77032706,
0.01164,9.598523662,0.01164,8.404896766,
0.01166,7.040511602,0.01166,8.039466472,
0.01168,6.675081308,0.01168,8.77032706,
0.0117,8.867663073,0.0117,8.039466472,
0.01172,8.867663073,0.01172,8.404896766,
0.01174,7.405941897,0.01174,8.404896766,
0.01176,7.771372191,0.01176,7.674036178,
0.01178,8.867663073,0.01178,8.039466472,
0.0118,7.771372191,0.0118,8.77032706,
0.01182,7.771372191,0.01182,8.404896766,
0.01184,7.771372191,0.01184,8.039466472,
0.01186,7.040511602,0.01186,8.404896766,
0.01188,6.675081308,0.01188,8.039466472,
0.0119,4.117069249,0.0119,8.039466472,
0.01192,5.94422072,0.01192,8.77032706,
0.01194,0.8281966015,0.01194,8.039466472,
0.01196,-0.6335245752,0.01196,8.404896766,
0.01198,-2.460676046,0.01198,8.77032706,
0.012,-3.556966929,0.012,8.039466472,
0.01202,-3.922397223,0.01202,8.039466472,
0.01204,-4.653257811,0.01204,8.404896766,
0.01206,-6.845839576,0.01206,8.404896766,
0.01208,-7.21126987,0.01208,8.039466472,
0.0121,-8.307560753,0.0121,8.77032706,
0.01212,-7.942130459,0.01212,8.039466472,
0.01214,-7.576700164,0.01214,8.404896766,
0.01216,-8.672991047,0.01216,8.77032706,
0.01218,-10.50014252,0.01218,8.039466472,
0.0122,-9.769281929,0.0122,8.404896766,
0.01222,-9.038421341,0.01222,8.77032706,
0.01224,-9.769281929,0.01224,8.039466472,
0.01226,-8.307560753,0.01226,8.404896766,
0.01228,-7.21126987,0.01228,8.77032706,
0.0123,-7.576700164,0.0123,8.039466472,
0.01232,-6.845839576,0.01232,8.404896766,
0.01234,-4.287827517,0.01234,8.77032706,
0.01236,-3.922397223,0.01236,8.404896766,
0.01238,-2.095245752,0.01238,8.039466472,
0.0124,-0.9989548694,0.0124,9.135757354,
0.01242,-0.6335245752,0.01242,8.77032706,
0.01244,1.55905719,0.01244,8.404896766,
0.01246,1.55905719,0.01246,8.77032706,
0.01248,3.386208661,0.01248,8.404896766,
0.0125,2.655348072,0.0125,8.039466472,
0.01252,7.040511602,0.01252,8.77032706,
0.01254,7.405941897,0.01254,8.039466472,
0.01256,7.771372191,0.01256,8.404896766,
0.01258,6.309651014,0.01258,8.404896766,
0.0126,7.771372191,0.0126,8.77032706,
0.01262,7.405941897,0.01262,8.404896766,
0.01264,6.675081308,0.01264,9.135757354,
0.01266,7.405941897,0.01266,8.404896766,
0.01268,6.309651014,0.01268,8.039466472,
0.0127,6.675081308,0.0127,8.77032706,
0.01272,7.405941897,0.01272,8.039466472,
0.01274,6.675081308,0.01274,8.404896766,
0.01276,8.502232779,0.01276,9.135757354,
0.01278,8.867663073,0.01278,8.77032706,
0.0128,6.309651014,0.0128,8.404896766,
0.01282,4.847929837,0.01282,8.77032706,
0.01284,4.117069249,0.01284,8.039466472,
0.01286,1.924487484,0.01286,8.039466472,
0.01288,1.924487484,0.01288,9.135757354,
0.0129,-0.268094281,0.0129,8.404896766,
0.01292,-2.095245752,0.01292,8.039466472,
0.01294,-2.095245752,0.01294,8.77032706,
0.01296,-4.653257811,0.01296,8.404896766,
0.01298,-5.749548694,0.01298,7.308605883,
0.013,-6.845839576,0.013,8.77032706,
0.01302,-7.942130459,0.01302,8.404896766,
0.01304,-9.403851635,0.01304,8.404896766,
0.01306,-9.403851635,0.01306,9.135757354,
0.01308,-10.13471222,0.01308,8.039466472,
0.0131,-9.769281929,0.0131,8.039466472,
0.01312,-9.038421341,0.01312,9.135757354,
0.01314,-9.769281929,0.01314,8.404896766,
0.01316,-8.672991047,0.01316,8.039466472,
0.01318,-10.13471222,0.01318,9.501187648,
0.0132,-8.672991047,0.0132,8.039466472,
0.01322,-7.942130459,0.01322,8.039466472,
0.01324,-5.384118399,0.01324,8.77032706,
0.01326,-5.749548694,0.01326,8.404896766,
0.01328,-5.749548694,0.01328,7.674036178,
0.0133,-3.191536634,0.0133,8.77032706,
0.01332,-2.095245752,0.01332,8.404896766,
0.01334,-1.364385164,0.01334,8.404896766,
0.01336,0.8281966015,0.01336,9.135757354,
0.01338,0.8281966015,0.01338,7.308605883,
0.0134,2.289917778,0.0134,8.039466472,
0.01342,5.213360132,0.01342,8.404896766,
0.01344,4.847929837,0.01344,8.404896766,
0.01346,6.309651014,0.01346,8.404896766,
0.01348,8.502232779,0.01348,8.404896766,
0.0135,6.309651014,0.0135,8.404896766,
0.01352,5.94422072,0.01352,8.039466472,
0.01354,7.405941897,0.01354,8.77032706,
0.01356,9.963953956,0.01356,8.404896766,
0.01358,8.502232779,0.01358,9.501187648,
0.0136,9.233093367,0.0136,8.77032706,
0.01362,8.136802485,0.01362,8.77032706,
0.01364,7.405941897,0.01364,8.404896766,
0.01366,7.405941897,0.01366,8.404896766,
0.01368,8.136802485,0.01368,9.501187648,
0.0137,8.136802485,0.0137,8.404896766,
0.01372,8.136802485,0.01372,8.77032706,
0.01374,5.578790426,0.01374,8.404896766,
0.01376,4.482499543,0.01376,8.404896766,
0.01378,5.213360132,0.01378,8.77032706,
0.0138,0.8281966015,0.0138,8.404896766,
0.01382,0.09733601316,0.01382,8.039466472,
0.01384,1.55905719,0.01384,8.039466472,
0.01386,-2.82610634,0.01386,8.404896766,
0.01388,-3.922397223,0.01388,6.577745295,
0.0139,-3.922397223,0.0139,8.77032706,
0.01392,-5.384118399,0.01392,8.404896766,
0.01394,-8.307560753,0.01394,8.404896766,
0.01396,-6.845839576,0.01396,9.135757354,
0.01398,-9.403851635,0.01398,8.039466472,
0.014,-9.038421341,0.014,8.039466472,
0.01402,-9.403851635,0.01402,8.77032706,
0.01404,-10.13471222,0.01404,8.039466472,
0.01406,-10.13471222,0.01406,8.404896766,
0.01408,-9.769281929,0.01408,9.501187648,
0.0141,-9.403851635,0.0141,8.404896766,
0.01412,-9.403851635,0.01412,8.039466472,
0.01414,-8.672991047,0.01414,8.404896766,
0.01416,-7.576700164,0.01416,8.404896766,
0.01418,-6.480409282,0.01418,10.23204824,
0.0142,-6.114978988,0.0142,8.404896766,
0.01422,-4.287827517,0.01422,8.404896766,
0.01424,-3.556966929,0.01424,8.404896766,
0.01426,0.4627663073,0.01426,8.77032706,
0.01428,0.4627663073,0.01428,8.039466472,
0.0143,1.55905719,0.0143,8.404896766,
0.01432,3.386208661,0.01432,8.77032706,
0.01434,2.655348072,0.01434,8.77032706,
0.01436,5.213360132,0.01436,8.039466472,
0.01438,7.040511602,0.01438,7.674036178,
0.0144,7.771372191,0.0144,8.039466472,
0.01442,7.405941897,0.01442,8.039466472,
0.01444,8.867663073,0.01444,8.77032706,
0.01446,8.136802485,0.01446,8.77032706,
0.01448,7.771372191,0.01448,9.866617943,
0.0145,7.771372191,0.0145,8.77032706,
0.01452,7.405941897,0.01452,8.404896766,
0.01454,8.136802485,0.01454,8.404896766,
0.01456,8.136802485,0.01456,8.404896766,
0.01458,6.675081308,0.01458,8.404896766,
0.0146,7.040511602,0.0146,8.404896766,
0.01462,7.771372191,0.01462,8.404896766,
0.01464,5.94422072,0.01464,8.404896766,
0.01466,7.405941897,0.01466,8.039466472,
0.01468,6.309651014,0.01468,7.674036178,
0.0147,3.751638955,0.0147,8.77032706,
0.01472,3.020778367,0.01472,8.77032706,
0.01474,1.924487484,0.01474,8.77032706,
0.01476,1.193626896,0.01476,8.404896766,
0.01478,-0.6335245752,0.01478,9.135757354,
0.0148,-2.095245752,0.0148,8.77032706,
0.01482,-4.653257811,0.01482,8.77032706,
0.01484,-4.653257811,0.01484,8.039466472,
0.01486,-6.480409282,0.01486,8.77032706,
0.01488,-6.845839576,0.01488,8.039466472,
0.0149,-8.672991047,0.0149,8.404896766,
0.01492,-8.672991047,0.01492,8.404896766,
0.01494,-9.038421341,0.01494,8.77032706,
0.01496,-9.038421341,0.01496,8.404896766,
0.01498,-9.769281929,0.01498,7.674036178,
0.015,-8.672991047,0.015,8.039466472,
0.01502,-10.86557281,0.01502,8.039466472,
0.01504,-8.307560753,0.01504,8.77032706,
0.01506,-8.672991047,0.01506,8.404896766,
0.01508,-9.038421341,0.01508,8.404896766,
0.0151,-5.749548694,0.0151,8.77032706,
0.01512,-6.114978988,0.01512,8.77032706,
0.01514,-5.749548694,0.01514,7.674036178,
0.01516,-2.82610634,0.01516,8.77032706,
0.01518,-3.191536634,0.01518,8.77032706,
0.0152,-2.460676046,0.0152,8.039466472,
0.01522,-0.268094281,0.01522,9.135757354,
0.01524,1.55905719,0.01524,7.674036178,
0.01526,3.020778367,0.01526,8.039466472,
0.01528,4.847929837,0.01528,8.404896766,
0.0153,5.578790426,0.0153,8.404896766,
0.01532,7.040511602,0.01532,8.404896766,
0.01534,6.675081308,0.01534,8.039466472,
0.01536,8.136802485,0.01536,8.404896766,
0.01538,7.771372191,0.01538,8.77032706,
0.0154,7.771372191,0.0154,8.039466472,
0.01542,7.771372191,0.01542,8.404896766,
0.01544,8.136802485,0.01544,8.404896766,
0.01546,6.675081308,0.01546,8.039466472,
0.01548,8.867663073,0.01548,8.77032706,
0.0155,7.405941897,0.0155,8.404896766,
0.01552,7.771372191,0.01552,8.039466472,
0.01554,8.502232779,0.01554,8.404896766,
0.01556,8.136802485,0.01556,8.404896766,
0.01558,7.405941897,0.01558,7.674036178,
0.0156,7.040511602,0.0156,8.404896766,
0.01562,5.213360132,0.01562,8.404896766,
0.01564,3.386208661,0.01564,8.039466472,
0.01566,2.289917778,0.01566,8.77032706,
0.01568,1.193626896,0.01568,8.039466472,
0.0157,0.4627663073,0.0157,8.039466472,
0.01572,-1.729815458,0.01572,8.404896766,
0.01574,-3.191536634,0.01574,8.039466472,
0.01576,-4.287827517,0.01576,8.039466472,
0.01578,-4.653257811,0.01578,8.404896766,
0.0158,-6.114978988,0.0158,8.404896766,
0.01582,-7.21126987,0.01582,8.039466472,
0.01584,-8.307560753,0.01584,8.039466472,
0.01586,-8.672991047,0.01586,8.404896766,
0.01588,-10.50014252,0.01588,8.404896766,
0.0159,-9.038421341,0.0159,9.135757354,
0.01592,-7.942130459,0.01592,8.404896766,
0.01594,-10.13471222,0.01594,8.77032706,
0.01596,-7.942130459,0.01596,8.039466472,
0.01598,-9.403851635,0.01598,8.039466472,
0.016,-8.307560753,0.016,8.404896766,
0.01602,-6.845839576,0.01602,8.404896766,
0.01604,-6.480409282,0.01604,8.039466472,
0.01606,-5.384118399,0.01606,8.039466472,
0.01608,-4.287827517,0.01608,8.404896766,
0.0161,-2.095245752,0.0161,8.404896766,
0.01612,-2.460676046,0.01612,8.404896766,
0.01614,-0.6335245752,0.01614,8.77032706,
0.01616,0.8281966015,0.01616,8.77032706,
0.01618,1.55905719,0.01618,8.77032706,
0.0162,4.117069249,0.0162,8.77032706,
0.01622,4.482499543,0.01622,8.404896766,
0.01624,8.867663073,0.01624,8.039466472,
0.01626,6.675081308,0.01626,8.77032706,
0.01628,9.233093367,0.01628,8.77032706,
0.0163,6.675081308,0.0163,8.404896766,
0.01632,6.675081308,0.01632,8.404896766,
0.01634,7.771372191,0.01634,8.404896766,
0.01636,8.136802485,0.01636,9.135757354,
0.01638,7.771372191,0.01638,7.308605883,
0.0164,8.867663073,0.0164,8.404896766,
0.01642,7.771372191,0.01642,8.039466472,
0.01644,6.309651014,0.01644,8.404896766,
0.01646,6.675081308,0.01646,8.404896766,
0.01648,3.751638955,0.01648,8.404896766,
0.0165,8.136802485,0.0165,8.039466472,
0.01652,6.675081308,0.01652,8.404896766,
0.01654,6.309651014,0.01654,8.77032706,
0.01656,4.117069249,0.01656,8.404896766,
0.01658,3.386208661,0.01658,8.039466472,
0.0166,3.020778367,0.0166,8.404896766,
0.01662,-0.6335245752,0.01662,8.77032706,
0.01664,-0.6335245752,0.01664,8.404896766,
0.01666,-3.191536634,0.01666,9.135757354,
0.01668,-5.018688105,0.01668,8.039466472,
0.0167,-4.287827517,0.0167,8.404896766,
0.01672,-6.114978988,0.01672,8.77032706,
0.01674,-6.114978988,0.01674,8.404896766,
0.01676,-8.672991047,0.01676,8.039466472,
0.01678,-9.769281929,0.01678,8.77032706,
0.0168,-8.672991047,0.0168,8.039466472,
0.01682,-9.038421341,0.01682,8.404896766,
0.01684,-9.403851635,0.01684,8.77032706,
0.01686,-9.769281929,0.01686,8.039466472,
0.01688,-8.307560753,0.01688,8.039466472,
0.0169,-9.403851635,0.0169,8.404896766,
0.01692,-9.769281929,0.01692,8.77032706,
0.01694,-6.114978988,0.01694,8.77032706,
0.01696,-7.942130459,0.01696,8.404896766,
0.01698,-6.480409282,0.01698,8.039466472,
0.017,-5.384118399,0.017,8.77032706,
0.01702,-3.556966929,0.01702,8.77032706,
0.01704,-2.82610634,0.01704,8.404896766,
0.01706,-0.9989548694,0.01706,8.404896766,
0.01708,0.09733601316,0.01708,8.77032706,
0.0171,0.8281966015,0.0171,9.135757354,
0.01712,1.193626896,0.01712,8.404896766,
0.01714,4.117069249,0.01714,8.77032706,
0.01716,5.213360132,0.01716,8.77032706,
0.01718,6.675081308,0.01718,8.77032706,
0.0172,6.675081308,0.0172,8.77032706,
0.01722,7.405941897,0.01722,8.404896766,
0.01724,7.771372191,0.01724,8.404896766,
0.01726,7.040511602,0.01726,8.77032706,
0.01728,7.771372191,0.01728,8.404896766,
0.0173,5.94422072,0.0173,8.404896766,
0.01732,8.136802485,0.01732,8.77032706,
0.01734,7.771372191,0.01734,8.404896766,
0.01736,6.309651014,0.01736,8.404896766,
0.01738,8.502232779,0.01738,8.404896766,
0.0174,7.405941897,0.0174,8.039466472,
0.01742,8.867663073,0.01742,8.039466472,
0.01744,8.136802485,0.01744,8.77032706,
0.01746,7.040511602,0.01746,8.404896766,
0.01748,5.213360132,0.01748,8.404896766,
0.0175,3.386208661,0.0175,8.77032706,
0.01752,3.020778367,0.01752,8.039466472,
0.01754,0.09733601316,0.01754,8.404896766,
0.01756,-0.9989548694,0.01756,8.404896766,
0.01758,-4.653257811,0.01758,8.404896766,
0.0176,-2.82610634,0.0176,8.404896766,
0.01762,-3.922397223,0.01762,8.77032706,
0.01764,-7.942130459,0.01764,8.404896766,
0.01766,-5.749548694,0.01766,9.135757354,
0.01768,-6.480409282,0.01768,9.866617943,
0.0177,-8.672991047,0.0177,8.77032706,
0.01772,-8.672991047,0.01772,8.404896766,
0.01774,-9.403851635,0.01774,8.77032706,
0.01776,-11.23100311,0.01776,8.404896766,
0.01778,-9.769281929,0.01778,8.039466472,
0.0178,-10.50014252,0.0178,9.135757354,
0.01782,-9.403851635,0.01782,8.77032706,
0.01784,-8.307560753,0.01784,8.039466472,
0.01786,-8.307560753,0.01786,8.404896766,
0.01788,-7.942130459,0.01788,8.404896766,
0.0179,-9.038421341,0.0179,8.039466472,
0.01792,-5.384118399,0.01792,8.77032706,
0.01794,-5.384118399,0.01794,8.404896766,
0.01796,-2.460676046,0.01796,8.404896766,
0.01798,-1.364385164,0.01798,8.77032706,
0.018,-0.9989548694,0.018,7.308605883,
0.01802,1.193626896,0.01802,8.404896766,
0.01804,1.924487484,0.01804,8.404896766,
0.01806,2.655348072,0.01806,8.77032706,
0.01808,5.213360132,0.01808,7.674036178,
0.0181,5.213360132,0.0181,8.039466472,
0.01812,5.94422072,0.01812,8.77032706,
0.01814,7.405941897,0.01814,8.404896766,
0.01816,8.502232779,0.01816,8.404896766,
0.01818,8.136802485,0.01818,8.039466472,
0.0182,7.771372191,0.0182,8.404896766,
0.01822,8.867663073,0.01822,8.404896766,
0.01824,7.771372191,0.01824,7.674036178,
0.01826,7.771372191,0.01826,8.404896766,
0.01828,8.136802485,0.01828,8.039466472,
0.0183,7.405941897,0.0183,8.77032706,
0.01832,9.233093367,0.01832,8.039466472,
0.01834,8.136802485,0.01834,8.039466472,
0.01836,8.502232779,0.01836,7.674036178,
0.01838,7.405941897,0.01838,8.404896766,
0.0184,6.675081308,0.0184,9.135757354,
0.01842,4.482499543,0.01842,7.674036178,
0.01844,3.751638955,0.01844,8.039466472,
0.01846,2.655348072,0.01846,8.77032706,
0.01848,0.4627663073,0.01848,8.039466472,
0.0185,0.09733601316,0.0185,7.308605883,
0.01852,-2.460676046,0.01852,8.039466472,
0.01854,-3.191536634,0.01854,7.674036178,
0.01856,-4.287827517,0.01856,8.404896766,
0.01858,-6.114978988,0.01858,8.404896766,
0.0186,-6.845839576,0.0186,7.674036178,
0.01862,-7.942130459,0.01862,8.039466472,
0.01864,-7.576700164,0.01864,8.039466472,
0.01866,-9.038421341,0.01866,8.039466472,
0.01868,-10.13471222,0.01868,8.039466472,
0.0187,-8.672991047,0.0187,9.135757354,
0.01872,-9.769281929,0.01872,7.674036178,
0.01874,-9.403851635,0.01874,8.039466472,
0.01876,-8.672991047,0.01876,8.404896766,
0.01878,-9.769281929,0.01878,8.039466472,
0.0188,-8.672991047,0.0188,8.039466472,
0.01882,-5.018688105,0.01882,8.404896766,
0.01884,-6.480409282,0.01884,7.674036178,
0.01886,-7.21126987,0.01886,8.404896766,
0.01888,-1.729815458,0.01888,8.404896766,
0.0189,-3.191536634,0.0189,7.308605883,
0.01892,-3.556966929,0.01892,8.404896766,
0.01894,-0.268094281,0.01894,7.308605883,
0.01896,0.8281966015,0.01896,8.404896766,
0.01898,3.020778367,0.01898,7.674036178,
0.019,4.482499543,0.019,7.308605883,
0.01902,3.751638955,0.01902,8.039466472,
0.01904,7.040511602,0.01904,8.404896766,
0.01906,8.502232779,0.01906,8.404896766,
0.01908,7.405941897,0.01908,7.308605883,
0.0191,8.136802485,0.0191,8.77032706,
0.01912,7.771372191,0.01912,8.404896766,
0.01914,7.405941897,0.01914,8.039466472,
0.01916,8.136802485,0.01916,8.404896766,
0.01918,8.136802485,0.01918,7.308605883,
0.0192,8.136802485,0.0192,8.404896766,
0.01922,8.867663073,0.01922,8.039466472,
0.01924,6.309651014,0.01924,8.039466472,
0.01926,7.405941897,0.01926,7.308605883,
0.01928,8.867663073,0.01928,8.404896766,
0.0193,8.136802485,0.0193,8.039466472,
0.01932,8.867663073,0.01932,7.674036178,
0.01934,4.482499543,0.01934,8.404896766,
0.01936,4.847929837,0.01936,8.404896766,
0.01938,2.655348072,0.01938,7.674036178,
0.0194,1.924487484,0.0194,8.404896766,
0.01942,-1.729815458,0.01942,8.039466472,
0.01944,-0.6335245752,0.01944,8.039466472,
0.01946,-2.095245752,0.01946,8.404896766,
0.01948,-3.191536634,0.01948,8.77032706,
0.0195,-5.018688105,0.0195,8.404896766,
0.01952,-5.018688105,0.01952,8.404896766,
0.01954,-7.576700164,0.01954,8.039466472,
0.01956,-7.576700164,0.01956,8.039466472,
0.01958,-7.942130459,0.01958,8.404896766,
0.0196,-8.307560753,0.0196,8.404896766,
0.01962,-8.307560753,0.01962,8.039466472,
0.01964,-9.403851635,0.01964,8.039466472,
0.01966,-8.672991047,0.01966,8.039466472,
0.01968,-11.5964334,0.01968,7.674036178,
0.0197,-9.038421341,0.0197,8.404896766,
0.01972,-7.942130459,0.01972,8.039466472,
0.01974,-7.942130459,0.01974,8.039466472,
0.01976,-6.845839576,0.01976,8.404896766,
0.01978,-5.749548694,0.01978,8.039466472,
0.0198,-4.287827517,0.0198,7.674036178,
0.01982,-6.114978988,0.01982,8.039466472,
0.01984,-1.729815458,0.01984,8.404896766,
0.01986,-0.6335245752,0.01986,7.674036178,
0.01988,0.09733601316,0.01988,8.039466472,
0.0199,1.193626896,0.0199,7.674036178,
0.01992,0.4627663073,0.01992,7.674036178,
0.01994,3.751638955,0.01994,8.039466472,
0.01996,7.405941897,0.01996,8.039466472,
0.01998,7.405941897,0.01998,7.674036178,
0.02,6.675081308,0.02,8.404896766,
0.02002,9.598523662,0.02002,8.404896766,
0.02004,8.867663073,0.02004,7.674036178,
0.02006,8.502232779,0.02006,8.404896766,
0.02008,7.771372191,0.02008,8.039466472,
0.0201,7.405941897,0.0201,8.77032706,
0.02012,7.771372191,0.02012,8.404896766,
0.02014,7.771372191,0.02014,8.039466472,
0.02016,8.136802485,0.02016,8.77032706,
0.02018,7.040511602,0.02018,8.404896766,
0.0202,7.040511602,0.0202,8.404896766,
0.02022,7.040511602,0.02022,8.77032706,
0.02024,8.502232779,0.02024,8.404896766,
0.02026,8.136802485,0.02026,9.135757354,
0.02028,5.213360132,0.02028,8.77032706,
0.0203,3.386208661,0.0203,8.77032706,
0.02032,-0.9989548694,0.02032,8.404896766,
0.02034,-0.9989548694,0.02034,8.77032706,
0.02036,-2.82610634,0.02036,8.404896766,
0.02038,-2.460676046,0.02038,8.404896766,
0.0204,-2.460676046,0.0204,8.77032706,
0.02042,-6.114978988,0.02042,8.404896766,
0.02044,-6.480409282,0.02044,8.404896766,
0.02046,-5.384118399,0.02046,8.77032706,
0.02048,-8.307560753,0.02048,8.404896766,
0.0205,-8.672991047,0.0205,8.039466472,
0.02052,-7.21126987,0.02052,9.135757354,
0.02054,-9.769281929,0.02054,8.039466472,
0.02056,-9.403851635,0.02056,8.039466472,
0.02058,-9.769281929,0.02058,8.77032706,
0.0206,-10.13471222,0.0206,8.404896766,
0.02062,-9.038421341,0.02062,8.404896766,
0.02064,-11.23100311,0.02064,8.404896766,
0.02066,-9.769281929,0.02066,8.404896766,
0.02068,-7.942130459,0.02068,8.039466472,
0.0207,-6.845839576,0.0207,8.77032706,
0.02072,-6.480409282,0.02072,8.404896766,
0.02074,-6.114978988,0.02074,8.039466472,
0.02076,-1.364385164,0.02076,9.135757354,
0.02078,-2.460676046,0.02078,8.404896766,
0.0208,-0.6335245752,0.0208,8.039466472,
0.02082,0.09733601316,0.02082,8.77032706,
0.02084,1.924487484,0.02084,8.039466472,
0.02086,3.386208661,0.02086,8.404896766,
0.02088,4.482499543,0.02088,9.135757354,
0.0209,5.94422072,0.0209,8.039466472,
0.02092,6.309651014,0.02092,8.404896766,
0.02094,6.675081308,0.02094,8.77032706,
0.02096,8.136802485,0.02096,8.404896766,
0.02098,7.405941897,0.02098,8.404896766,
0.021,8.136802485,0.021,8.404896766,
0.02102,7.771372191,0.02102,8.77032706,
0.02104,6.675081308,0.02104,8.404896766,
0.02106,7.771372191,0.02106,8.404896766,
0.02108,8.136802485,0.02108,8.404896766,
0.0211,7.771372191,0.0211,8.404896766,
0.02112,7.771372191,0.02112,8.404896766,
0.02114,8.136802485,0.02114,8.404896766,
0.02116,8.136802485,0.02116,8.039466472,
0.02118,8.867663073,0.02118,8.77032706,
0.0212,5.213360132,0.0212,8.404896766,
0.02122,5.213360132,0.02122,8.404896766,
0.02124,3.751638955,0.02124,8.77032706,
0.02126,1.924487484,0.02126,9.135757354,
0.02128,1.55905719,0.02128,8.404896766,
0.0213,-0.9989548694,0.0213,8.404896766,
0.02132,-3.922397223,0.02132,8.404896766,
0.02134,-3.191536634,0.02134,8.039466472,
0.02136,-4.287827517,0.02136,8.404896766,
0.02138,-5.749548694,0.02138,8.404896766,
0.0214,-6.480409282,0.0214,8.404896766,
0.02142,-8.307560753,0.02142,8.77032706,
0.02144,-8.307560753,0.02144,8.77032706,
0.02146,-7.576700164,0.02146,8.404896766,
0.02148,-9.038421341,0.02148,8.77032706,
0.0215,-9.403851635,0.0215,8.77032706,
0.02152,-11.5964334,0.02152,8.404896766,
0.02154,-8.672991047,0.02154,8.404896766,
0.02156,-7.576700164,0.02156,8.404896766,
0.02158,-7.942130459,0.02158,8.039466472,
0.0216,-7.576700164,0.0216,8.77032706,
0.02162,-8.672991047,0.02162,8.77032706,
0.02164,-6.845839576,0.02164,8.039466472,
0.02166,-5.749548694,0.02166,8.404896766,
0.02168,-4.653257811,0.02168,8.77032706,
0.0217,-3.556966929,0.0217,8.039466472,
0.02172,-2.460676046,0.02172,8.77032706,
0.02174,0.8281966015,0.02174,8.404896766,
0.02176,1.55905719,0.02176,8.404896766,
0.02178,1.55905719,0.02178,8.77032706,
0.0218,3.386208661,0.0218,8.404896766,
0.02182,5.578790426,0.02182,8.404896766,
0.02184,5.578790426,0.02184,8.404896766,
0.02186,7.040511602,0.02186,8.77032706,
0.02188,9.233093367,0.02188,8.039466472,
0.0219,7.040511602,0.0219,8.77032706,
0.02192,9.963953956,0.02192,8.039466472,
0.02194,7.771372191,0.02194,8.404896766,
0.02196,8.136802485,0.02196,8.404896766,
0.02198,7.405941897,0.02198,8.77032706,
0.022,7.771372191,0.022,8.404896766,
0.02202,7.405941897,0.02202,8.404896766,
0.02204,7.040511602,0.02204,8.404896766,
0.02206,7.771372191,0.02206,8.404896766,
0.02208,9.598523662,0.02208,8.404896766,
0.0221,8.502232779,0.0221,8.404896766,
0.02212,6.309651014,0.02212,8.77032706,
0.02214,5.578790426,0.02214,8.404896766,
0.02216,4.847929837,0.02216,8.404896766,
0.02218,4.482499543,0.02218,8.77032706,
0.0222,0.09733601316,0.0222,8.404896766,
0.02222,-0.6335245752,0.02222,8.404896766,
0.02224,-1.729815458,0.02224,8.404896766,
0.02226,-2.460676046,0.02226,8.404896766,
0.02228,-3.556966929,0.02228,8.404896766,
0.0223,-4.287827517,0.0223,8.404896766,
0.02232,-7.576700164,0.02232,7.674036178,
0.02234,-6.845839576,0.02234,8.404896766,
0.02236,-6.845839576,0.02236,8.404896766,
0.02238,-8.307560753,0.02238,8.404896766,
0.0224,-8.307560753,0.0224,8.404896766,
0.02242,-9.403851635,0.02242,8.039466472,
0.02244,-8.672991047,0.02244,8.77032706,
0.02246,-9.769281929,0.02246,8.039466472,
0.02248,-10.13471222,0.02248,8.404896766,
0.0225,-9.038421341,0.0225,8.77032706,
0.02252,-6.114978988,0.02252,9.135757354,
0.02254,-7.942130459,0.02254,8.404896766,
0.02256,-7.576700164,0.02256,8.404896766,
0.02258,-5.749548694,0.02258,8.77032706,
0.0226,-4.653257811,0.0226,8.77032706,
0.02262,-3.556966929,0.02262,9.135757354,
0.02264,-1.729815458,0.02264,8.77032706,
0.02266,-0.6335245752,0.02266,8.404896766,
0.02268,3.020778367,0.02268,8.404896766,
0.0227,1.55905719,0.0227,8.77032706,
0.02272,3.020778367,0.02272,7.308605883,
0.02274,4.482499543,0.02274,8.404896766,
0.02276,5.213360132,0.02276,8.77032706,
0.02278,5.578790426,0.02278,8.404896766,
0.0228,7.771372191,0.0228,9.135757354,
0.02282,6.309651014,0.02282,7.308605883,
0.02284,8.136802485,0.02284,8.404896766,
0.02286,8.136802485,0.02286,8.77032706,
0.02288,7.771372191,0.02288,8.039466472,
0.0229,7.405941897,0.0229,8.404896766,
0.02292,6.309651014,0.02292,8.039466472,
0.02294,7.405941897,0.02294,8.404896766,
0.02296,5.578790426,0.02296,8.404896766,
0.02298,8.136802485,0.02298,9.135757354,
0.023,7.771372191,0.023,8.404896766,
0.02302,7.040511602,0.02302,7.674036178,
0.02304,8.136802485,0.02304,8.77032706,
0.02306,6.675081308,0.02306,8.039466472,
0.02308,3.386208661,0.02308,8.404896766,
0.0231,4.117069249,0.0231,8.404896766,
0.02312,1.55905719,0.02312,9.866617943,
0.02314,-0.268094281,0.02314,8.039466472,
0.02316,1.55905719,0.02316,8.404896766,
0.02318,-2.460676046,0.02318,8.039466472,
0.0232,-3.556966929,0.0232,8.039466472,
0.02322,-3.556966929,0.02322,9.135757354,
0.02324,-5.749548694,0.02324,8.77032706,
0.02326,-6.845839576,0.02326,8.404896766,
0.02328,-7.576700164,0.02328,8.404896766,
0.0233,-8.307560753,0.0233,8.039466472,
0.02332,-9.769281929,0.02332,6.577745295,
0.02334,-10.13471222,0.02334,8.77032706,
0.02336,-9.769281929,0.02336,8.039466472,
0.02338,-9.769281929,0.02338,8.404896766,
0.0234,-8.672991047,0.0234,9.135757354,
0.02342,-8.672991047,0.02342,6.577745295,
0.02344,-9.403851635,0.02344,8.039466472,
0.02346,-8.307560753,0.02346,8.77032706,
0.02348,-8.672991047,0.02348,8.77032706,
0.0235,-6.480409282,0.0235,8.404896766,
0.02352,-5.384118399,0.02352,8.77032706,
0.02354,-4.653257811,0.02354,8.77032706,
0.02356,-3.556966929,0.02356,7.674036178,
0.02358,-0.9989548694,0.02358,8.77032706,
0.0236,-1.729815458,0.0236,8.77032706,
0.02362,-0.268094281,0.02362,9.501187648,
0.02364,0.8281966015,0.02364,8.77032706,
0.02366,3.386208661,0.02366,8.039466472,
0.02368,5.578790426,0.02368,8.039466472,
0.0237,6.309651014,0.0237,8.77032706,
0.02372,6.309651014,0.02372,9.501187648,
0.02374,4.482499543,0.02374,8.039466472,
0.02376,8.136802485,0.02376,8.77032706,
0.02378,7.771372191,0.02378,8.404896766,
0.0238,6.309651014,0.0238,8.404896766,
0.02382,7.405941897,0.02382,7.674036178,
0.02384,7.040511602,0.02384,8.039466472,
0.02386,7.771372191,0.02386,8.039466472,
0.02388,5.94422072,0.02388,8.77032706,
0.0239,7.040511602,0.0239,8.039466472,
0.02392,7.040511602,0.02392,6.943175589,
0.02394,8.867663073,0.02394,8.77032706,
0.02396,7.771372191,0.02396,8.404896766,
0.02398,7.771372191,0.02398,8.404896766,
0.024,5.94422072,0.024,8.77032706,
0.02402,4.847929837,0.02402,8.404896766,
0.02404,3.751638955,0.02404,7.308605883,
0.02406,1.193626896,0.02406,8.404896766,
0.02408,-0.6335245752,0.02408,8.404896766,
0.0241,-2.095245752,0.0241,8.039466472,
0.02412,-1.729815458,0.02412,9.866617943,
0.02414,-4.653257811,0.02414,8.039466472,
0.02416,-5.018688105,0.02416,8.404896766,
0.02418,-5.384118399,0.02418,8.77032706,
0.0242,-5.749548694,0.0242,8.404896766,
0.02422,-8.307560753,0.02422,7.674036178,
0.02424,-10.50014252,0.02424,9.135757354,
0.02426,-9.038421341,0.02426,8.404896766,
0.02428,-9.769281929,0.02428,8.404896766,
0.0243,-9.769281929,0.0243,8.77032706,
0.02432,-11.96186369,0.02432,8.039466472,
0.02434,-7.21126987,0.02434,8.404896766,
0.02436,-9.769281929,0.02436,9.135757354,
0.02438,-8.307560753,0.02438,7.674036178,
0.0244,-11.5964334,0.0244,8.039466472,
0.02442,-7.576700164,0.02442,9.501187648,
0.02444,-6.114978988,0.02444,8.404896766,
0.02446,-5.384118399,0.02446,7.674036178,
0.02448,-4.287827517,0.02448,9.135757354,
0.0245,-3.922397223,0.0245,8.039466472,
0.02452,-2.095245752,0.02452,9.135757354,
0.02454,-0.6335245752,0.02454,9.135757354,
0.02456,0.8281966015,0.02456,8.039466472,
0.02458,1.55905719,0.02458,8.039466472,
0.0246,3.751638955,0.0246,8.77032706,
0.02462,4.847929837,0.02462,8.77032706,
0.02464,6.309651014,0.02464,8.404896766,
0.02466,7.405941897,0.02466,8.404896766,
0.02468,7.405941897,0.02468,8.404896766,
0.0247,8.502232779,0.0247,8.039466472,
0.02472,8.867663073,0.02472,8.404896766,
0.02474,6.309651014,0.02474,8.404896766,
0.02476,7.405941897,0.02476,8.404896766,
0.02478,8.502232779,0.02478,8.77032706,
0.0248,7.771372191,0.0248,8.77032706,
0.02482,7.040511602,0.02482,7.674036178,
0.02484,8.136802485,0.02484,8.77032706,
0.02486,7.405941897,0.02486,8.77032706,
0.02488,7.771372191,0.02488,8.039466472,
0.0249,7.771372191,0.0249,8.77032706,
0.02492,7.405941897,0.02492,8.77032706,
0.02494,5.94422072,0.02494,8.404896766,
0.02496,5.578790426,0.02496,8.77032706,
0.02498,2.289917778,0.02498,8.77032706,
0.025,1.55905719,0.025,8.404896766,
0.02502,0.4627663073,0.02502,9.135757354,
0.02504,-2.460676046,0.02504,8.77032706,
0.02506,-2.460676046,0.02506,8.039466472,
0.02508,-4.653257811,0.02508,8.77032706,
0.0251,-5.384118399,0.0251,8.404896766,
0.02512,-5.749548694,0.02512,8.404896766,
0.02514,-7.21126987,0.02514,8.77032706,
0.02516,-8.672991047,0.02516,8.404896766,
0.02518,-8.672991047,0.02518,8.039466472,
0.0252,-11.23100311,0.0252,9.135757354,
0.02522,-10.13471222,0.02522,8.404896766,
0.02524,-10.50014252,0.02524,8.404896766,
0.02526,-10.50014252,0.02526,9.135757354,
0.02528,-9.403851635,0.02528,8.77032706,
0.0253,-9.038421341,0.0253,8.404896766,
0.02532,-8.672991047,0.02532,8.039466472,
0.02534,-8.672991047,0.02534,8.404896766,
0.02536,-6.845839576,0.02536,8.039466472,
0.02538,-5.384118399,0.02538,8.77032706,
0.0254,-6.845839576,0.0254,8.77032706,
0.02542,-4.287827517,0.02542,8.404896766,
0.02544,-1.729815458,0.02544,8.77032706,
0.02546,-1.364385164,0.02546,8.404896766,
0.02548,0.09733601316,0.02548,8.039466472,
0.0255,2.289917778,0.0255,8.404896766,
0.02552,3.020778367,0.02552,8.77032706,
0.02554,4.482499543,0.02554,8.039466472,
0.02556,4.117069249,0.02556,8.77032706,
0.02558,6.309651014,0.02558,8.404896766,
0.0256,6.309651014,0.0256,8.039466472,
0.02562,8.136802485,0.02562,8.77032706,
0.02564,7.771372191,0.02564,8.404896766,
0.02566,8.867663073,0.02566,8.039466472,
0.02568,7.771372191,0.02568,8.404896766,
0.0257,7.040511602,0.0257,8.77032706,
0.02572,7.771372191,0.02572,8.404896766,
0.02574,7.771372191,0.02574,8.77032706,
0.02576,6.675081308,0.02576,8.77032706,
0.02578,7.771372191,0.02578,8.404896766,
0.0258,7.771372191,0.0258,9.135757354,
0.02582,7.040511602,0.02582,8.404896766,
0.02584,8.502232779,0.02584,8.404896766,
0.02586,7.405941897,0.02586,8.404896766,
0.02588,4.847929837,0.02588,8.404896766,
0.0259,3.751638955,0.0259,8.404896766,
0.02592,1.55905719,0.02592,8.404896766,
0.02594,2.289917778,0.02594,7.674036178,
0.02596,-1.364385164,0.02596,8.77032706,
0.02598,-2.095245752,0.02598,8.404896766,
0.026,-1.729815458,0.026,8.404896766,
0.02602,-5.384118399,0.02602,8.039466472,
0.02604,-5.384118399,0.02604,8.404896766,
0.02606,-6.845839576,0.02606,8.404896766,
0.02608,-7.21126987,0.02608,8.404896766,
0.0261,-9.403851635,0.0261,8.404896766,
0.02612,-8.672991047,0.02612,8.404896766,
0.02614,-9.769281929,0.02614,8.77032706,
0.02616,-11.23100311,0.02616,8.404896766,
0.02618,-10.50014252,0.02618,8.404896766,
0.0262,-9.769281929,0.0262,8.404896766,
0.02622,-9.403851635,0.02622,8.039466472,
0.02624,-9.038421341,0.02624,8.404896766,
0.02626,-6.480409282,0.02626,8.77032706,
0.02628,-8.307560753,0.02628,8.039466472,
0.0263,-6.845839576,0.0263,8.404896766,
0.02632,-5.749548694,0.02632,8.77032706,
0.02634,-5.018688105,0.02634,8.039466472,
0.02636,-2.460676046,0.02636,8.404896766,
0.02638,-1.364385164,0.02638,8.039466472,
0.0264,-2.460676046,0.0264,8.404896766,
0.02642,1.55905719,0.02642,8.404896766,
0.02644,2.289917778,0.02644,8.404896766,
0.02646,3.751638955,0.02646,8.404896766,
0.02648,4.482499543,0.02648,8.404896766,
0.0265,6.309651014,0.0265,8.404896766,
0.02652,7.040511602,0.02652,8.404896766,
0.02654,6.309651014,0.02654,8.039466472,
0.02656,8.502232779,0.02656,8.77032706,
0.02658,7.405941897,0.02658,8.404896766,
0.0266,7.040511602,0.0266,8.039466472,
0.02662,7.405941897,0.02662,8.039466472,
0.02664,6.309651014,0.02664,8.77032706,
0.02666,7.040511602,0.02666,8.77032706,
0.02668,7.405941897,0.02668,8.77032706,
0.0267,7.405941897,0.0267,8.404896766,
0.02672,8.502232779,0.02672,8.77032706,
0.02674,8.867663073,0.02674,9.135757354,
0.02676,7.405941897,0.02676,8.039466472,
0.02678,8.136802485,0.02678,8.404896766,
0.0268,5.94422072,0.0268,8.404896766,
0.02682,4.482499543,0.02682,7.674036178,
0.02684,3.751638955,0.02684,8.404896766,
0.02686,2.655348072,0.02686,8.404896766,
0.02688,-0.268094281,0.02688,7.308605883,
0.0269,-1.364385164,0.0269,8.404896766,
0.02692,-1.729815458,0.02692,8.039466472,
0.02694,-3.922397223,0.02694,8.039466472,
0.02696,-5.384118399,0.02696,8.404896766,
0.02698,-5.018688105,0.02698,8.404896766,
0.027,-7.21126987,0.027,8.039466472,
0.02702,-7.576700164,0.02702,8.404896766,
0.02704,-7.942130459,0.02704,8.77032706,
0.02706,-9.038421341,0.02706,7.674036178,
0.02708,-10.86557281,0.02708,8.404896766,
0.0271,-9.038421341,0.0271,8.039466472,
0.02712,-9.769281929,0.02712,7.308605883,
0.02714,-9.038421341,0.02714,8.404896766,
0.02716,-8.672991047,0.02716,8.404896766,
0.02718,-6.480409282,0.02718,8.039466472,
0.0272,-7.942130459,0.0272,8.404896766,
0.02722,-7.21126987,0.02722,8.77032706,
0.02724,-5.384118399,0.02724,8.404896766,
0.02726,-5.018688105,0.02726,8.404896766,
0.02728,-3.556966929,0.02728,8.404896766,
0.0273,-2.82610634,0.0273,8.039466472,
0.02732,-2.460676046,0.02732,8.404896766,
0.02734,-0.268094281,0.02734,8.039466472,
0.02736,0.8281966015,0.02736,8.039466472,
0.02738,3.020778367,0.02738,8.404896766,
0.0274,4.482499543,0.0274,8.404896766,
0.02742,5.94422072,0.02742,7.674036178,
0.02744,7.405941897,0.02744,7.674036178,
0.02746,6.309651014,0.02746,8.77032706,
0.02748,7.040511602,0.02748,8.039466472,
0.0275,6.309651014,0.0275,8.039466472,
0.02752,8.502232779,0.02752,8.404896766,
0.02754,8.136802485,0.02754,8.039466472,
0.02756,7.771372191,0.02756,8.404896766,
0.02758,7.771372191,0.02758,8.404896766,
0.0276,7.771372191,0.0276,8.039466472,
0.02762,7.405941897,0.02762,8.404896766,
0.02764,8.502232779,0.02764,9.135757354,
0.02766,7.040511602,0.02766,8.039466472,
0.02768,7.771372191,0.02768,8.404896766,
0.0277,8.136802485,0.0277,8.039466472,
0.02772,7.040511602,0.02772,8.039466472,
0.02774,5.578790426,0.02774,8.404896766,
0.02776,5.578790426,0.02776,8.77032706,
0.02778,2.655348072,0.02778,8.404896766,
0.0278,1.924487484,0.0278,8.404896766,
0.02782,0.09733601316,0.02782,8.404896766,
0.02784,-1.729815458,0.02784,7.308605883,
0.02786,-2.460676046,0.02786,8.404896766,
0.02788,-3.556966929,0.02788,8.039466472,
0.0279,-6.114978988,0.0279,8.404896766,
0.02792,-6.845839576,0.02792,7.674036178,
0.02794,-7.21126987,0.02794,7.674036178,
0.02796,-8.307560753,0.02796,8.404896766,
0.02798,-8.672991047,0.02798,8.404896766,
0.028,-8.307560753,0.028,8.039466472,
0.02802,-9.769281929,0.02802,8.039466472,
0.02804,-10.13471222,0.02804,8.77032706,
0.02806,-9.403851635,0.02806,8.039466472,
0.02808,-10.86557281,0.02808,8.039466472,
0.0281,-8.307560753,0.0281,8.404896766,
0.02812,-7.576700164,0.02812,8.404896766,
0.02814,-9.038421341,0.02814,8.039466472,
0.02816,-6.480409282,0.02816,8.404896766,
0.02818,-5.749548694,0.02818,8.039466472,
0.0282,-5.749548694,0.0282,8.039466472,
0.02822,-3.556966929,0.02822,8.404896766,
0.02824,-2.095245752,0.02824,7.308605883,
0.02826,-1.729815458,0.02826,7.674036178,
0.02828,0.4627663073,0.02828,8.404896766,
0.0283,2.289917778,0.0283,8.039466472,
0.02832,3.020778367,0.02832,8.039466472,
0.02834,5.213360132,0.02834,9.135757354,
0.02836,7.040511602,0.02836,8.404896766,
0.02838,6.309651014,0.02838,8.039466472,
0.0284,8.136802485,0.0284,8.039466472,
0.02842,8.136802485,0.02842,8.404896766,
0.02844,7.405941897,0.02844,8.404896766,
0.02846,8.136802485,0.02846,7.674036178,
0.02848,8.136802485,0.02848,8.404896766,
0.0285,8.502232779,0.0285,7.674036178,
0.02852,8.136802485,0.02852,8.039466472,
0.02854,10.32938425,0.02854,7.308605883,
0.02856,7.405941897,0.02856,8.039466472,
0.02858,8.867663073,0.02858,8.404896766,
0.0286,7.771372191,0.0286,8.404896766,
0.02862,7.040511602,0.02862,8.404896766,
0.02864,11.06024484,0.02864,9.135757354,
0.02866,5.578790426,0.02866,8.404896766,
0.02868,4.847929837,0.02868,8.77032706,
0.0287,3.386208661,0.0287,8.404896766,
0.02872,1.924487484,0.02872,8.404896766,
0.02874,1.924487484,0.02874,9.135757354,
0.02876,-0.6335245752,0.02876,8.404896766,
0.02878,-1.729815458,0.02878,8.039466472,
0.0288,-3.556966929,0.0288,8.77032706,
0.02882,-5.018688105,0.02882,8.039466472,
0.02884,-5.384118399,0.02884,7.308605883,
0.02886,-8.307560753,0.02886,8.77032706,
0.02888,-6.845839576,0.02888,8.039466472,
0.0289,-8.672991047,0.0289,8.039466472,
0.02892,-8.307560753,0.02892,8.77032706,
0.02894,-9.403851635,0.02894,9.135757354,
0.02896,-9.403851635,0.02896,8.039466472,
0.02898,-9.038421341,0.02898,8.77032706,
0.029,-9.769281929,0.029,8.039466472,
0.02902,-9.403851635,0.02902,8.77032706,
0.02904,-9.038421341,0.02904,9.135757354,
0.02906,-6.480409282,0.02906,8.404896766,
0.02908,-7.576700164,0.02908,8.404896766,
0.0291,-5.018688105,0.0291,8.77032706,
0.02912,-6.114978988,0.02912,8.039466472,
0.02914,-4.287827517,0.02914,7.674036178,
0.02916,-0.9989548694,0.02916,7.674036178,
0.02918,-1.364385164,0.02918,8.404896766,
0.0292,2.289917778,0.0292,8.404896766,
0.02922,0.09733601316,0.02922,8.77032706,
0.02924,1.55905719,0.02924,8.039466472,
0.02926,4.847929837,0.02926,8.039466472,
0.02928,5.94422072,0.02928,8.77032706,
0.0293,4.847929837,0.0293,8.404896766,
0.02932,6.675081308,0.02932,8.039466472,
0.02934,7.040511602,0.02934,9.135757354,
0.02936,8.867663073,0.02936,8.404896766,
0.02938,7.040511602,0.02938,8.404896766,
0.0294,8.502232779,0.0294,8.77032706,
0.02942,8.136802485,0.02942,8.404896766,
0.02944,8.502232779,0.02944,7.674036178,
0.02946,8.867663073,0.02946,9.135757354,
0.02948,7.040511602,0.02948,8.404896766,
0.0295,7.040511602,0.0295,8.404896766,
0.02952,8.136802485,0.02952,8.77032706,
0.02954,6.675081308,0.02954,7.308605883,
0.02956,7.040511602,0.02956,8.404896766,
0.02958,8.502232779,0.02958,8.77032706,
0.0296,5.213360132,0.0296,7.674036178,
0.02962,3.386208661,0.02962,8.039466472,
0.02964,3.020778367,0.02964,8.404896766,
0.02966,2.655348072,0.02966,8.404896766,
0.02968,1.193626896,0.02968,8.039466472,
0.0297,-0.9989548694,0.0297,8.77032706,
0.02972,-3.191536634,0.02972,8.039466472,
0.02974,-3.191536634,0.02974,8.039466472,
0.02976,-5.018688105,0.02976,9.135757354,
0.02978,-6.845839576,0.02978,8.77032706,
0.0298,-5.018688105,0.0298,7.674036178,
0.02982,-8.672991047,0.02982,8.77032706,
0.02984,-10.13471222,0.02984,8.039466472,
0.02986,-13.42358487,0.02986,8.039466472,
0.02988,-11.23100311,0.02988,8.77032706,
0.0299,-11.96186369,0.0299,8.404896766,
0.02992,-8.672991047,0.02992,8.039466472,
0.02994,-9.403851635,0.02994,9.135757354,
0.02996,-11.23100311,0.02996,8.77032706,
0.02998,-9.403851635,0.02998,8.039466472,
0.03,-7.942130459,0.03,8.77032706,
0.03002,-7.576700164,0.03002,8.404896766,
0.03004,-7.942130459,0.03004,8.039466472,
0.03006,-5.749548694,0.03006,8.77032706,
0.03008,-4.653257811,0.03008,8.039466472,
0.0301,-2.82610634,0.0301,8.039466472,
0.03012,-1.729815458,0.03012,8.404896766,
0.03014,0.4627663073,0.03014,8.039466472,
0.03016,2.289917778,0.03016,8.404896766,
0.03018,3.020778367,0.03018,8.77032706,
0.0302,3.751638955,0.0302,8.039466472,
0.03022,6.309651014,0.03022,8.039466472,
0.03024,6.675081308,0.03024,8.404896766,
0.03026,7.040511602,0.03026,8.404896766,
0.03028,7.405941897,0.03028,8.039466472,
0.0303,7.771372191,0.0303,8.77032706,
0.03032,7.040511602,0.03032,8.404896766,
0.03034,5.94422072,0.03034,8.039466472,
0.03036,6.675081308,0.03036,8.404896766,
0.03038,6.675081308,0.03038,8.404896766,
0.0304,6.675081308,0.0304,8.039466472,
0.03042,5.94422072,0.03042,8.77032706,
0.03044,6.309651014,0.03044,8.77032706,
0.03046,7.040511602,0.03046,8.039466472,
0.03048,8.136802485,0.03048,8.77032706,
0.0305,7.771372191,0.0305,8.404896766,
0.03052,7.040511602,0.03052,8.039466472,
0.03054,5.578790426,0.03054,8.77032706,
0.03056,4.117069249,0.03056,8.77032706,
0.03058,2.289917778,0.03058,8.77032706,
0.0306,0.8281966015,0.0306,8.77032706,
0.03062,-0.268094281,0.03062,8.77032706,
0.03064,-1.364385164,0.03064,8.404896766,
0.03066,-2.095245752,0.03066,8.404896766,
0.03068,-3.922397223,0.03068,8.77032706,
0.0307,-4.653257811,0.0307,8.77032706,
0.03072,-6.845839576,0.03072,8.404896766,
0.03074,-7.21126987,0.03074,8.404896766,
0.03076,-7.576700164,0.03076,8.77032706,
0.03078,-9.038421341,0.03078,8.404896766,
0.0308,-9.038421341,0.0308,8.404896766,
0.03082,-8.672991047,0.03082,8.404896766,
0.03084,-9.769281929,0.03084,8.404896766,
0.03086,-10.13471222,0.03086,8.404896766,
0.03088,-9.769281929,0.03088,8.404896766,
0.0309,-9.038421341,0.0309,8.404896766,
0.03092,-8.307560753,0.03092,8.404896766,
0.03094,-7.942130459,0.03094,8.77032706,
0.03096,-8.307560753,0.03096,8.039466472,
0.03098,-6.114978988,0.03098,8.404896766,
0.031,-5.018688105,0.031,8.404896766,
0.03102,-5.749548694,0.03102,8.404896766,
0.03104,-1.364385164,0.03104,8.039466472,
0.03106,-0.268094281,0.03106,8.039466472,
0.03108,0.4627663073,0.03108,8.039466472,
0.0311,2.655348072,0.0311,8.039466472,
0.03112,3.020778367,0.03112,8.77032706,
0.03114,3.751638955,0.03114,8.404896766,
0.03116,6.675081308,0.03116,8.404896766,
0.03118,4.482499543,0.03118,8.404896766,
0.0312,7.771372191,0.0312,8.404896766,
0.03122,8.136802485,0.03122,8.404896766,
0.03124,7.040511602,0.03124,9.135757354,
0.03126,7.040511602,0.03126,7.674036178,
0.03128,8.136802485,0.03128,8.404896766,
0.0313,7.405941897,0.0313,8.77032706,
0.03132,8.502232779,0.03132,8.404896766,
0.03134,5.94422072,0.03134,8.404896766,
0.03136,8.502232779,0.03136,8.77032706,
0.03138,7.771372191,0.03138,8.77032706,
0.0314,7.771372191,0.0314,8.404896766,
0.03142,6.675081308,0.03142,8.77032706,
0.03144,8.136802485,0.03144,8.77032706,
0.03146,4.117069249,0.03146,8.77032706,
0.03148,4.482499543,0.03148,8.404896766,
0.0315,4.117069249,0.0315,8.77032706,
0.03152,2.289917778,0.03152,8.404896766,
0.03154,0.8281966015,0.03154,8.404896766,
0.03156,-1.729815458,0.03156,8.404896766,
0.03158,-2.460676046,0.03158,8.039466472,
0.0316,-3.556966929,0.0316,8.039466472,
0.03162,-3.556966929,0.03162,8.77032706,
0.03164,-5.384118399,0.03164,8.404896766,
0.03166,-5.749548694,0.03166,8.039466472,
0.03168,-6.845839576,0.03168,8.404896766,
0.0317,-7.942130459,0.0317,8.404896766,
0.03172,-9.769281929,0.03172,9.501187648,
0.03174,-9.403851635,0.03174,8.039466472,
0.03176,-9.769281929,0.03176,7.674036178,
0.03178,-9.038421341,0.03178,8.039466472,
0.0318,-9.403851635,0.0318,9.135757354,
0.03182,-10.13471222,0.03182,8.039466472,
0.03184,-8.672991047,0.03184,7.674036178,
0.03186,-7.942130459,0.03186,9.135757354,
0.03188,-9.038421341,0.03188,8.77032706,
0.0319,-6.480409282,0.0319,8.404896766,
0.03192,-5.384118399,0.03192,8.77032706,
0.03194,-5.018688105,0.03194,8.77032706,
0.03196,-3.556966929,0.03196,6.943175589,
0.03198,-2.460676046,0.03198,8.77032706,
0.032,-0.6335245752,0.032,8.404896766,
0.03202,0.4627663073,0.03202,8.039466472,
0.03204,2.655348072,0.03204,8.77032706,
0.03206,2.289917778,0.03206,9.866617943,
0.03208,5.213360132,0.03208,8.404896766,
0.0321,7.040511602,0.0321,8.039466472,
0.03212,8.136802485,0.03212,8.039466472,
0.03214,7.771372191,0.03214,8.039466472,
0.03216,7.771372191,0.03216,9.135757354,
0.03218,8.136802485,0.03218,8.404896766,
0.0322,9.233093367,0.0322,8.039466472,
0.03222,8.867663073,0.03222,9.135757354,
0.03224,9.233093367,0.03224,8.404896766,
0.03226,7.771372191,0.03226,6.212315001,
0.03228,7.040511602,0.03228,8.77032706,
0.0323,7.405941897,0.0323,8.039466472,
0.03232,7.405941897,0.03232,8.039466472,
0.03234,7.405941897,0.03234,8.77032706,
0.03236,8.136802485,0.03236,7.308605883,
0.03238,7.405941897,0.03238,7.674036178,
0.0324,5.213360132,0.0324,8.404896766,
0.03242,4.117069249,0.03242,8.404896766,
0.03244,2.655348072,0.03244,8.039466472,
0.03246,1.924487484,0.03246,9.866617943,
0.03248,1.193626896,0.03248,8.404896766,
0.0325,-0.6335245752,0.0325,8.404896766,
0.03252,-2.82610634,0.03252,8.77032706,
0.03254,-3.922397223,0.03254,8.039466472,
0.03256,-7.21126987,0.03256,7.674036178,
0.03258,-6.114978988,0.03258,8.404896766,
0.0326,-7.21126987,0.0326,7.674036178,
0.03262,-8.307560753,0.03262,8.404896766,
0.03264,-7.576700164,0.03264,9.135757354,
0.03266,-9.769281929,0.03266,6.943175589,
0.03268,-9.403851635,0.03268,8.039466472,
0.0327,-9.403851635,0.0327,9.135757354,
0.03272,-9.038421341,0.03272,8.404896766,
0.03274,-9.769281929,0.03274,8.039466472,
0.03276,-9.403851635,0.03276,8.404896766,
0.03278,-8.672991047,0.03278,8.039466472,
0.0328,-10.13471222,0.0328,8.039466472,
0.03282,-5.384118399,0.03282,8.77032706,
0.03284,-6.845839576,0.03284,8.039466472,
0.03286,-5.018688105,0.03286,9.135757354,
0.03288,-5.384118399,0.03288,8.77032706,
0.0329,-4.287827517,0.0329,8.039466472,
0.03292,-2.095245752,0.03292,8.404896766,
0.03294,-0.6335245752,0.03294,8.77032706,
0.03296,0.09733601316,0.03296,7.308605883,
0.03298,2.289917778,0.03298,8.404896766,
0.033,1.55905719,0.033,8.77032706,
0.03302,5.213360132,0.03302,8.039466472,
0.03304,6.309651014,0.03304,8.404896766,
0.03306,7.771372191,0.03306,8.404896766,
0.03308,7.040511602,0.03308,8.039466472,
0.0331,8.136802485,0.0331,8.039466472,
0.03312,8.502232779,0.03312,8.77032706,
0.03314,8.502232779,0.03314,8.039466472,
0.03316,8.136802485,0.03316,8.77032706,
0.03318,7.040511602,0.03318,8.77032706,
0.0332,8.867663073,0.0332,8.404896766,
0.03322,7.771372191,0.03322,8.039466472,
0.03324,7.405941897,0.03324,8.77032706,
0.03326,7.771372191,0.03326,8.039466472,
0.03328,5.578790426,0.03328,8.039466472,
0.0333,8.502232779,0.0333,8.404896766,
0.03332,6.675081308,0.03332,8.404896766,
0.03334,4.117069249,0.03334,8.039466472,
0.03336,3.751638955,0.03336,8.77032706,
0.03338,3.020778367,0.03338,8.404896766,
0.0334,0.4627663073,0.0334,8.039466472,
0.03342,1.193626896,0.03342,8.77032706,
0.03344,-2.82610634,0.03344,8.404896766,
0.03346,-3.556966929,0.03346,8.77032706,
0.03348,-3.922397223,0.03348,8.404896766,
0.0335,-5.749548694,0.0335,8.404896766,
0.03352,-6.114978988,0.03352,8.404896766,
0.03354,-7.21126987,0.03354,8.404896766,
0.03356,-7.942130459,0.03356,8.039466472,
0.03358,-9.769281929,0.03358,7.674036178,
0.0336,-9.403851635,0.0336,8.77032706,
0.03362,-9.403851635,0.03362,8.404896766,
0.03364,-9.038421341,0.03364,8.404896766,
0.03366,-9.403851635,0.03366,8.404896766,
0.03368,-9.769281929,0.03368,8.77032706,
0.0337,-8.672991047,0.0337,8.404896766,
0.03372,-10.13471222,0.03372,8.404896766,
0.03374,-7.576700164,0.03374,8.77032706,
0.03376,-6.845839576,0.03376,8.039466472,
0.03378,-5.384118399,0.03378,8.404896766,
0.0338,-5.384118399,0.0338,8.404896766,
0.03382,-4.653257811,0.03382,8.039466472,
0.03384,-2.095245752,0.03384,8.77032706,
0.03386,-1.364385164,0.03386,8.039466472,
0.03388,0.09733601316,0.03388,8.404896766,
0.0339,2.655348072,0.0339,8.77032706,
0.03392,3.020778367,0.03392,9.135757354,
0.03394,5.94422072,0.03394,8.404896766,
0.03396,5.578790426,0.03396,8.77032706,
0.03398,5.94422072,0.03398,8.404896766,
0.034,9.233093367,0.034,8.404896766,
0.03402,8.867663073,0.03402,8.77032706,
0.03404,7.040511602,0.03404,8.039466472,
0.03406,9.598523662,0.03406,8.039466472,
0.03408,7.405941897,0.03408,8.77032706,
0.0341,7.040511602,0.0341,9.135757354,
0.03412,8.502232779,0.03412,8.039466472,
0.03414,7.405941897,0.03414,8.404896766,
0.03416,6.675081308,0.03416,8.404896766,
0.03418,8.136802485,0.03418,8.404896766,
0.0342,8.136802485,0.0342,8.77032706,
0.03422,7.405941897,0.03422,8.77032706,
0.03424,7.771372191,0.03424,8.404896766,
0.03426,5.578790426,0.03426,8.77032706,
0.03428,4.482499543,0.03428,8.404896766,
0.0343,3.751638955,0.0343,8.039466472,
0.03432,1.55905719,0.03432,8.404896766,
0.03434,0.4627663073,0.03434,9.135757354,
0.03436,-0.268094281,0.03436,8.404896766,
0.03438,-1.729815458,0.03438,8.77032706,
0.0344,-4.653257811,0.0344,8.404896766,
0.03442,-4.287827517,0.03442,8.404896766,
0.03444,-5.384118399,0.03444,8.77032706,
0.03446,-7.21126987,0.03446,8.404896766,
0.03448,-7.576700164,0.03448,8.404896766,
0.0345,-7.942130459,0.0345,8.77032706,
0.03452,-9.403851635,0.03452,8.404896766,
0.03454,-9.038421341,0.03454,8.404896766,
0.03456,-9.038421341,0.03456,8.77032706,
0.03458,-10.86557281,0.03458,8.77032706,
0.0346,-9.769281929,0.0346,8.77032706,
0.03462,-8.672991047,0.03462,8.77032706,
0.03464,-10.86557281,0.03464,8.404896766,
0.03466,-9.038421341,0.03466,8.404896766,
0.03468,-6.480409282,0.03468,8.77032706,
0.0347,-6.480409282,0.0347,8.404896766,
0.03472,-5.384118399,0.03472,8.77032706,
0.03474,-4.287827517,0.03474,8.77032706,
0.03476,-3.556966929,0.03476,8.77032706,
0.03478,-2.460676046,0.03478,8.039466472,
0.0348,-0.6335245752,0.0348,8.77032706,
0.03482,-0.6335245752,0.03482,8.77032706,
0.03484,3.386208661,0.03484,8.404896766,
0.03486,3.020778367,0.03486,8.77032706,
0.03488,4.117069249,0.03488,8.404896766,
0.0349,5.213360132,0.0349,8.039466472,
0.03492,6.675081308,0.03492,8.77032706,
0.03494,7.040511602,0.03494,8.404896766,
0.03496,8.867663073,0.03496,8.77032706,
0.03498,7.040511602,0.03498,8.77032706,
0.035,7.405941897,0.035,8.404896766,
0.03502,8.136802485,0.03502,8.404896766,
0.03504,8.136802485,0.03504,8.77032706,
0.03506,11.06024484,0.03506,8.404896766,
0.03508,8.867663073,0.03508,8.404896766,
0.0351,7.771372191,0.0351,8.77032706,
0.03512,7.771372191,0.03512,8.404896766,
0.03514,7.771372191,0.03514,8.039466472,
0.03516,7.405941897,0.03516,9.135757354,
0.03518,7.771372191,0.03518,8.77032706,
0.0352,4.482499543,0.0352,8.404896766,
0.03522,3.386208661,0.03522,9.501187648,
0.03524,2.289917778,0.03524,8.77032706,
0.03526,1.924487484,0.03526,8.404896766,
0.03528,-0.268094281,0.03528,8.77032706,
0.0353,-2.095245752,0.0353,8.404896766,
0.03532,-2.460676046,0.03532,8.77032706,
0.03534,-4.653257811,0.03534,8.039466472,
0.03536,-4.653257811,0.03536,8.039466472,
0.03538,-2.460676046,0.03538,7.674036178,
0.0354,-6.845839576,0.0354,8.039466472,
0.03542,-9.769281929,0.03542,8.404896766,
0.03544,-8.307560753,0.03544,8.404896766,
0.03546,-9.038421341,0.03546,8.404896766,
0.03548,-9.403851635,0.03548,9.866617943,
0.0355,-9.038421341,0.0355,8.404896766,
0.03552,-9.769281929,0.03552,8.039466472,
0.03554,-9.403851635,0.03554,8.404896766,
0.03556,-8.672991047,0.03556,8.404896766,
0.03558,-8.307560753,0.03558,7.674036178,
0.0356,-6.845839576,0.0356,8.039466472,
0.03562,-7.21126987,0.03562,8.404896766,
0.03564,-6.114978988,0.03564,8.039466472,
0.03566,-5.749548694,0.03566,8.404896766,
0.03568,-3.556966929,0.03568,7.308605883,
0.0357,-2.460676046,0.0357,7.674036178,
0.03572,-2.095245752,0.03572,8.77032706,
0.03574,0.4627663073,0.03574,8.404896766,
0.03576,1.193626896,0.03576,7.674036178,
0.03578,3.386208661,0.03578,7.674036178,
0.0358,3.386208661,0.0358,8.039466472,
0.03582,5.578790426,0.03582,7.674036178,
0.03584,7.040511602,0.03584,8.77032706,
0.03586,7.405941897,0.03586,8.404896766,
0.03588,6.675081308,0.03588,8.404896766,
0.0359,8.136802485,0.0359,8.404896766,
0.03592,7.771372191,0.03592,8.77032706,
0.03594,7.040511602,0.03594,8.039466472,
0.03596,6.675081308,0.03596,8.404896766,
0.03598,8.502232779,0.03598,8.404896766,
0.036,5.94422072,0.036,8.039466472,
0.03602,7.771372191,0.03602,8.404896766,
0.03604,4.847929837,0.03604,7.674036178,
0.03606,7.771372191,0.03606,7.674036178,
0.03608,8.136802485,0.03608,7.674036178,
0.0361,7.771372191,0.0361,7.674036178,
0.03612,6.675081308,0.03612,8.039466472,
0.03614,5.578790426,0.03614,8.404896766,
0.03616,3.751638955,0.03616,8.039466472,
0.03618,3.020778367,0.03618,8.404896766,
0.0362,0.8281966015,0.0362,7.674036178,
0.03622,-0.6335245752,0.03622,8.039466472,
0.03624,-3.922397223,0.03624,8.404896766,
0.03626,-2.82610634,0.03626,8.404896766,
0.03628,-4.287827517,0.03628,8.404896766,
0.0363,-5.384118399,0.0363,8.039466472,
0.03632,-6.480409282,0.03632,8.404896766,
0.03634,-6.480409282,0.03634,8.039466472,
0.03636,-8.307560753,0.03636,7.674036178,
0.03638,-8.672991047,0.03638,7.674036178,
0.0364,-10.13471222,0.0364,8.404896766,
0.03642,-9.038421341,0.03642,7.674036178,
0.03644,-9.769281929,0.03644,8.039466472,
0.03646,-10.50014252,0.03646,8.77032706,
0.03648,-9.038421341,0.03648,8.77032706,
0.0365,-10.13471222,0.0365,8.77032706,
0.03652,-7.21126987,0.03652,8.039466472,
0.03654,-8.672991047,0.03654,8.404896766,
0.03656,-6.845839576,0.03656,8.404896766,
0.03658,-5.018688105,0.03658,8.77032706,
0.0366,-1.729815458,0.0366,8.77032706,
0.03662,-3.191536634,0.03662,8.404896766,
0.03664,-2.82610634,0.03664,8.404896766,
0.03666,-1.364385164,0.03666,8.404896766,
0.03668,0.09733601316,0.03668,8.039466472,
0.0367,3.020778367,0.0367,8.404896766,
0.03672,2.289917778,0.03672,9.135757354,
0.03674,4.482499543,0.03674,8.404896766,
0.03676,4.117069249,0.03676,8.404896766,
0.03678,7.040511602,0.03678,8.039466472,
0.0368,5.578790426,0.0368,8.039466472,
0.03682,7.771372191,0.03682,8.404896766,
0.03684,8.502232779,0.03684,8.404896766,
0.03686,7.040511602,0.03686,8.404896766,
0.03688,8.136802485,0.03688,8.77032706,
0.0369,8.502232779,0.0369,8.77032706,
0.03692,6.309651014,0.03692,8.404896766,
0.03694,8.136802485,0.03694,8.77032706,
0.03696,7.771372191,0.03696,8.404896766,
0.03698,7.771372191,0.03698,8.404896766,
0.037,8.867663073,0.037,8.404896766,
0.03702,8.136802485,0.03702,8.404896766,
0.03704,7.405941897,0.03704,8.404896766,
0.03706,6.309651014,0.03706,8.039466472,
0.03708,4.482499543,0.03708,8.039466472,
0.0371,1.924487484,0.0371,8.039466472,
0.03712,1.55905719,0.03712,8.404896766,
0.03714,-0.268094281,0.03714,8.404896766,
0.03716,-0.9989548694,0.03716,8.404896766,
0.03718,-2.095245752,0.03718,8.039466472,
0.0372,-3.922397223,0.0372,8.77032706,
0.03722,-4.653257811,0.03722,8.404896766,
0.03724,-6.114978988,0.03724,8.404896766,
0.03726,-6.480409282,0.03726,9.135757354,
0.03728,-7.942130459,0.03728,8.77032706,
0.0373,-4.653257811,0.0373,8.404896766,
0.03732,-8.672991047,0.03732,8.77032706,
0.03734,-9.769281929,0.03734,8.404896766,
0.03736,-10.13471222,0.03736,8.404896766,
0.03738,-8.307560753,0.03738,9.135757354,
0.0374,-8.307560753,0.0374,8.404896766,
0.03742,-9.403851635,0.03742,8.404896766,
0.03744,-9.038421341,0.03744,8.404896766,
0.03746,-8.307560753,0.03746,8.404896766,
0.03748,-6.845839576,0.03748,8.404896766,
0.0375,-7.942130459,0.0375,8.77032706,
0.03752,-5.749548694,0.03752,8.039466472,
0.03754,-4.653257811,0.03754,8.404896766,
0.03756,-5.018688105,0.03756,8.039466472,
0.03758,-3.191536634,0.03758,8.039466472,
0.0376,-0.9989548694,0.0376,8.404896766,
0.03762,1.193626896,0.03762,8.404896766,
0.03764,1.924487484,0.03764,8.404896766,
0.03766,4.847929837,0.03766,8.039466472,
0.03768,5.94422072,0.03768,8.77032706,
0.0377,5.213360132,0.0377,8.404896766,
0.03772,8.502232779,0.03772,8.039466472,
0.03774,8.136802485,0.03774,8.77032706,
0.03776,7.040511602,0.03776,8.77032706,
0.03778,7.771372191,0.03778,8.404896766,
0.0378,8.136802485,0.0378,8.404896766,
0.03782,7.405941897,0.03782,8.77032706,
0.03784,7.040511602,0.03784,8.404896766,
0.03786,8.502232779,0.03786,8.77032706,
0.03788,7.771372191,0.03788,8.404896766,
0.0379,9.598523662,0.0379,8.039466472,
0.03792,7.405941897,0.03792,8.404896766,
0.03794,8.502232779,0.03794,8.404896766,
0.03796,7.771372191,0.03796,8.404896766,
0.03798,7.405941897,0.03798,8.404896766,
0.038,5.213360132,0.038,8.404896766,
0.03802,4.847929837,0.03802,8.404896766,
0.03804,3.020778367,0.03804,8.77032706,
0.03806,1.193626896,0.03806,8.404896766,
0.03808,-0.268094281,0.03808,8.039466472,
0.0381,-2.460676046,0.0381,8.404896766,
0.03812,-4.287827517,0.03812,8.77032706,
0.03814,-3.922397223,0.03814,9.135757354,
0.03816,-4.653257811,0.03816,8.77032706,
0.03818,-6.480409282,0.03818,7.674036178,
0.0382,-9.403851635,0.0382,8.404896766,
0.03822,-5.749548694,0.03822,8.404896766,
0.03824,-10.13471222,0.03824,7.674036178,
0.03826,-9.038421341,0.03826,8.039466472,
0.03828,-11.23100311,0.03828,8.039466472,
0.0383,-9.403851635,0.0383,8.039466472,
0.03832,-8.672991047,0.03832,8.404896766,
0.03834,-9.403851635,0.03834,8.404896766,
0.03836,-9.038421341,0.03836,7.674036178,
0.03838,-7.942130459,0.03838,8.404896766,
0.0384,-6.845839576,0.0384,8.404896766,
0.03842,-7.576700164,0.03842,8.039466472,
0.03844,-5.749548694,0.03844,8.404896766,
0.03846,-3.922397223,0.03846,8.404896766,
0.03848,-4.287827517,0.03848,8.039466472,
0.0385,-1.364385164,0.0385,8.404896766,
0.03852,-0.6335245752,0.03852,8.404896766,
0.03854,0.09733601316,0.03854,7.674036178,
0.03856,0.4627663073,0.03856,8.404896766,
0.03858,4.117069249,0.03858,8.404896766,
0.0386,4.117069249,0.0386,7.674036178,
0.03862,4.847929837,0.03862,8.039466472,
0.03864,6.675081308,0.03864,8.404896766,
0.03866,6.675081308,0.03866,7.674036178,
0.03868,8.136802485,0.03868,8.404896766,
0.0387,7.040511602,0.0387,8.77032706,
0.03872,9.598523662,0.03872,7.674036178,
0.03874,8.136802485,0.03874,8.039466472,
0.03876,7.771372191,0.03876,8.404896766,
0.03878,7.771372191,0.03878,7.674036178,
0.0388,7.405941897,0.0388,8.039466472,
0.03882,8.136802485,0.03882,8.039466472,
0.03884,7.405941897,0.03884,7.674036178,
0.03886,7.771372191,0.03886,8.039466472,
0.03888,8.136802485,0.03888,8.404896766,
0.0389,7.771372191,0.0389,7.674036178,
0.03892,7.040511602,0.03892,8.404896766,
0.03894,5.213360132,0.03894,8.039466472,
0.03896,2.655348072,0.03896,8.039466472,
0.03898,3.386208661,0.03898,8.039466472,
0.039,1.924487484,0.039,8.404896766,
0.03902,-0.6335245752,0.03902,8.039466472,
0.03904,0.09733601316,0.03904,8.404896766,
0.03906,-2.460676046,0.03906,8.404896766,
0.03908,-4.653257811,0.03908,8.039466472,
0.0391,-3.922397223,0.0391,8.404896766,
0.03912,-6.114978988,0.03912,8.039466472,
0.03914,-9.403851635,0.03914,7.674036178,
0.03916,-7.576700164,0.03916,8.404896766,
0.03918,-9.769281929,0.03918,8.404896766,
0.0392,-9.038421341,0.0392,8.039466472,
0.03922,-8.672991047,0.03922,8.404896766,
0.03924,-9.403851635,0.03924,8.404896766,
0.03926,-9.769281929,0.03926,8.039466472,
0.03928,-8.672991047,0.03928,8.77032706,
0.0393,-8.672991047,0.0393,8.77032706,
0.03932,-4.287827517,0.03932,7.674036178,
0.03934,-7.21126987,0.03934,8.404896766,
0.03936,-7.576700164,0.03936,8.404896766,
0.03938,-5.749548694,0.03938,7.674036178,
0.0394,-4.287827517,0.0394,9.866617943,
0.03942,-2.82610634,0.03942,8.404896766,
0.03944,-2.095245752,0.03944,7.308605883,
0.03946,0.09733601316,0.03946,8.404896766,
0.03948,0.4627663073,0.03948,8.404896766,
0.0395,-0.268094281,0.0395,7.674036178,
0.03952,3.751638955,0.03952,8.039466472,
0.03954,4.482499543,0.03954,8.039466472,
0.03956,5.94422072,0.03956,7.674036178,
0.03958,7.771372191,0.03958,8.039466472,
0.0396,7.771372191,0.0396,7.674036178,
0.03962,9.233093367,0.03962,7.674036178,
0.03964,8.502232779,0.03964,8.404896766,
0.03966,8.502232779,0.03966,9.135757354,
0.03968,8.867663073,0.03968,7.674036178,
0.0397,8.502232779,0.0397,8.404896766,
0.03972,8.867663073,0.03972,8.404896766,
0.03974,6.309651014,0.03974,8.039466472,
0.03976,8.502232779,0.03976,8.77032706,
0.03978,7.405941897,0.03978,8.039466472,
0.0398,8.136802485,0.0398,8.404896766,
0.03982,6.309651014,0.03982,8.404896766,
0.03984,7.040511602,0.03984,8.404896766,
0.03986,5.578790426,0.03986,8.039466472,
0.03988,4.847929837,0.03988,8.039466472,
0.0399,3.386208661,0.0399,7.674036178,
0.03992,1.924487484,0.03992,7.674036178,
0.03994,0.4627663073,0.03994,8.404896766,
0.03996,-0.268094281,0.03996,8.404896766,
0.03998,-2.82610634,0.03998,8.039466472,
0.04,-3.191536634,0.04,6.577745295,
0.04002,-3.556966929,0.04002,8.039466472,
0.04004,-6.480409282,0.04004,8.039466472,
0.04006,-8.307560753,0.04006,8.404896766,
0.04008,-7.942130459,0.04008,8.404896766,
0.0401,-8.672991047,0.0401,7.674036178,
0.04012,-9.403851635,0.04012,8.039466472,
0.04014,-10.50014252,0.04014,8.039466472,
0.04016,-9.403851635,0.04016,8.404896766,
0.04018,-11.5964334,0.04018,8.039466472,
0.0402,-10.50014252,0.0402,9.501187648,
0.04022,-9.038421341,0.04022,8.77032706,
0.04024,-9.403851635,0.04024,8.404896766,
0.04026,-7.942130459,0.04026,8.404896766,
0.04028,-4.653257811,0.04028,8.039466472,
0.0403,-7.21126987,0.0403,9.135757354,
0.04032,-5.384118399,0.04032,7.674036178,
0.04034,-4.287827517,0.04034,8.404896766,
0.04036,-2.460676046,0.04036,8.77032706,
0.04038,-2.095245752,0.04038,8.039466472,
0.0404,0.4627663073,0.0404,7.308605883,
0.04042,0.09733601316,0.04042,8.404896766,
0.04044,2.289917778,0.04044,8.404896766,
0.04046,3.386208661,0.04046,8.404896766,
0.04048,5.213360132,0.04048,8.039466472,
0.0405,7.040511602,0.0405,7.308605883,
0.04052,6.309651014,0.04052,8.77032706,
0.04054,7.405941897,0.04054,8.039466472,
0.04056,6.309651014,0.04056,8.039466472,
0.04058,6.675081308,0.04058,8.77032706,
0.0406,7.771372191,0.0406,9.501187648,
0.04062,8.136802485,0.04062,8.039466472,
0.04064,7.040511602,0.04064,8.404896766,
0.04066,8.136802485,0.04066,8.039466472,
0.04068,7.771372191,0.04068,8.039466472,
0.0407,7.405941897,0.0407,9.501187648,
0.04072,7.040511602,0.04072,8.404896766,
0.04074,7.405941897,0.04074,7.674036178,
0.04076,7.771372191,0.04076,8.77032706,
0.04078,7.040511602,0.04078,8.404896766,
0.0408,4.482499543,0.0408,8.404896766,
0.04082,3.386208661,0.04082,8.77032706,
0.04084,2.655348072,0.04084,8.404896766,
0.04086,0.8281966015,0.04086,7.674036178,
0.04088,-0.9989548694,0.04088,8.77032706,
0.0409,-2.82610634,0.0409,6.943175589,
0.04092,-3.191536634,0.04092,8.039466472,
0.04094,-3.556966929,0.04094,8.77032706,
0.04096,-5.749548694,0.04096,8.404896766,
0.04098,-6.845839576,0.04098,8.039466472,
0.041,-7.576700164,0.041,8.039466472,
0.04102,-7.21126987,0.04102,8.404896766,
0.04104,-7.942130459,0.04104,8.404896766,
0.04106,-9.038421341,0.04106,8.404896766,
0.04108,-10.50014252,0.04108,8.404896766,
0.0411,-9.403851635,0.0411,8.77032706,
0.04112,-8.672991047,0.04112,8.77032706,
0.04114,-10.50014252,0.04114,8.404896766,
0.04116,-9.769281929,0.04116,8.404896766,
0.04118,-9.403851635,0.04118,8.404896766,
0.0412,-8.307560753,0.0412,7.674036178,
0.04122,-8.672991047,0.04122,8.039466472,
0.04124,-6.480409282,0.04124,9.135757354,
0.04126,-5.018688105,0.04126,8.039466472,
0.04128,-3.922397223,0.04128,8.404896766,
0.0413,-2.460676046,0.0413,7.674036178,
0.04132,-0.9989548694,0.04132,8.404896766,
0.04134,0.4627663073,0.04134,8.039466472,
0.04136,1.193626896,0.04136,8.77032706,
0.04138,2.655348072,0.04138,8.039466472,
0.0414,4.482499543,0.0414,7.674036178,
0.04142,6.309651014,0.04142,8.77032706,
0.04144,6.675081308,0.04144,8.77032706,
0.04146,7.771372191,0.04146,8.77032706,
0.04148,7.405941897,0.04148,8.404896766,
0.0415,5.213360132,0.0415,8.039466472,
0.04152,9.963953956,0.04152,8.404896766,
0.04154,9.233093367,0.04154,8.039466472,
0.04156,8.502232779,0.04156,8.404896766,
0.04158,10.32938425,0.04158,8.404896766,
0.0416,6.309651014,0.0416,8.039466472,
0.04162,7.771372191,0.04162,8.404896766,
0.04164,7.405941897,0.04164,8.039466472,
0.04166,8.136802485,0.04166,8.404896766,
0.04168,8.136802485,0.04168,8.404896766,
0.0417,7.771372191,0.0417,9.135757354,
0.04172,7.405941897,0.04172,8.77032706,
0.04174,4.847929837,0.04174,8.404896766,
0.04176,4.117069249,0.04176,8.039466472,
0.04178,1.55905719,0.04178,8.404896766,
0.0418,0.4627663073,0.0418,9.501187648,
0.04182,-2.095245752,0.04182,8.039466472,
0.04184,-1.364385164,0.04184,8.77032706,
0.04186,-5.018688105,0.04186,8.77032706,
0.04188,-5.384118399,0.04188,8.404896766,
0.0419,-5.384118399,0.0419,8.404896766,
0.04192,-7.576700164,0.04192,8.404896766,
0.04194,-7.21126987,0.04194,8.039466472,
0.04196,-8.672991047,0.04196,8.77032706,
0.04198,-9.769281929,0.04198,7.674036178,
0.042,-8.672991047,0.042,8.039466472,
0.04202,-9.038421341,0.04202,8.77032706,
0.04204,-9.769281929,0.04204,7.674036178,
0.04206,-9.403851635,0.04206,8.77032706,
0.04208,-8.672991047,0.04208,8.404896766,
0.0421,-9.038421341,0.0421,8.039466472,
0.04212,-7.576700164,0.04212,8.404896766,
0.04214,-7.576700164,0.04214,8.404896766,
0.04216,-6.845839576,0.04216,8.404896766,
0.04218,-3.922397223,0.04218,8.404896766,
0.0422,-3.922397223,0.0422,8.77032706,
0.04222,-2.460676046,0.04222,8.404896766,
0.04224,-2.460676046,0.04224,9.135757354,
0.04226,0.8281966015,0.04226,8.404896766,
0.04228,-0.268094281,0.04228,8.77032706,
0.0423,2.289917778,0.0423,8.77032706,
0.04232,2.655348072,0.04232,8.404896766,
0.04234,4.482499543,0.04234,8.77032706,
0.04236,5.94422072,0.04236,9.135757354,
0.04238,6.675081308,0.04238,8.404896766,
0.0424,6.675081308,0.0424,8.404896766,
0.04242,8.136802485,0.04242,8.404896766,
0.04244,4.847929837,0.04244,8.77032706,
0.04246,8.136802485,0.04246,8.77032706,
0.04248,7.771372191,0.04248,8.77032706,
0.0425,6.675081308,0.0425,8.77032706,
0.04252,8.867663073,0.04252,8.404896766,
0.04254,8.136802485,0.04254,8.77032706,
0.04256,7.405941897,0.04256,8.404896766,
0.04258,6.309651014,0.04258,8.039466472,
0.0426,7.771372191,0.0426,8.77032706,
0.04262,7.040511602,0.04262,8.404896766,
0.04264,8.867663073,0.04264,8.77032706,
0.04266,7.040511602,0.04266,8.404896766,
0.04268,4.117069249,0.04268,8.77032706,
0.0427,3.751638955,0.0427,8.77032706,
0.04272,2.655348072,0.04272,8.77032706,
0.04274,0.09733601316,0.04274,8.77032706,
0.04276,-1.364385164,0.04276,8.039466472,
0.04278,-1.729815458,0.04278,8.404896766,
0.0428,-4.287827517,0.0428,8.039466472,
0.04282,-2.095245752,0.04282,8.404896766,
0.04284,-5.018688105,0.04284,8.404896766,
0.04286,-7.21126987,0.04286,8.404896766,
0.04288,-6.845839576,0.04288,8.404896766,
0.0429,-8.307560753,0.0429,9.135757354,
0.04292,-9.038421341,0.04292,8.77032706,
0.04294,-9.038421341,0.04294,8.039466472,
0.04296,-8.672991047,0.04296,8.77032706,
0.04298,-9.769281929,0.04298,8.039466472,
0.043,-8.672991047,0.043,8.404896766,
0.04302,-8.307560753,0.04302,8.77032706,
0.04304,-9.403851635,0.04304,8.77032706,
0.04306,-7.576700164,0.04306,8.404896766,
0.04308,-7.576700164,0.04308,8.77032706,
0.0431,-5.384118399,0.0431,8.404896766,
0.04312,-5.018688105,0.04312,8.404896766,
0.04314,-3.922397223,0.04314,8.77032706,
0.04316,-5.018688105,0.04316,8.404896766,
0.04318,-0.9989548694,0.04318,8.039466472,
0.0432,0.09733601316,0.0432,8.77032706,
0.04322,1.193626896,0.04322,8.039466472,
0.04324,3.020778367,0.04324,8.77032706,
0.04326,3.751638955,0.04326,9.866617943,
0.04328,4.482499543,0.04328,8.77032706,
0.0433,6.309651014,0.0433,8.404896766,
0.04332,7.405941897,0.04332,8.77032706,
0.04334,7.040511602,0.04334,8.404896766,
0.04336,8.502232779,0.04336,8.039466472,
0.04338,7.405941897,0.04338,8.404896766,
0.0434,7.040511602,0.0434,8.404896766,
0.04342,7.771372191,0.04342,8.77032706,
0.04344,7.771372191,0.04344,8.404896766,
0.04346,7.771372191,0.04346,8.039466472,
0.04348,7.405941897,0.04348,8.039466472,
0.0435,8.867663073,0.0435,8.404896766,
0.04352,7.771372191,0.04352,8.404896766,
0.04354,8.136802485,0.04354,8.77032706,
0.04356,8.136802485,0.04356,8.77032706,
0.04358,7.040511602,0.04358,8.404896766,
0.0436,6.675081308,0.0436,8.404896766,
0.04362,2.289917778,0.04362,8.404896766,
0.04364,3.386208661,0.04364,8.404896766,
0.04366,0.8281966015,0.04366,8.404896766,
0.04368,0.4627663073,0.04368,8.77032706,
0.0437,-0.9989548694,0.0437,8.404896766,
0.04372,-1.729815458,0.04372,8.039466472,
0.04374,-2.82610634,0.04374,8.77032706,
0.04376,-5.749548694,0.04376,8.039466472,
0.04378,-6.480409282,0.04378,8.404896766,
0.0438,-7.942130459,0.0438,8.77032706,
0.04382,-9.038421341,0.04382,8.404896766,
0.04384,-9.038421341,0.04384,8.404896766,
0.04386,-8.307560753,0.04386,8.77032706,
0.04388,-10.86557281,0.04388,8.404896766,
0.0439,-10.50014252,0.0439,8.039466472,
0.04392,-9.038421341,0.04392,8.039466472,
0.04394,-8.672991047,0.04394,8.039466472,
0.04396,-8.307560753,0.04396,8.039466472,
0.04398,-8.672991047,0.04398,7.674036178,
0.044,-7.21126987,0.044,8.404896766,
0.04402,-6.845839576,0.04402,8.039466472,
0.04404,-5.749548694,0.04404,7.674036178,
0.04406,-4.653257811,0.04406,8.404896766,
0.04408,-2.82610634,0.04408,8.404896766,
0.0441,-2.460676046,0.0441,8.039466472,
0.04412,-0.6335245752,0.04412,8.77032706,
0.04414,0.8281966015,0.04414,8.039466472,
0.04416,1.55905719,0.04416,8.039466472,
0.04418,3.020778367,0.04418,8.404896766,
0.0442,5.578790426,0.0442,7.674036178,
0.04422,3.386208661,0.04422,7.674036178,
0.04424,6.309651014,0.04424,8.404896766,
0.04426,7.405941897,0.04426,8.039466472,
0.04428,7.405941897,0.04428,7.674036178,
0.0443,7.771372191,0.0443,8.039466472,
0.04432,7.771372191,0.04432,7.674036178,
0.04434,7.771372191,0.04434,8.039466472,
0.04436,7.040511602,0.04436,8.404896766,
0.04438,7.771372191,0.04438,8.404896766,
0.0444,7.771372191,0.0444,8.039466472,
0.04442,7.771372191,0.04442,8.039466472,
0.04444,8.136802485,0.04444,8.039466472,
0.04446,8.136802485,0.04446,8.039466472,
0.04448,8.136802485,0.04448,8.404896766,
0.0445,8.502232779,0.0445,8.404896766,
0.04452,5.94422072,0.04452,7.674036178,
0.04454,5.578790426,0.04454,8.039466472,
0.04456,3.751638955,0.04456,7.674036178,
0.04458,1.55905719,0.04458,7.674036178,
0.0446,-0.6335245752,0.0446,8.039466472,
0.04462,-0.268094281,0.04462,7.674036178,
0.04464,-2.095245752,0.04464,8.039466472,
0.04466,-3.191536634,0.04466,8.404896766,
0.04468,-3.556966929,0.04468,8.039466472,
0.0447,-7.576700164,0.0447,7.674036178,
0.04472,-5.749548694,0.04472,7.308605883,
0.04474,-7.576700164,0.04474,8.404896766,
0.04476,-8.307560753,0.04476,8.039466472,
0.04478,-9.038421341,0.04478,8.404896766,
0.0448,-10.13471222,0.0448,8.039466472,
0.04482,-9.769281929,0.04482,7.308605883,
0.04484,-10.50014252,0.04484,8.404896766,
0.04486,-10.86557281,0.04486,8.039466472,
0.04488,-9.403851635,0.04488,8.404896766,
0.0449,-8.307560753,0.0449,8.404896766,
0.04492,-7.942130459,0.04492,9.135757354,
0.04494,-7.576700164,0.04494,8.039466472,
0.04496,-5.749548694,0.04496,8.404896766,
0.04498,-5.384118399,0.04498,8.404896766,
0.045,-4.287827517,0.045,8.039466472,
0.04502,-1.364385164,0.04502,9.135757354,
0.04504,-1.364385164,0.04504,8.404896766,
0.04506,-0.6335245752,0.04506,8.039466472,
0.04508,3.386208661,0.04508,8.77032706,
0.0451,3.020778367,0.0451,8.039466472,
0.04512,3.751638955,0.04512,6.577745295,
0.04514,6.309651014,0.04514,8.039466472,
0.04516,5.94422072,0.04516,8.039466472,
0.04518,7.040511602,0.04518,8.404896766,
0.0452,7.771372191,0.0452,8.404896766,
0.04522,8.502232779,0.04522,8.039466472,
0.04524,7.040511602,0.04524,8.039466472,
0.04526,5.94422072,0.04526,8.039466472,
0.04528,7.405941897,0.04528,8.404896766,
0.0453,7.771372191,0.0453,8.039466472,
0.04532,7.771372191,0.04532,8.039466472,
0.04534,7.040511602,0.04534,8.404896766,
0.04536,7.040511602,0.04536,8.039466472,
0.04538,9.233093367,0.04538,8.404896766,
0.0454,8.502232779,0.0454,8.039466472,
0.04542,7.040511602,0.04542,8.77032706,
0.04544,5.94422072,0.04544,8.039466472,
0.04546,5.578790426,0.04546,8.404896766,
0.04548,3.751638955,0.04548,8.039466472,
0.0455,2.655348072,0.0455,8.77032706,
0.04552,1.924487484,0.04552,8.77032706,
0.04554,0.4627663073,0.04554,7.674036178,
0.04556,-2.095245752,0.04556,8.404896766,
0.04558,-1.364385164,0.04558,8.039466472,
0.0456,-5.018688105,0.0456,7.674036178,
0.04562,-4.287827517,0.04562,7.674036178,
0.04564,-5.384118399,0.04564,8.404896766,
0.04566,-7.576700164,0.04566,8.039466472,
0.04568,-9.403851635,0.04568,8.404896766,
0.0457,-8.307560753,0.0457,8.404896766,
0.04572,-9.769281929,0.04572,7.674036178,
0.04574,-9.403851635,0.04574,8.404896766,
0.04576,-9.038421341,0.04576,8.404896766,
0.04578,-10.13471222,0.04578,8.039466472,
0.0458,-9.038421341,0.0458,8.77032706,
0.04582,-10.13471222,0.04582,7.674036178,
0.04584,-9.769281929,0.04584,9.135757354,
0.04586,-8.307560753,0.04586,8.039466472,
0.04588,-8.307560753,0.04588,7.674036178,
0.0459,-6.480409282,0.0459,8.77032706,
0.04592,-5.384118399,0.04592,7.674036178,
0.04594,-7.21126987,0.04594,8.039466472,
0.04596,-2.82610634,0.04596,8.77032706,
0.04598,-0.9989548694,0.04598,8.404896766,
0.046,-0.268094281,0.046,8.039466472,
0.04602,0.8281966015,0.04602,9.501187648,
0.04604,2.655348072,0.04604,8.039466472,
0.04606,3.751638955,0.04606,8.404896766,
0.04608,4.847929837,0.04608,8.77032706,
0.0461,4.117069249,0.0461,8.77032706,
0.04612,7.040511602,0.04612,8.039466472,
0.04614,8.867663073,0.04614,8.404896766,
0.04616,7.040511602,0.04616,8.404896766,
0.04618,7.040511602,0.04618,8.039466472,
0.0462,8.136802485,0.0462,8.77032706,
0.04622,7.040511602,0.04622,7.674036178,
0.04624,6.675081308,0.04624,8.404896766,
0.04626,7.771372191,0.04626,8.77032706,
0.04628,7.771372191,0.04628,8.77032706,
0.0463,7.405941897,0.0463,7.674036178,
0.04632,7.405941897,0.04632,8.77032706,
0.04634,5.94422072,0.04634,8.404896766,
0.04636,5.578790426,0.04636,8.039466472,
0.04638,7.405941897,0.04638,8.77032706,
0.0464,5.578790426,0.0464,8.404896766,
0.04642,4.117069249,0.04642,8.404896766,
0.04644,1.924487484,0.04644,8.039466472,
0.04646,1.55905719,0.04646,8.404896766,
0.04648,-0.268094281,0.04648,8.77032706,
0.0465,-1.364385164,0.0465,7.674036178,
0.04652,-2.460676046,0.04652,8.404896766,
0.04654,-3.922397223,0.04654,8.404896766,
0.04656,-5.018688105,0.04656,8.404896766,
0.04658,-6.114978988,0.04658,8.77032706,
0.0466,-7.576700164,0.0466,8.404896766,
0.04662,-8.307560753,0.04662,8.039466472,
0.04664,-8.672991047,0.04664,8.404896766,
0.04666,-9.038421341,0.04666,8.039466472,
0.04668,-9.769281929,0.04668,8.404896766,
0.0467,-9.403851635,0.0467,8.404896766,
0.04672,-8.672991047,0.04672,8.039466472,
0.04674,-9.769281929,0.04674,8.77032706,
0.04676,-9.403851635,0.04676,8.039466472,
0.04678,-7.942130459,0.04678,8.404896766,
0.0468,-7.576700164,0.0468,8.404896766,
0.04682,-6.480409282,0.04682,8.039466472,
0.04684,-4.287827517,0.04684,8.404896766,
0.04686,-3.191536634,0.04686,8.404896766,
0.04688,-3.922397223,0.04688,7.674036178,
0.0469,-1.729815458,0.0469,8.039466472,
0.04692,-0.268094281,0.04692,8.039466472,
0.04694,2.289917778,0.04694,8.039466472,
0.04696,2.655348072,0.04696,8.404896766,
0.04698,5.578790426,0.04698,8.039466472,
0.047,5.213360132,0.047,8.039466472,
0.04702,5.94422072,0.04702,8.404896766,
0.04704,7.405941897,0.04704,8.039466472,
0.04706,7.405941897,0.04706,8.039466472,
0.04708,7.771372191,0.04708,8.039466472,
0.0471,9.233093367,0.0471,9.135757354,
0.04712,8.136802485,0.04712,7.674036178,
0.04714,7.771372191,0.04714,8.77032706,
0.04716,7.405941897,0.04716,8.404896766,
0.04718,8.136802485,0.04718,8.039466472,
0.0472,8.867663073,0.0472,8.77032706,
0.04722,7.771372191,0.04722,8.404896766,
0.04724,7.405941897,0.04724,7.674036178,
0.04726,8.502232779,0.04726,8.404896766,
0.04728,8.867663073,0.04728,8.404896766,
0.0473,7.771372191,0.0473,8.039466472,
0.04732,6.675081308,0.04732,8.404896766,
0.04734,1.924487484,0.04734,8.039466472,
0.04736,4.117069249,0.04736,7.674036178,
0.04738,3.386208661,0.04738,8.404896766,
0.0474,1.193626896,0.0474,8.404896766,
0.04742,-0.268094281,0.04742,7.674036178,
0.04744,-0.6335245752,0.04744,8.77032706,
0.04746,-3.556966929,0.04746,8.039466472,
0.04748,-4.653257811,0.04748,7.308605883,
0.0475,-5.018688105,0.0475,8.404896766,
0.04752,-5.018688105,0.04752,8.404896766,
0.04754,-4.653257811,0.04754,7.674036178,
0.04756,-7.942130459,0.04756,8.404896766,
0.04758,-8.672991047,0.04758,8.404896766,
0.0476,-9.403851635,0.0476,7.674036178,
0.04762,-9.769281929,0.04762,8.039466472,
0.04764,-10.50014252,0.04764,8.404896766,
0.04766,-9.769281929,0.04766,8.039466472,
0.04768,-8.307560753,0.04768,8.039466472,
0.0477,-8.672991047,0.0477,8.039466472,
0.04772,-8.672991047,0.04772,8.039466472,
0.04774,-7.942130459,0.04774,8.404896766,
0.04776,-6.845839576,0.04776,8.77032706,
0.04778,-5.384118399,0.04778,8.039466472,
0.0478,-3.556966929,0.0478,8.039466472,
0.04782,-3.191536634,0.04782,8.039466472,
0.04784,-2.095245752,0.04784,8.039466472,
0.04786,-0.9989548694,0.04786,8.404896766,
0.04788,1.55905719,0.04788,8.404896766,
0.0479,2.655348072,0.0479,7.674036178,
0.04792,4.847929837,0.04792,8.039466472,
0.04794,5.94422072,0.04794,8.039466472,
0.04796,6.309651014,0.04796,7.674036178,
0.04798,7.040511602,0.04798,8.404896766,
0.048,10.32938425,0.048,8.404896766,
0.04802,7.771372191,0.04802,8.039466472,
0.04804,7.405941897,0.04804,8.404896766,
0.04806,10.69481454,0.04806,8.404896766,
0.04808,6.675081308,0.04808,7.674036178,
0.0481,7.405941897,0.0481,8.77032706,
0.04812,10.69481454,0.04812,8.404896766,
0.04814,8.136802485,0.04814,7.674036178,
0.04816,8.867663073,0.04816,8.77032706,
0.04818,7.405941897,0.04818,8.77032706,
0.0482,8.502232779,0.0482,7.674036178,
0.04822,8.502232779,0.04822,8.77032706,
0.04824,8.136802485,0.04824,8.039466472,
0.04826,5.94422072,0.04826,7.674036178,
0.04828,3.751638955,0.04828,8.039466472,
0.0483,3.386208661,0.0483,8.039466472,
0.04832,1.924487484,0.04832,8.039466472,
0.04834,-0.268094281,0.04834,8.039466472,
0.04836,-2.460676046,0.04836,8.404896766,
0.04838,-2.82610634,0.04838,8.039466472,
0.0484,-3.191536634,0.0484,8.404896766,
0.04842,-4.653257811,0.04842,8.039466472,
0.04844,-6.480409282,0.04844,7.674036178,
0.04846,-6.114978988,0.04846,8.404896766,
0.04848,-7.21126987,0.04848,8.77032706,
0.0485,-9.038421341,0.0485,8.404896766,
0.04852,-8.307560753,0.04852,8.404896766,
0.04854,-9.403851635,0.04854,8.039466472,
0.04856,-10.13471222,0.04856,8.039466472,
0.04858,-8.307560753,0.04858,8.404896766,
0.0486,-8.307560753,0.0486,8.404896766,
0.04862,-9.038421341,0.04862,7.674036178,
0.04864,-7.21126987,0.04864,8.039466472,
0.04866,-10.13471222,0.04866,8.404896766,
0.04868,-7.576700164,0.04868,9.135757354,
0.0487,-6.845839576,0.0487,8.039466472,
0.04872,-5.749548694,0.04872,8.039466472,
0.04874,-3.556966929,0.04874,8.77032706,
0.04876,-3.556966929,0.04876,8.039466472,
0.04878,-0.6335245752,0.04878,8.039466472,
0.0488,1.924487484,0.0488,8.404896766,
0.04882,1.193626896,0.04882,8.039466472,
0.04884,2.655348072,0.04884,8.404896766,
0.04886,3.386208661,0.04886,8.77032706,
0.04888,4.847929837,0.04888,8.404896766,
0.0489,5.578790426,0.0489,8.039466472,
0.04892,7.040511602,0.04892,8.404896766,
0.04894,6.309651014,0.04894,8.77032706,
0.04896,7.405941897,0.04896,8.039466472,
0.04898,7.771372191,0.04898,9.135757354,
0.049,7.771372191,0.049,8.77032706,
0.04902,7.771372191,0.04902,8.039466472,
0.04904,4.482499543,0.04904,8.404896766,
0.04906,6.309651014,0.04906,8.404896766,
0.04908,7.040511602,0.04908,8.404896766,
0.0491,7.771372191,0.0491,8.404896766,
0.04912,7.405941897,0.04912,8.404896766,
0.04914,8.136802485,0.04914,8.039466472,
0.04916,8.136802485,0.04916,8.77032706,
0.04918,6.309651014,0.04918,8.039466472,
0.0492,5.213360132,0.0492,8.039466472,
0.04922,3.020778367,0.04922,8.77032706,
0.04924,3.386208661,0.04924,9.501187648,
0.04926,3.751638955,0.04926,8.404896766,
0.04928,-0.9989548694,0.04928,8.404896766,
0.0493,-0.9989548694,0.0493,8.404896766,
0.04932,-3.191536634,0.04932,8.404896766,
0.04934,-3.922397223,0.04934,8.404896766,
0.04936,-5.018688105,0.04936,8.77032706,
0.04938,-5.749548694,0.04938,8.039466472,
0.0494,-8.672991047,0.0494,8.77032706,
0.04942,-7.942130459,0.04942,8.039466472,
0.04944,-9.403851635,0.04944,8.039466472,
0.04946,-9.403851635,0.04946,8.77032706,
0.04948,-10.50014252,0.04948,8.404896766,
0.0495,-10.86557281,0.0495,8.77032706,
0.04952,-9.769281929,0.04952,8.77032706,
0.04954,-9.769281929,0.04954,9.501187648,
0.04956,-8.307560753,0.04956,8.404896766,
0.04958,-9.769281929,0.04958,8.77032706,
0.0496,-8.307560753,0.0496,8.404896766,
0.04962,-7.576700164,0.04962,8.404896766,
0.04964,-5.384118399,0.04964,6.943175589,
0.04966,-5.384118399,0.04966,8.404896766,
0.04968,-3.922397223,0.04968,7.308605883,
0.0497,-2.82610634,0.0497,8.77032706,
0.04972,-0.9989548694,0.04972,8.404896766,
0.04974,0.8281966015,0.04974,8.404896766,
0.04976,3.020778367,0.04976,9.135757354,
0.04978,3.751638955,0.04978,8.404896766,
0.0498,3.020778367,0.0498,8.039466472,
0.04982,5.578790426,0.04982,9.135757354,
0.04984,5.94422072,0.04984,9.501187648,
0.04986,5.578790426,0.04986,7.674036178,
0.04988,9.233093367,0.04988,9.135757354,
0.0499,7.405941897,0.0499,8.039466472,
0.04992,7.405941897,0.04992,8.039466472,
0.04994,7.771372191,0.04994,7.674036178,
0.04996,7.040511602,0.04996,8.404896766,
0.04998,7.771372191,0.04998,8.77032706,
0.05,8.136802485,0.05,8.77032706,
0.05002,8.502232779,0.05002,8.039466472,
0.05004,8.136802485,0.05004,8.039466472,
0.05006,8.502232779,0.05006,8.77032706,
0.05008,6.309651014,0.05008,8.404896766,
0.0501,7.405941897,0.0501,8.039466472,
0.05012,6.675081308,0.05012,8.77032706,
0.05014,4.847929837,0.05014,9.135757354,
0.05016,2.289917778,0.05016,8.039466472,
0.05018,2.655348072,0.05018,8.77032706,
0.0502,-1.364385164,0.0502,8.039466472,
0.05022,-0.9989548694,0.05022,8.404896766,
0.05024,-1.364385164,0.05024,7.674036178,
0.05026,-3.556966929,0.05026,8.404896766,
0.05028,-4.287827517,0.05028,8.404896766,
0.0503,-5.384118399,0.0503,8.77032706,
0.05032,-6.845839576,0.05032,8.404896766,
0.05034,-9.038421341,0.05034,8.039466472,
0.05036,-7.21126987,0.05036,8.77032706,
0.05038,-10.50014252,0.05038,8.404896766,
0.0504,-9.038421341,0.0504,8.404896766,
0.05042,-9.403851635,0.05042,8.77032706,
0.05044,-9.769281929,0.05044,9.135757354,
0.05046,-9.769281929,0.05046,8.039466472,
0.05048,-9.038421341,0.05048,8.77032706,
0.0505,-9.038421341,0.0505,8.404896766,
0.05052,-9.038421341,0.05052,8.039466472,
0.05054,-6.114978988,0.05054,8.404896766,
0.05056,-7.21126987,0.05056,8.404896766,
0.05058,-5.018688105,0.05058,8.77032706,
0.0506,-4.653257811,0.0506,8.039466472,
0.05062,-3.191536634,0.05062,8.404896766,
0.05064,-0.9989548694,0.05064,8.039466472,
0.05066,1.55905719,0.05066,8.404896766,
0.05068,-0.268094281,0.05068,8.404896766,
0.0507,3.020778367,0.0507,8.404896766,
0.05072,3.751638955,0.05072,8.77032706,
0.05074,5.213360132,0.05074,8.77032706,
0.05076,6.675081308,0.05076,8.77032706,
0.05078,7.040511602,0.05078,8.404896766,
0.0508,7.040511602,0.0508,8.404896766,
0.05082,7.040511602,0.05082,8.77032706,
0.05084,7.771372191,0.05084,8.404896766,
0.05086,7.405941897,0.05086,8.404896766,
0.05088,7.771372191,0.05088,8.404896766,
0.0509,9.598523662,0.0509,8.77032706,
0.05092,8.502232779,0.05092,8.77032706,
0.05094,7.771372191,0.05094,8.77032706,
0.05096,8.867663073,0.05096,9.135757354,
0.05098,7.771372191,0.05098,8.77032706,
0.051,9.233093367,0.051,8.77032706,
0.05102,7.771372191,0.05102,8.404896766,
0.05104,8.136802485,0.05104,8.77032706,
0.05106,5.578790426,0.05106,8.404896766,
0.05108,3.751638955,0.05108,8.039466472,
0.0511,3.020778367,0.0511,8.404896766,
0.05112,1.924487484,0.05112,8.404896766,
0.05114,-2.095245752,0.05114,8.039466472,
0.05116,-1.729815458,0.05116,8.404896766,
0.05118,-2.82610634,0.05118,8.77032706,
0.0512,-3.922397223,0.0512,8.404896766,
0.05122,-4.653257811,0.05122,8.404896766,
0.05124,-5.384118399,0.05124,8.77032706,
0.05126,-6.114978988,0.05126,8.404896766,
0.05128,-7.21126987,0.05128,8.039466472,
0.0513,-7.942130459,0.0513,8.77032706,
0.05132,-9.403851635,0.05132,8.039466472,
0.05134,-9.038421341,0.05134,8.039466472,
0.05136,-7.942130459,0.05136,8.77032706,
0.05138,-9.403851635,0.05138,8.77032706,
0.0514,-9.038421341,0.0514,8.404896766,
0.05142,-8.672991047,0.05142,8.77032706,
0.05144,-9.038421341,0.05144,8.404896766,
0.05146,-7.576700164,0.05146,8.039466472,
0.05148,-7.576700164,0.05148,8.404896766,
0.0515,-6.480409282,0.0515,8.404896766,
0.05152,-4.653257811,0.05152,8.404896766,
0.05154,-3.922397223,0.05154,8.404896766,
0.05156,-2.460676046,0.05156,8.039466472,
0.05158,-0.268094281,0.05158,8.404896766,
0.0516,0.8281966015,0.0516,8.77032706,
0.05162,1.193626896,0.05162,8.039466472,
0.05164,3.020778367,0.05164,8.77032706,
0.05166,3.751638955,0.05166,8.404896766,
0.05168,5.213360132,0.05168,8.404896766,
0.0517,5.578790426,0.0517,8.77032706,
0.05172,6.675081308,0.05172,8.404896766,
0.05174,6.309651014,0.05174,8.404896766,
0.05176,7.771372191,0.05176,8.77032706,
0.05178,8.136802485,0.05178,8.039466472,
0.0518,7.405941897,0.0518,9.135757354,
0.05182,7.405941897,0.05182,8.404896766,
0.05184,8.502232779,0.05184,8.039466472,
0.05186,7.771372191,0.05186,8.039466472,
0.05188,9.233093367,0.05188,9.135757354,
0.0519,6.675081308,0.0519,8.039466472,
0.05192,8.136802485,0.05192,8.039466472,
0.05194,7.771372191,0.05194,8.77032706,
0.05196,9.598523662,0.05196,8.404896766,
0.05198,7.405941897,0.05198,8.404896766,
0.052,5.578790426,0.052,8.77032706,
0.05202,2.655348072,0.05202,8.404896766,
0.05204,3.751638955,0.05204,8.039466472,
0.05206,1.924487484,0.05206,9.135757354,
0.05208,-2.82610634,0.05208,8.77032706,
0.0521,-2.095245752,0.0521,8.039466472,
0.05212,-5.018688105,0.05212,9.135757354,
0.05214,-4.287827517,0.05214,8.404896766,
0.05216,-9.769281929,0.05216,8.039466472,
0.05218,-6.114978988,0.05218,8.77032706,
0.0522,-7.942130459,0.0522,9.501187648,
0.05222,-9.403851635,0.05222,7.674036178,
0.05224,-9.403851635,0.05224,8.039466472,
0.05226,-10.13471222,0.05226,8.039466472,
0.05228,-9.403851635,0.05228,8.77032706,
0.0523,-9.038421341,0.0523,8.77032706,
0.05232,-9.769281929,0.05232,8.404896766,
0.05234,-9.038421341,0.05234,8.039466472,
0.05236,-10.86557281,0.05236,9.135757354,
0.05238,-9.038421341,0.05238,8.404896766,
0.0524,-8.307560753,0.0524,7.674036178,
0.05242,-7.21126987,0.05242,8.77032706,
0.05244,-6.480409282,0.05244,8.039466472,
0.05246,-3.922397223,0.05246,9.135757354,
0.05248,-0.9989548694,0.05248,8.77032706,
0.0525,-0.6335245752,0.0525,8.404896766,
0.05252,-1.729815458,0.05252,8.039466472,
0.05254,0.8281966015,0.05254,8.77032706,
0.05256,1.193626896,0.05256,7.308605883,
0.05258,3.751638955,0.05258,8.039466472,
0.0526,4.847929837,0.0526,8.77032706,
0.05262,5.578790426,0.05262,8.404896766,
0.05264,6.309651014,0.05264,8.039466472,
0.05266,7.405941897,0.05266,8.404896766,
0.05268,7.040511602,0.05268,8.039466472,
0.0527,7.405941897,0.0527,8.039466472,
0.05272,7.405941897,0.05272,9.135757354,
0.05274,7.405941897,0.05274,8.404896766,
0.05276,7.771372191,0.05276,8.77032706,
0.05278,7.771372191,0.05278,9.135757354,
0.0528,8.136802485,0.0528,8.404896766,
0.05282,8.136802485,0.05282,8.404896766,
0.05284,8.502232779,0.05284,8.77032706,
0.05286,7.405941897,0.05286,8.404896766,
0.05288,7.405941897,0.05288,8.404896766,
0.0529,7.405941897,0.0529,8.77032706,
0.05292,5.213360132,0.05292,8.039466472,
0.05294,5.94422072,0.05294,8.039466472,
0.05296,4.117069249,0.05296,7.308605883,
0.05298,0.09733601316,0.05298,8.404896766,
0.053,0.09733601316,0.053,8.039466472,
0.05302,-0.6335245752,0.05302,8.404896766,
0.05304,-2.460676046,0.05304,8.404896766,
0.05306,-4.287827517,0.05306,7.308605883,
0.05308,-5.384118399,0.05308,8.77032706,
0.0531,-7.21126987,0.0531,8.404896766,
0.05312,-7.576700164,0.05312,7.674036178,
0.05314,-8.307560753,0.05314,8.77032706,
0.05316,-9.038421341,0.05316,8.77032706,
0.05318,-9.769281929,0.05318,8.039466472,
0.0532,-9.038421341,0.0532,8.77032706,
0.05322,-10.13471222,0.05322,8.404896766,
0.05324,-9.769281929,0.05324,8.039466472,
0.05326,-9.403851635,0.05326,9.135757354,
0.05328,-9.038421341,0.05328,8.404896766,
0.0533,-10.50014252,0.0533,8.039466472,
0.05332,-7.942130459,0.05332,8.404896766,
0.05334,-8.307560753,0.05334,8.404896766,
0.05336,-6.845839576,0.05336,6.943175589,
0.05338,-6.845839576,0.05338,8.77032706,
0.0534,-4.287827517,0.0534,8.404896766,
0.05342,-3.556966929,0.05342,8.77032706,
0.05344,-1.364385164,0.05344,8.404896766,
0.05346,0.4627663073,0.05346,8.039466472,
0.05348,0.09733601316,0.05348,9.135757354,
0.0535,1.55905719,0.0535,8.404896766,
0.05352,3.386208661,0.05352,8.77032706,
0.05354,5.213360132,0.05354,9.135757354,
0.05356,6.309651014,0.05356,8.404896766,
0.05358,3.751638955,0.05358,8.404896766,
0.0536,7.405941897,0.0536,8.404896766,
0.05362,7.405941897,0.05362,8.404896766,
0.05364,8.136802485,0.05364,8.77032706,
0.05366,8.136802485,0.05366,9.501187648,
0.05368,6.675081308,0.05368,8.404896766,
0.0537,7.771372191,0.0537,8.039466472,
0.05372,7.771372191,0.05372,8.77032706,
0.05374,7.771372191,0.05374,9.135757354,
0.05376,9.233093367,0.05376,8.77032706,
0.05378,9.963953956,0.05378,8.404896766,
0.0538,7.771372191,0.0538,8.404896766,
0.05382,8.502232779,0.05382,7.674036178,
0.05384,7.040511602,0.05384,8.404896766,
0.05386,4.482499543,0.05386,7.674036178,
0.05388,4.847929837,0.05388,8.404896766,
0.0539,2.289917778,0.0539,8.77032706,
0.05392,1.193626896,0.05392,8.77032706,
0.05394,0.09733601316,0.05394,8.039466472,
0.05396,-2.460676046,0.05396,8.039466472,
0.05398,-4.653257811,0.05398,9.135757354,
0.054,-3.556966929,0.054,8.77032706,
0.05402,-5.018688105,0.05402,8.77032706,
0.05404,-6.845839576,0.05404,8.404896766,
0.05406,-7.21126987,0.05406,8.77032706,
0.05408,-9.038421341,0.05408,8.404896766,
0.0541,-9.038421341,0.0541,8.404896766,
0.05412,-8.307560753,0.05412,8.404896766,
0.05414,-9.038421341,0.05414,8.404896766,
0.05416,-10.13471222,0.05416,8.77032706,
0.05418,-7.942130459,0.05418,8.404896766,
0.0542,-9.038421341,0.0542,8.77032706,
0.05422,-9.038421341,0.05422,8.039466472,
0.05424,-8.307560753,0.05424,8.404896766,
0.05426,-8.307560753,0.05426,8.77032706,
0.05428,-6.845839576,0.05428,8.404896766,
0.0543,-5.749548694,0.0543,8.039466472,
0.05432,-4.287827517,0.05432,8.404896766,
0.05434,-3.922397223,0.05434,8.404896766,
0.05436,-1.364385164,0.05436,7.308605883,
0.05438,-2.460676046,0.05438,8.77032706,
0.0544,0.09733601316,0.0544,8.77032706,
0.05442,1.924487484,0.05442,8.039466472,
0.05444,3.386208661,0.05444,8.039466472,
0.05446,3.020778367,0.05446,8.404896766,
0.05448,5.213360132,0.05448,8.039466472,
0.0545,6.675081308,0.0545,8.77032706,
0.05452,6.309651014,0.05452,8.404896766,
0.05454,7.771372191,0.05454,8.404896766,
0.05456,8.502232779,0.05456,8.404896766,
0.05458,7.405941897,0.05458,8.404896766,
0.0546,8.136802485,0.0546,8.039466472,
0.05462,6.309651014,0.05462,8.039466472,
0.05464,7.405941897,0.05464,8.404896766,
0.05466,8.502232779,0.05466,8.77032706,
0.05468,9.598523662,0.05468,8.404896766,
0.0547,7.771372191,0.0547,8.77032706,
0.05472,8.136802485,0.05472,8.039466472,
0.05474,8.502232779,0.05474,8.77032706,
0.05476,6.309651014,0.05476,8.77032706,
0.05478,6.309651014,0.05478,6.943175589,
0.0548,4.847929837,0.0548,8.77032706,
0.05482,3.751638955,0.05482,7.674036178,
0.05484,2.289917778,0.05484,8.404896766,
0.05486,0.09733601316,0.05486,8.77032706,
0.05488,-3.191536634,0.05488,8.404896766,
0.0549,-0.6335245752,0.0549,8.404896766,
0.05492,-2.460676046,0.05492,8.77032706,
0.05494,-4.653257811,0.05494,8.404896766,
0.05496,-5.384118399,0.05496,8.039466472,
0.05498,-7.942130459,0.05498,8.404896766,
0.055,-7.942130459,0.055,8.404896766,
0.05502,-7.942130459,0.05502,8.404896766,
0.05504,-8.307560753,0.05504,9.135757354,
0.05506,-9.769281929,0.05506,8.404896766,
0.05508,-11.23100311,0.05508,8.039466472,
0.0551,-9.403851635,0.0551,8.77032706,
0.05512,-12.32729399,0.05512,8.039466472,
0.05514,-9.038421341,0.05514,8.039466472,
0.05516,-9.038421341,0.05516,8.77032706,
0.05518,-8.307560753,0.05518,8.404896766,
0.0552,-6.114978988,0.0552,8.039466472,
0.05522,-6.845839576,0.05522,8.77032706,
0.05524,-6.845839576,0.05524,8.404896766,
0.05526,-3.556966929,0.05526,8.404896766,
0.05528,-1.729815458,0.05528,8.77032706,
0.0553,-2.460676046,0.0553,8.404896766,
0.05532,-0.9989548694,0.05532,8.77032706,
0.05534,1.193626896,0.05534,7.674036178,
0.05536,1.55905719,0.05536,8.039466472,
0.05538,3.751638955,0.05538,8.039466472,
0.0554,4.847929837,0.0554,8.039466472,
0.05542,6.309651014,0.05542,8.404896766,
0.05544,7.040511602,0.05544,8.039466472,
0.05546,8.867663073,0.05546,7.674036178,
0.05548,8.136802485,0.05548,8.404896766,
0.0555,7.040511602,0.0555,8.404896766,
0.05552,7.405941897,0.05552,7.674036178,
0.05554,8.502232779,0.05554,8.404896766,
0.05556,8.502232779,0.05556,8.404896766,
0.05558,5.94422072,0.05558,8.039466472,
0.0556,7.405941897,0.0556,8.404896766,
0.05562,7.771372191,0.05562,8.039466472,
0.05564,6.675081308,0.05564,7.674036178,
0.05566,7.040511602,0.05566,8.404896766,
0.05568,5.213360132,0.05568,8.404896766,
0.0557,9.233093367,0.0557,7.674036178,
0.05572,7.405941897,0.05572,8.404896766,
0.05574,4.117069249,0.05574,8.404896766,
0.05576,2.655348072,0.05576,8.039466472,
0.05578,1.924487484,0.05578,8.404896766,
0.0558,0.09733601316,0.0558,8.039466472,
0.05582,-2.095245752,0.05582,8.039466472,
0.05584,-2.82610634,0.05584,8.404896766,
0.05586,-3.191536634,0.05586,8.404896766,
0.05588,-4.653257811,0.05588,7.674036178,
0.0559,-6.114978988,0.0559,8.77032706,
0.05592,-8.307560753,0.05592,8.039466472,
0.05594,-7.942130459,0.05594,8.039466472,
0.05596,-8.307560753,0.05596,8.039466472,
0.05598,-7.21126987,0.05598,8.404896766,
0.056,-10.50014252,0.056,8.039466472,
0.05602,-8.672991047,0.05602,8.404896766,
0.05604,-10.50014252,0.05604,8.404896766,
0.05606,-9.038421341,0.05606,7.674036178,
0.05608,-8.307560753,0.05608,9.501187648,
0.0561,-8.672991047,0.0561,8.404896766,
0.05612,-8.307560753,0.05612,7.674036178,
0.05614,-7.942130459,0.05614,8.404896766,
0.05616,-7.21126987,0.05616,7.674036178,
0.05618,-4.287827517,0.05618,7.674036178,
0.0562,-3.922397223,0.0562,8.77032706,
0.05622,-2.095245752,0.05622,8.404896766,
0.05624,-0.9989548694,0.05624,8.039466472,
0.05626,0.8281966015,0.05626,8.404896766,
0.05628,0.4627663073,0.05628,8.039466472,
0.0563,2.655348072,0.0563,8.039466472,
0.05632,2.289917778,0.05632,8.039466472,
0.05634,6.309651014,0.05634,8.404896766,
0.05636,6.675081308,0.05636,8.039466472,
0.05638,6.675081308,0.05638,8.404896766,
0.0564,6.309651014,0.0564,8.039466472,
0.05642,7.040511602,0.05642,7.674036178,
0.05644,8.136802485,0.05644,8.404896766,
0.05646,7.771372191,0.05646,8.404896766,
0.05648,8.136802485,0.05648,8.039466472,
0.0565,8.136802485,0.0565,8.404896766,
0.05652,8.136802485,0.05652,8.039466472,
0.05654,6.309651014,0.05654,8.404896766,
0.05656,8.502232779,0.05656,8.039466472,
0.05658,7.405941897,0.05658,8.404896766,
0.0566,7.405941897,0.0566,8.039466472,
0.05662,8.867663073,0.05662,8.404896766,
0.05664,7.771372191,0.05664,8.404896766,
0.05666,5.213360132,0.05666,8.039466472,
0.05668,4.482499543,0.05668,8.039466472,
0.0567,2.655348072,0.0567,8.039466472,
0.05672,3.020778367,0.05672,8.039466472,
0.05674,0.09733601316,0.05674,8.404896766,
0.05676,-1.729815458,0.05676,8.404896766,
0.05678,-2.82610634,0.05678,8.404896766,
0.0568,-4.653257811,0.0568,8.039466472,
0.05682,-5.384118399,0.05682,8.404896766,
0.05684,-6.845839576,0.05684,8.404896766,
0.05686,-7.21126987,0.05686,8.039466472,
0.05688,-8.307560753,0.05688,8.77032706,
0.0569,-9.038421341,0.0569,8.039466472,
0.05692,-10.13471222,0.05692,8.404896766,
0.05694,-9.403851635,0.05694,8.404896766,
0.05696,-13.05815458,0.05696,8.77032706,
0.05698,-10.50014252,0.05698,8.77032706,
0.057,-10.86557281,0.057,8.77032706,
0.05702,-9.038421341,0.05702,8.77032706,
0.05704,-6.480409282,0.05704,8.039466472,
0.05706,-6.480409282,0.05706,8.039466472,
0.05708,-6.845839576,0.05708,8.039466472,
0.0571,-6.114978988,0.0571,8.404896766,
0.05712,-5.384118399,0.05712,8.404896766,
0.05714,-2.82610634,0.05714,8.404896766,
0.05716,-2.460676046,0.05716,8.404896766,
0.05718,-1.364385164,0.05718,7.674036178,
0.0572,0.8281966015,0.0572,8.404896766,
0.05722,2.289917778,0.05722,9.135757354,
0.05724,3.020778367,0.05724,8.039466472,
0.05726,4.847929837,0.05726,8.404896766,
0.05728,5.94422072,0.05728,9.866617943,
0.0573,6.675081308,0.0573,8.404896766,
0.05732,5.94422072,0.05732,6.943175589,
0.05734,7.771372191,0.05734,8.404896766,
0.05736,8.136802485,0.05736,7.674036178,
0.05738,7.405941897,0.05738,7.674036178,
0.0574,7.771372191,0.0574,8.77032706,
0.05742,7.040511602,0.05742,8.404896766,
0.05744,8.136802485,0.05744,8.039466472,
0.05746,8.136802485,0.05746,8.77032706,
0.05748,7.405941897,0.05748,6.943175589,
0.0575,7.771372191,0.0575,8.404896766,
0.05752,7.771372191,0.05752,8.77032706,
0.05754,7.771372191,0.05754,8.77032706,
0.05756,9.598523662,0.05756,8.404896766,
0.05758,6.309651014,0.05758,10.59747853,
0.0576,4.117069249,0.0576,8.77032706,
0.05762,4.117069249,0.05762,8.404896766,
0.05764,4.117069249,0.05764,8.404896766,
0.05766,1.193626896,0.05766,8.404896766,
0.05768,0.4627663073,0.05768,6.577745295,
0.0577,-2.095245752,0.0577,8.404896766,
0.05772,-3.922397223,0.05772,8.039466472,
0.05774,-4.653257811,0.05774,8.039466472,
0.05776,-5.018688105,0.05776,8.77032706,
0.05778,-7.576700164,0.05778,8.039466472,
0.0578,-6.114978988,0.0578,8.404896766,
0.05782,-7.576700164,0.05782,8.404896766,
0.05784,-9.038421341,0.05784,8.404896766,
0.05786,-8.307560753,0.05786,8.039466472,
0.05788,-9.769281929,0.05788,9.135757354,
0.0579,-11.96186369,0.0579,8.404896766,
0.05792,-10.13471222,0.05792,8.039466472,
0.05794,-9.403851635,0.05794,8.77032706,
0.05796,-10.50014252,0.05796,8.404896766,
0.05798,-8.672991047,0.05798,7.308605883,
0.058,-7.942130459,0.058,8.77032706,
0.05802,-7.576700164,0.05802,8.404896766,
0.05804,-5.384118399,0.05804,8.404896766,
0.05806,-4.287827517,0.05806,8.77032706,
0.05808,-3.191536634,0.05808,8.77032706,
0.0581,0.09733601316,0.0581,8.404896766,
0.05812,-0.268094281,0.05812,8.404896766,
0.05814,0.8281966015,0.05814,8.77032706,
0.05816,1.924487484,0.05816,8.404896766,
0.05818,5.94422072,0.05818,9.866617943,
0.0582,4.482499543,0.0582,8.039466472,
0.05822,8.136802485,0.05822,7.674036178,
0.05824,4.482499543,0.05824,7.674036178,
0.05826,8.136802485,0.05826,8.77032706,
0.05828,7.405941897,0.05828,8.77032706,
0.0583,7.405941897,0.0583,8.404896766,
0.05832,7.405941897,0.05832,8.77032706,
0.05834,8.502232779,0.05834,8.404896766,
0.05836,8.502232779,0.05836,8.039466472,
0.05838,9.598523662,0.05838,8.039466472,
0.0584,7.040511602,0.0584,8.404896766,
0.05842,7.771372191,0.05842,7.674036178,
0.05844,8.136802485,0.05844,8.77032706,
0.05846,8.136802485,0.05846,8.404896766,
0.05848,7.405941897,0.05848,6.212315001,
0.0585,8.136802485,0.0585,8.404896766,
0.05852,6.309651014,0.05852,8.77032706,
0.05854,4.482499543,0.05854,7.674036178,
0.05856,3.386208661,0.05856,8.404896766,
0.05858,1.55905719,0.05858,8.77032706,
0.0586,0.4627663073,0.0586,7.308605883,
0.05862,-0.6335245752,0.05862,8.404896766,
0.05864,-2.095245752,0.05864,7.674036178,
0.05866,-3.191536634,0.05866,7.674036178,
0.05868,-5.384118399,0.05868,9.135757354,
0.0587,-5.749548694,0.0587,8.404896766,
0.05872,-7.21126987,0.05872,7.674036178,
