"A0_accX_x","A0_accX_y","A1_rmsX_x","A1_rmsX_y"
0,3.583497168,0,4.38516353,
2e-05,1.390915403,2e-05,4.38516353,
4e-05,3.948927462,4e-05,4.750593824,
6e-05,2.121775991,6e-05,4.019733236,
8e-05,1.756345697,8e-05,4.38516353,
0.0001,0.2946245204,0.0001,4.38516353,
0.00012,0.6600548145,0.00012,4.38516353,
0.00014,2.85263658,0.00014,4.38516353,
0.00016,-1.167096656,0.00016,4.38516353,
0.00018,2.121775991,0.00018,4.019733236,
0.0002,-1.167096656,0.0002,5.116024118,
0.00022,-2.628817833,0.00022,4.38516353,
0.00024,-0.0708057738,0.00024,4.019733236,
0.00026,-2.263387539,0.00026,4.38516353,
0.00028,-2.628817833,0.00028,4.38516353,
0.0003,-2.263387539,0.0003,4.38516353,
0.00032,-5.552260186,0.00032,4.750593824,
0.00034,-4.09053901,0.00034,4.750593824,
0.00036,-3.359678421,0.00036,4.019733236,
0.00038,-3.359678421,0.00038,4.750593824,
0.0004,-5.552260186,0.0004,4.38516353,
0.00042,-4.09053901,0.00042,4.019733236,
0.00044,-1.167096656,0.00044,4.38516353,
0.00046,-3.359678421,0.00046,4.38516353,
0.00048,-2.994248127,0.00048,4.38516353,
0.0005,-0.8016663621,0.0005,4.750593824,
0.00052,-1.897957245,0.00052,4.019733236,
0.00054,-0.8016663621,0.00054,4.019733236,
0.00056,-1.53252695,0.00056,4.750593824,
0.00058,-0.8016663621,0.00058,4.38516353,
0.0006,-0.436236068,0.0006,4.38516353,
0.00062,0.2946245204,0.00062,4.38516353,
0.00064,-0.0708057738,0.00064,4.019733236,
0.00066,3.583497168,0.00066,3.654302942,
0.00068,1.025485109,0.00068,5.116024118,
0.0007,2.487206285,0.0007,4.38516353,
0.00072,3.583497168,0.00072,4.38516353,
0.00074,3.583497168,0.00074,4.750593824,
0.00076,3.218066874,0.00076,4.019733236,
0.00078,4.314357756,0.00078,4.38516353,
0.0008,3.948927462,0.0008,5.116024118,
0.00082,3.948927462,0.00082,4.019733236,
0.00084,3.948927462,0.00084,4.750593824,
0.00086,3.218066874,0.00086,4.38516353,
0.00088,3.583497168,0.00088,4.38516353,
0.0009,4.314357756,0.0009,4.019733236,
0.00092,2.121775991,0.00092,4.38516353,
0.00094,1.756345697,0.00094,4.019733236,
0.00096,3.218066874,0.00096,4.38516353,
0.00098,2.85263658,0.00098,4.38516353,
0.001,2.121775991,0.001,4.019733236,
0.00102,2.121775991,0.00102,3.654302942,
0.00104,0.2946245204,0.00104,4.38516353,
0.00106,0.2946245204,0.00106,3.654302942,
0.00108,0.2946245204,0.00108,4.019733236,
0.0011,-1.167096656,0.0011,4.750593824,
0.00112,-1.53252695,0.00112,3.654302942,
0.00114,-1.167096656,0.00114,4.019733236,
0.00116,-1.53252695,0.00116,4.019733236,
0.00118,-2.263387539,0.00118,3.654302942,
0.0012,-1.897957245,0.0012,4.019733236,
0.00122,-2.994248127,0.00122,4.38516353,
0.00124,-4.09053901,0.00124,4.38516353,
0.00126,-2.628817833,0.00126,4.38516353,
0.00128,-2.994248127,0.00128,4.019733236,
0.0013,-4.455969304,0.0013,3.654302942,
0.00132,-3.359678421,0.00132,5.116024118,
0.00134,-2.628817833,0.00134,4.019733236,
0.00136,-2.628817833,0.00136,4.019733236,
0.00138,-3.359678421,0.00138,4.38516353,
0.0014,-2.628817833,0.0014,4.38516353,
0.00142,-2.263387539,0.00142,3.288872648,
0.00144,-1.53252695,0.00144,4.38516353,
0.00146,-2.263387539,0.00146,4.38516353,
0.00148,-1.167096656,0.00148,4.019733236,
0.0015,-0.436236068,0.0015,4.750593824,
0.00152,2.487206285,0.00152,5.116024118,
0.00154,-0.0708057738,0.00154,4.019733236,
0.00156,-1.167096656,0.00156,4.019733236,
0.00158,1.390915403,0.00158,4.38516353,
0.0016,1.025485109,0.0016,4.019733236,
0.00162,2.487206285,0.00162,2.923442353,
0.00164,3.583497168,0.00164,4.019733236,
0.00166,1.390915403,0.00166,3.654302942,
0.00168,3.948927462,0.00168,4.38516353,
0.0017,3.948927462,0.0017,4.38516353,
0.00172,2.487206285,0.00172,4.38516353,
0.00174,4.314357756,0.00174,4.38516353,
0.00176,3.948927462,0.00176,4.019733236,
0.00178,3.218066874,0.00178,3.654302942,
0.0018,3.583497168,0.0018,4.38516353,
0.00182,3.583497168,0.00182,5.116024118,
0.00184,3.218066874,0.00184,3.654302942,
0.00186,3.218066874,0.00186,4.019733236,
0.00188,3.218066874,0.00188,4.38516353,
0.0019,2.121775991,0.0019,3.654302942,
0.00192,3.583497168,0.00192,3.654302942,
0.00194,1.756345697,0.00194,4.38516353,
0.00196,1.756345697,0.00196,4.019733236,
0.00198,0.6600548145,0.00198,4.019733236,
0.002,0.2946245204,0.002,4.38516353,
0.00202,-0.436236068,0.00202,4.750593824,
0.00204,-0.8016663621,0.00204,4.38516353,
0.00206,-1.53252695,0.00206,4.38516353,
0.00208,-2.994248127,0.00208,3.654302942,
0.0021,-2.263387539,0.0021,4.38516353,
0.00212,-4.09053901,0.00212,4.019733236,
0.00214,-1.53252695,0.00214,3.288872648,
0.00216,-3.359678421,0.00216,4.750593824,
0.00218,-1.897957245,0.00218,4.750593824,
0.0022,-3.359678421,0.0022,4.019733236,
0.00222,-2.994248127,0.00222,3.654302942,
0.00224,-4.821399598,0.00224,4.38516353,
0.00226,-2.994248127,0.00226,4.019733236,
0.00228,-2.628817833,0.00228,4.38516353,
0.0023,-3.725108716,0.0023,4.38516353,
0.00232,-3.725108716,0.00232,4.750593824,
0.00234,-1.167096656,0.00234,4.019733236,
0.00236,-1.167096656,0.00236,4.38516353,
0.00238,-2.263387539,0.00238,3.654302942,
0.0024,-1.167096656,0.0024,4.019733236,
0.00242,-1.897957245,0.00242,3.654302942,
0.00244,-1.167096656,0.00244,3.654302942,
0.00246,0.2946245204,0.00246,4.019733236,
0.00248,0.6600548145,0.00248,3.654302942,
0.0025,2.487206285,0.0025,4.019733236,
0.00252,1.756345697,0.00252,4.38516353,
0.00254,1.025485109,0.00254,4.019733236,
0.00256,2.121775991,0.00256,4.019733236,
0.00258,3.218066874,0.00258,4.38516353,
0.0026,2.85263658,0.0026,4.750593824,
0.00262,2.487206285,0.00262,4.38516353,
0.00264,2.85263658,0.00264,4.019733236,
0.00266,2.487206285,0.00266,4.38516353,
0.00268,5.410648639,0.00268,4.750593824,
0.0027,3.218066874,0.0027,4.38516353,
0.00272,2.85263658,0.00272,3.654302942,
0.00274,3.218066874,0.00274,4.750593824,
0.00276,2.487206285,0.00276,4.750593824,
0.00278,3.218066874,0.00278,4.019733236,
0.0028,2.85263658,0.0028,4.750593824,
0.00282,2.121775991,0.00282,4.38516353,
0.00284,3.583497168,0.00284,4.019733236,
0.00286,1.390915403,0.00286,4.750593824,
0.00288,1.025485109,0.00288,4.38516353,
0.0029,0.6600548145,0.0029,4.019733236,
0.00292,1.390915403,0.00292,4.750593824,
0.00294,-1.897957245,0.00294,4.38516353,
0.00296,-0.436236068,0.00296,4.019733236,
0.00298,-0.436236068,0.00298,5.481454413,
0.003,-1.53252695,0.003,4.38516353,
0.00302,-1.167096656,0.00302,4.019733236,
0.00304,-4.09053901,0.00304,4.750593824,
0.00306,-3.359678421,0.00306,4.019733236,
0.00308,-2.994248127,0.00308,4.019733236,
0.0031,-2.994248127,0.0031,4.750593824,
0.00312,-3.725108716,0.00312,4.019733236,
0.00314,-1.167096656,0.00314,4.019733236,
0.00316,-1.167096656,0.00316,4.750593824,
0.00318,-4.09053901,0.00318,4.019733236,
0.0032,-4.455969304,0.0032,4.38516353,
0.00322,-4.455969304,0.00322,4.019733236,
0.00324,-2.994248127,0.00324,4.38516353,
0.00326,-3.359678421,0.00326,4.38516353,
0.00328,-2.263387539,0.00328,4.750593824,
0.0033,-2.994248127,0.0033,4.38516353,
0.00332,-1.897957245,0.00332,4.38516353,
0.00334,-2.628817833,0.00334,4.38516353,
0.00336,-1.167096656,0.00336,4.750593824,
0.00338,-0.0708057738,0.00338,4.38516353,
0.0034,-0.436236068,0.0034,4.750593824,
0.00342,1.025485109,0.00342,4.750593824,
0.00344,1.025485109,0.00344,4.38516353,
0.00346,1.025485109,0.00346,4.019733236,
0.00348,1.756345697,0.00348,4.38516353,
0.0035,2.487206285,0.0035,4.38516353,
0.00352,2.487206285,0.00352,4.38516353,
0.00354,3.218066874,0.00354,4.38516353,
0.00356,2.85263658,0.00356,4.019733236,
0.00358,2.487206285,0.00358,4.750593824,
0.0036,2.85263658,0.0036,4.38516353,
0.00362,2.487206285,0.00362,4.019733236,
0.00364,4.314357756,0.00364,4.750593824,
0.00366,3.948927462,0.00366,4.019733236,
0.00368,3.948927462,0.00368,4.019733236,
0.0037,3.218066874,0.0037,4.750593824,
0.00372,1.756345697,0.00372,4.38516353,
0.00374,3.583497168,0.00374,4.38516353,
0.00376,2.487206285,0.00376,4.750593824,
0.00378,1.025485109,0.00378,4.38516353,
0.0038,1.390915403,0.0038,3.654302942,
0.00382,1.756345697,0.00382,4.750593824,
0.00384,0.2946245204,0.00384,4.750593824,
0.00386,0.2946245204,0.00386,4.019733236,
0.00388,2.85263658,0.00388,4.750593824,
0.0039,0.2946245204,0.0039,4.38516353,
0.00392,-0.8016663621,0.00392,3.654302942,
0.00394,-1.167096656,0.00394,5.116024118,
0.00396,-2.263387539,0.00396,4.38516353,
0.00398,-2.263387539,0.00398,4.019733236,
0.004,-2.994248127,0.004,4.750593824,
0.00402,-3.359678421,0.00402,4.019733236,
0.00404,-2.994248127,0.00404,4.019733236,
0.00406,-2.263387539,0.00406,4.38516353,
0.00408,-4.821399598,0.00408,4.38516353,
0.0041,-3.359678421,0.0041,4.019733236,
0.00412,-5.552260186,0.00412,4.019733236,
0.00414,-5.186829892,0.00414,4.750593824,
0.00416,-3.725108716,0.00416,4.38516353,
0.00418,-3.359678421,0.00418,4.38516353,
0.0042,-3.359678421,0.0042,4.750593824,
0.00422,-1.897957245,0.00422,4.019733236,
0.00424,-2.628817833,0.00424,5.116024118,
0.00426,-1.897957245,0.00426,4.38516353,
0.00428,-0.436236068,0.00428,4.019733236,
0.0043,-0.436236068,0.0043,4.019733236,
0.00432,-0.0708057738,0.00432,4.38516353,
0.00434,-0.0708057738,0.00434,3.288872648,
0.00436,0.6600548145,0.00436,4.38516353,
0.00438,0.6600548145,0.00438,4.38516353,
0.0044,1.390915403,0.0044,4.019733236,
0.00442,1.756345697,0.00442,4.750593824,
0.00444,2.487206285,0.00444,5.116024118,
0.00446,4.314357756,0.00446,4.019733236,
0.00448,2.121775991,0.00448,4.750593824,
0.0045,3.583497168,0.0045,4.019733236,
0.00452,2.487206285,0.00452,3.654302942,
0.00454,3.583497168,0.00454,5.116024118,
0.00456,4.314357756,0.00456,4.019733236,
0.00458,2.85263658,0.00458,4.38516353,
0.0046,2.85263658,0.0046,4.38516353,
0.00462,4.314357756,0.00462,4.019733236,
0.00464,2.85263658,0.00464,4.38516353,
0.00466,3.218066874,0.00466,4.38516353,
0.00468,2.85263658,0.00468,4.38516353,
0.0047,2.121775991,0.0047,4.750593824,
0.00472,1.390915403,0.00472,4.750593824,
0.00474,1.390915403,0.00474,3.288872648,
0.00476,1.390915403,0.00476,4.750593824,
0.00478,-0.8016663621,0.00478,4.750593824,
0.0048,-0.8016663621,0.0048,4.38516353,
0.00482,-0.436236068,0.00482,4.38516353,
0.00484,-0.8016663621,0.00484,6.212315001,
0.00486,-0.8016663621,0.00486,4.38516353,
0.00488,-2.263387539,0.00488,4.38516353,
0.0049,-1.167096656,0.0049,4.38516353,
0.00492,-1.897957245,0.00492,4.38516353,
0.00494,-1.167096656,0.00494,2.558012059,
0.00496,-3.359678421,0.00496,4.38516353,
0.00498,-3.359678421,0.00498,4.019733236,
0.005,-2.994248127,0.005,4.38516353,
0.00502,-3.359678421,0.00502,4.38516353,
0.00504,-3.725108716,0.00504,5.481454413,
0.00506,-2.994248127,0.00506,4.750593824,
0.00508,-3.725108716,0.00508,4.38516353,
0.0051,-2.263387539,0.0051,4.38516353,
0.00512,-2.628817833,0.00512,4.019733236,
0.00514,-5.552260186,0.00514,4.750593824,
0.00516,-4.09053901,0.00516,4.019733236,
0.00518,-0.8016663621,0.00518,4.750593824,
0.0052,-1.53252695,0.0052,4.38516353,
0.00522,-0.436236068,0.00522,4.38516353,
0.00524,-0.436236068,0.00524,3.288872648,
0.00526,0.6600548145,0.00526,4.38516353,
0.00528,-1.897957245,0.00528,4.750593824,
0.0053,0.6600548145,0.0053,4.38516353,
0.00532,1.025485109,0.00532,4.38516353,
0.00534,2.121775991,0.00534,5.116024118,
0.00536,1.756345697,0.00536,4.750593824,
0.00538,3.218066874,0.00538,4.750593824,
0.0054,1.756345697,0.0054,4.750593824,
0.00542,2.85263658,0.00542,4.750593824,
0.00544,4.314357756,0.00544,3.654302942,
0.00546,3.218066874,0.00546,4.38516353,
0.00548,3.218066874,0.00548,4.750593824,
0.0055,3.583497168,0.0055,4.38516353,
0.00552,3.948927462,0.00552,4.38516353,
0.00554,4.314357756,0.00554,4.750593824,
0.00556,1.756345697,0.00556,4.38516353,
0.00558,3.218066874,0.00558,4.019733236,
0.0056,3.583497168,0.0056,4.750593824,
0.00562,2.487206285,0.00562,4.38516353,
0.00564,2.487206285,0.00564,5.116024118,
0.00566,1.025485109,0.00566,4.750593824,
0.00568,3.218066874,0.00568,4.38516353,
0.0057,0.6600548145,0.0057,4.750593824,
0.00572,-0.0708057738,0.00572,4.750593824,
0.00574,-1.53252695,0.00574,4.019733236,
0.00576,1.025485109,0.00576,4.019733236,
0.00578,-0.8016663621,0.00578,4.38516353,
0.0058,-1.53252695,0.0058,4.38516353,
0.00582,-2.263387539,0.00582,4.750593824,
0.00584,-2.628817833,0.00584,4.750593824,
0.00586,-4.455969304,0.00586,4.38516353,
0.00588,-2.628817833,0.00588,4.750593824,
0.0059,-4.09053901,0.0059,4.38516353,
0.00592,-4.09053901,0.00592,4.38516353,
0.00594,-3.359678421,0.00594,4.38516353,
0.00596,-1.53252695,0.00596,4.750593824,
0.00598,-3.725108716,0.00598,3.654302942,
0.006,-4.09053901,0.006,4.38516353,
0.00602,-3.725108716,0.00602,4.38516353,
0.00604,-4.09053901,0.00604,4.750593824,
0.00606,-2.628817833,0.00606,4.38516353,
0.00608,-4.455969304,0.00608,4.750593824,
0.0061,-3.359678421,0.0061,4.750593824,
0.00612,-1.897957245,0.00612,4.38516353,
0.00614,-1.167096656,0.00614,5.116024118,
0.00616,-1.167096656,0.00616,4.38516353,
0.00618,-0.8016663621,0.00618,4.019733236,
0.0062,0.2946245204,0.0062,5.116024118,
0.00622,-1.897957245,0.00622,4.38516353,
0.00624,1.025485109,0.00624,4.38516353,
0.00626,-0.436236068,0.00626,4.750593824,
0.00628,2.121775991,0.00628,4.38516353,
0.0063,1.756345697,0.0063,4.019733236,
0.00632,3.583497168,0.00632,4.750593824,
0.00634,2.85263658,0.00634,4.750593824,
0.00636,4.314357756,0.00636,4.38516353,
0.00638,2.85263658,0.00638,4.750593824,
0.0064,3.218066874,0.0064,4.38516353,
0.00642,3.583497168,0.00642,4.019733236,
0.00644,3.218066874,0.00644,4.019733236,
0.00646,2.85263658,0.00646,4.750593824,
0.00648,2.85263658,0.00648,4.38516353,
0.0065,2.121775991,0.0065,4.019733236,
0.00652,3.218066874,0.00652,4.38516353,
0.00654,3.948927462,0.00654,4.38516353,
0.00656,2.85263658,0.00656,4.019733236,
0.00658,2.487206285,0.00658,4.750593824,
0.0066,2.121775991,0.0066,4.019733236,
0.00662,1.390915403,0.00662,4.019733236,
0.00664,2.121775991,0.00664,4.750593824,
0.00666,1.390915403,0.00666,4.019733236,
0.00668,0.2946245204,0.00668,4.019733236,
0.0067,-0.0708057738,0.0067,4.019733236,
0.00672,-0.8016663621,0.00672,4.38516353,
0.00674,-0.436236068,0.00674,3.654302942,
0.00676,-0.0708057738,0.00676,4.750593824,
0.00678,-1.53252695,0.00678,4.019733236,
0.0068,-3.359678421,0.0068,4.019733236,
0.00682,-2.628817833,0.00682,4.38516353,
0.00684,0.6600548145,0.00684,4.750593824,
0.00686,-3.725108716,0.00686,4.019733236,
0.00688,-2.263387539,0.00688,4.750593824,
0.0069,-3.359678421,0.0069,4.019733236,
0.00692,-3.359678421,0.00692,4.019733236,
0.00694,-3.725108716,0.00694,4.38516353,
0.00696,-2.263387539,0.00696,4.38516353,
0.00698,-3.359678421,0.00698,3.654302942,
0.007,-2.628817833,0.007,4.38516353,
0.00702,-1.897957245,0.00702,4.38516353,
0.00704,-1.53252695,0.00704,4.019733236,
0.00706,-2.263387539,0.00706,3.654302942,
0.00708,-2.263387539,0.00708,4.019733236,
0.0071,-1.167096656,0.0071,4.38516353,
0.00712,-0.8016663621,0.00712,4.38516353,
0.00714,-0.436236068,0.00714,4.38516353,
0.00716,1.390915403,0.00716,3.288872648,
0.00718,0.6600548145,0.00718,4.38516353,
0.0072,0.6600548145,0.0072,4.019733236,
0.00722,2.487206285,0.00722,3.654302942,
0.00724,2.85263658,0.00724,4.019733236,
0.00726,2.121775991,0.00726,4.019733236,
0.00728,2.487206285,0.00728,3.654302942,
0.0073,3.583497168,0.0073,4.38516353,
0.00732,4.314357756,0.00732,4.019733236,
0.00734,3.948927462,0.00734,3.654302942,
0.00736,2.85263658,0.00736,4.019733236,
0.00738,4.67978805,0.00738,4.38516353,
0.0074,3.583497168,0.0074,4.38516353,
0.00742,4.314357756,0.00742,4.38516353,
0.00744,3.583497168,0.00744,4.38516353,
0.00746,3.583497168,0.00746,4.019733236,
0.00748,3.583497168,0.00748,4.38516353,
0.0075,4.314357756,0.0075,4.019733236,
0.00752,2.121775991,0.00752,3.654302942,
0.00754,2.121775991,0.00754,4.38516353,
0.00756,2.121775991,0.00756,5.116024118,
0.00758,1.025485109,0.00758,4.019733236,
0.0076,0.6600548145,0.0076,4.38516353,
0.00762,-0.436236068,0.00762,4.38516353,
0.00764,-1.167096656,0.00764,3.654302942,
0.00766,0.2946245204,0.00766,4.750593824,
0.00768,-1.53252695,0.00768,4.750593824,
0.0077,-3.359678421,0.0077,3.654302942,
0.00772,-1.53252695,0.00772,4.019733236,
0.00774,-2.994248127,0.00774,4.019733236,
0.00776,-3.725108716,0.00776,3.288872648,
0.00778,-2.263387539,0.00778,4.38516353,
0.0078,-0.0708057738,0.0078,4.38516353,
0.00782,-2.628817833,0.00782,4.019733236,
0.00784,-4.455969304,0.00784,4.38516353,
0.00786,-3.725108716,0.00786,5.481454413,
0.00788,-4.09053901,0.00788,4.019733236,
0.0079,-3.359678421,0.0079,4.38516353,
0.00792,-3.359678421,0.00792,4.019733236,
0.00794,-2.994248127,0.00794,3.654302942,
0.00796,-1.53252695,0.00796,3.654302942,
0.00798,-2.263387539,0.00798,4.38516353,
0.008,-3.359678421,0.008,3.654302942,
0.00802,1.025485109,0.00802,4.38516353,
0.00804,-0.8016663621,0.00804,4.38516353,
0.00806,-0.0708057738,0.00806,4.019733236,
0.00808,1.025485109,0.00808,4.38516353,
0.0081,0.6600548145,0.0081,4.38516353,
0.00812,0.6600548145,0.00812,4.019733236,
0.00814,2.85263658,0.00814,4.38516353,
0.00816,2.121775991,0.00816,3.654302942,
0.00818,1.756345697,0.00818,3.654302942,
0.0082,3.218066874,0.0082,4.750593824,
0.00822,4.314357756,0.00822,3.654302942,
0.00824,3.218066874,0.00824,3.654302942,
0.00826,3.948927462,0.00826,4.750593824,
0.00828,3.583497168,0.00828,4.019733236,
0.0083,4.67978805,0.0083,4.019733236,
0.00832,3.583497168,0.00832,4.750593824,
0.00834,3.948927462,0.00834,4.38516353,
0.00836,3.948927462,0.00836,5.116024118,
0.00838,5.410648639,0.00838,4.38516353,
0.0084,1.756345697,0.0084,4.38516353,
0.00842,2.487206285,0.00842,3.654302942,
0.00844,2.121775991,0.00844,4.750593824,
0.00846,2.487206285,0.00846,4.019733236,
0.00848,3.583497168,0.00848,3.654302942,
0.0085,1.390915403,0.0085,4.38516353,
0.00852,-0.436236068,0.00852,4.019733236,
0.00854,1.025485109,0.00854,4.019733236,
0.00856,-0.0708057738,0.00856,4.750593824,
0.00858,-2.263387539,0.00858,3.654302942,
0.0086,-2.628817833,0.0086,4.750593824,
0.00862,-2.263387539,0.00862,4.750593824,
0.00864,-2.628817833,0.00864,4.38516353,
0.00866,-2.994248127,0.00866,4.38516353,
0.00868,-2.994248127,0.00868,4.019733236,
0.0087,-2.994248127,0.0087,4.750593824,
0.00872,-4.09053901,0.00872,4.019733236,
0.00874,-3.725108716,0.00874,4.019733236,
0.00876,-2.994248127,0.00876,5.116024118,
0.00878,-2.994248127,0.00878,4.019733236,
0.0088,-4.821399598,0.0088,4.019733236,
0.00882,-2.628817833,0.00882,4.38516353,
0.00884,-4.821399598,0.00884,4.019733236,
0.00886,-2.628817833,0.00886,4.750593824,
0.00888,-0.436236068,0.00888,5.116024118,
0.0089,-1.167096656,0.0089,4.019733236,
0.00892,-2.263387539,0.00892,4.019733236,
0.00894,-1.53252695,0.00894,4.750593824,
0.00896,-1.53252695,0.00896,4.019733236,
0.00898,-0.436236068,0.00898,3.654302942,
0.009,-0.0708057738,0.009,4.750593824,
0.00902,0.2946245204,0.00902,4.38516353,
0.00904,2.121775991,0.00904,4.38516353,
0.00906,1.390915403,0.00906,4.750593824,
0.00908,0.6600548145,0.00908,4.019733236,
0.0091,2.487206285,0.0091,4.019733236,
0.00912,2.85263658,0.00912,4.38516353,
0.00914,2.85263658,0.00914,4.019733236,
0.00916,2.487206285,0.00916,4.019733236,
0.00918,5.410648639,0.00918,4.750593824,
0.0092,2.487206285,0.0092,4.38516353,
0.00922,3.583497168,0.00922,4.019733236,
0.00924,3.948927462,0.00924,4.750593824,
0.00926,3.948927462,0.00926,4.019733236,
0.00928,4.67978805,0.00928,4.019733236,
0.0093,2.85263658,0.0093,4.750593824,
0.00932,3.948927462,0.00932,4.750593824,
0.00934,2.85263658,0.00934,4.019733236,
0.00936,2.85263658,0.00936,5.116024118,
0.00938,-0.0708057738,0.00938,4.38516353,
0.0094,1.756345697,0.0094,4.019733236,
0.00942,1.025485109,0.00942,5.116024118,
0.00944,0.6600548145,0.00944,4.019733236,
0.00946,-0.436236068,0.00946,4.019733236,
0.00948,-0.8016663621,0.00948,5.116024118,
0.0095,0.2946245204,0.0095,4.38516353,
0.00952,-1.167096656,0.00952,4.019733236,
0.00954,-1.897957245,0.00954,5.116024118,
0.00956,-2.994248127,0.00956,4.38516353,
0.00958,-0.436236068,0.00958,3.654302942,
0.0096,-2.628817833,0.0096,4.750593824,
0.00962,-2.994248127,0.00962,4.38516353,
0.00964,-3.725108716,0.00964,4.38516353,
0.00966,-4.09053901,0.00966,4.38516353,
0.00968,-5.186829892,0.00968,4.750593824,
0.0097,-3.359678421,0.0097,4.019733236,
0.00972,-5.186829892,0.00972,4.750593824,
0.00974,-3.359678421,0.00974,4.38516353,
0.00976,-3.359678421,0.00976,4.019733236,
0.00978,-3.725108716,0.00978,5.116024118,
0.0098,-2.994248127,0.0098,5.116024118,
0.00982,-2.628817833,0.00982,4.019733236,
0.00984,-3.359678421,0.00984,4.38516353,
0.00986,-2.263387539,0.00986,4.38516353,
0.00988,-1.53252695,0.00988,4.019733236,
0.0099,-1.53252695,0.0099,4.750593824,
0.00992,-0.8016663621,0.00992,4.38516353,
0.00994,-0.8016663621,0.00994,4.019733236,
0.00996,0.2946245204,0.00996,5.116024118,
0.00998,1.390915403,0.00998,4.019733236,
0.01,0.6600548145,0.01,4.750593824,
0.01002,2.121775991,0.01002,4.750593824,
0.01004,0.6600548145,0.01004,4.38516353,
0.01006,3.583497168,0.01006,4.019733236,
0.01008,3.218066874,0.01008,4.750593824,
0.0101,2.121775991,0.0101,4.38516353,
0.01012,2.85263658,0.01012,4.38516353,
0.01014,3.948927462,0.01014,4.750593824,
0.01016,2.85263658,0.01016,4.38516353,
0.01018,1.390915403,0.01018,4.019733236,
0.0102,5.776078933,0.0102,4.750593824,
0.01022,2.85263658,0.01022,4.38516353,
0.01024,5.776078933,0.01024,4.019733236,
0.01026,3.218066874,0.01026,4.750593824,
0.01028,2.487206285,0.01028,3.654302942,
0.0103,2.85263658,0.0103,4.38516353,
0.01032,2.121775991,0.01032,4.750593824,
0.01034,0.2946245204,0.01034,4.38516353,
0.01036,1.025485109,0.01036,4.019733236,
0.01038,-0.436236068,0.01038,5.481454413,
0.0104,-0.436236068,0.0104,4.38516353,
0.01042,-0.0708057738,0.01042,4.019733236,
0.01044,-0.436236068,0.01044,4.38516353,
0.01046,-1.167096656,0.01046,4.750593824,
0.01048,-3.725108716,0.01048,2.923442353,
0.0105,-2.628817833,0.0105,4.38516353,
0.01052,-2.263387539,0.01052,4.38516353,
0.01054,-2.628817833,0.01054,4.38516353,
0.01056,-2.628817833,0.01056,4.750593824,
0.01058,-3.725108716,0.01058,6.577745295,
0.0106,-2.628817833,0.0106,4.38516353,
0.01062,-4.821399598,0.01062,4.750593824,
0.01064,-4.821399598,0.01064,4.38516353,
0.01066,-3.359678421,0.01066,4.019733236,
0.01068,-3.359678421,0.01068,3.288872648,
0.0107,-3.359678421,0.0107,4.38516353,
0.01072,-2.628817833,0.01072,4.019733236,
0.01074,-3.359678421,0.01074,4.750593824,
0.01076,-3.725108716,0.01076,4.38516353,
0.01078,-4.09053901,0.01078,5.846884707,
0.0108,-1.167096656,0.0108,4.38516353,
0.01082,-1.167096656,0.01082,4.750593824,
0.01084,-0.8016663621,0.01084,4.38516353,
0.01086,1.025485109,0.01086,4.750593824,
0.01088,-0.8016663621,0.01088,5.481454413,
0.0109,-1.167096656,0.0109,4.38516353,
0.01092,0.6600548145,0.01092,4.38516353,
0.01094,1.025485109,0.01094,4.38516353,
0.01096,2.121775991,0.01096,4.38516353,
0.01098,3.583497168,0.01098,4.019733236,
0.011,2.121775991,0.011,4.38516353,
0.01102,2.85263658,0.01102,4.38516353,
0.01104,3.218066874,0.01104,4.750593824,
0.01106,3.218066874,0.01106,4.750593824,
0.01108,4.314357756,0.01108,5.116024118,
0.0111,3.583497168,0.0111,4.38516353,
0.01112,5.045218345,0.01112,5.116024118,
0.01114,2.85263658,0.01114,4.38516353,
0.01116,3.218066874,0.01116,4.750593824,
0.01118,2.487206285,0.01118,4.750593824,
0.0112,3.218066874,0.0112,4.38516353,
0.01122,1.756345697,0.01122,4.750593824,
0.01124,1.390915403,0.01124,4.38516353,
0.01126,2.487206285,0.01126,4.38516353,
0.01128,0.6600548145,0.01128,4.019733236,
0.0113,0.2946245204,0.0113,4.750593824,
0.01132,0.2946245204,0.01132,4.019733236,
0.01134,-0.436236068,0.01134,4.750593824,
0.01136,-1.167096656,0.01136,4.38516353,
0.01138,0.2946245204,0.01138,4.38516353,
0.0114,-1.897957245,0.0114,4.019733236,
0.01142,-1.897957245,0.01142,4.38516353,
0.01144,-1.897957245,0.01144,4.019733236,
0.01146,-3.359678421,0.01146,4.750593824,
0.01148,-2.994248127,0.01148,4.38516353,
0.0115,-1.897957245,0.0115,4.38516353,
0.01152,-2.628817833,0.01152,4.750593824,
0.01154,-2.263387539,0.01154,4.38516353,
0.01156,-1.167096656,0.01156,4.019733236,
0.01158,-3.359678421,0.01158,4.750593824,
0.0116,-4.09053901,0.0116,4.750593824,
0.01162,-3.359678421,0.01162,4.019733236,
0.01164,-2.628817833,0.01164,4.38516353,
0.01166,-4.455969304,0.01166,4.019733236,
0.01168,-3.359678421,0.01168,4.019733236,
0.0117,-1.167096656,0.0117,4.38516353,
0.01172,-2.628817833,0.01172,4.38516353,
0.01174,-1.53252695,0.01174,4.38516353,
0.01176,-0.8016663621,0.01176,4.019733236,
0.01178,-0.436236068,0.01178,5.481454413,
0.0118,1.390915403,0.0118,4.750593824,
0.01182,-1.53252695,0.01182,4.38516353,
0.01184,2.121775991,0.01184,4.38516353,
0.01186,2.121775991,0.01186,4.019733236,
0.01188,2.121775991,0.01188,4.750593824,
0.0119,1.756345697,0.0119,4.38516353,
0.01192,3.218066874,0.01192,3.654302942,
0.01194,1.756345697,0.01194,4.750593824,
0.01196,2.121775991,0.01196,4.38516353,
0.01198,3.948927462,0.01198,4.019733236,
0.012,1.390915403,0.012,4.38516353,
0.01202,3.583497168,0.01202,4.750593824,
0.01204,4.314357756,0.01204,4.38516353,
0.01206,3.218066874,0.01206,4.750593824,
0.01208,2.487206285,0.01208,4.38516353,
0.0121,3.218066874,0.0121,4.38516353,
0.01212,2.85263658,0.01212,4.38516353,
0.01214,3.583497168,0.01214,4.38516353,
0.01216,2.85263658,0.01216,4.019733236,
0.01218,3.583497168,0.01218,4.019733236,
0.0122,0.2946245204,0.0122,4.019733236,
0.01222,1.390915403,0.01222,4.38516353,
0.01224,-0.0708057738,0.01224,4.019733236,
0.01226,0.6600548145,0.01226,4.38516353,
0.01228,-0.0708057738,0.01228,4.38516353,
0.0123,-0.0708057738,0.0123,4.019733236,
0.01232,0.6600548145,0.01232,4.019733236,
0.01234,-1.167096656,0.01234,4.38516353,
0.01236,-2.994248127,0.01236,4.019733236,
0.01238,-2.263387539,0.01238,3.654302942,
0.0124,-2.628817833,0.0124,4.38516353,
0.01242,-4.455969304,0.01242,3.654302942,
0.01244,-2.994248127,0.01244,4.38516353,
0.01246,-3.359678421,0.01246,4.019733236,
0.01248,-3.725108716,0.01248,3.654302942,
0.0125,-2.994248127,0.0125,4.38516353,
0.01252,-2.994248127,0.01252,4.750593824,
0.01254,-3.725108716,0.01254,4.019733236,
0.01256,-2.263387539,0.01256,4.019733236,
0.01258,-2.628817833,0.01258,4.38516353,
0.0126,-3.359678421,0.0126,4.019733236,
0.01262,-1.897957245,0.01262,4.750593824,
0.01264,-1.167096656,0.01264,4.019733236,
0.01266,-2.263387539,0.01266,4.019733236,
0.01268,-1.53252695,0.01268,4.019733236,
0.0127,-0.436236068,0.0127,4.750593824,
0.01272,-0.436236068,0.01272,3.654302942,
0.01274,-0.0708057738,0.01274,4.38516353,
0.01276,0.6600548145,0.01276,4.019733236,
0.01278,-0.436236068,0.01278,4.019733236,
0.0128,-0.0708057738,0.0128,3.654302942,
0.01282,3.218066874,0.01282,4.750593824,
0.01284,1.390915403,0.01284,4.019733236,
0.01286,2.487206285,0.01286,4.38516353,
0.01288,3.948927462,0.01288,4.019733236,
0.0129,3.583497168,0.0129,4.019733236,
0.01292,4.314357756,0.01292,4.38516353,
0.01294,4.314357756,0.01294,4.019733236,
0.01296,3.583497168,0.01296,3.654302942,
0.01298,3.583497168,0.01298,4.38516353,
0.013,4.314357756,0.013,4.38516353,
0.01302,2.487206285,0.01302,4.019733236,
0.01304,0.2946245204,0.01304,4.38516353,
0.01306,6.141509227,0.01306,4.38516353,
0.01308,2.121775991,0.01308,3.654302942,
0.0131,3.218066874,0.0131,3.654302942,
0.01312,2.85263658,0.01312,4.019733236,
0.01314,0.6600548145,0.01314,3.288872648,
0.01316,0.6600548145,0.01316,4.019733236,
0.01318,1.390915403,0.01318,4.38516353,
0.0132,-0.8016663621,0.0132,4.38516353,
0.01322,-0.436236068,0.01322,4.750593824,
0.01324,-0.8016663621,0.01324,3.654302942,
0.01326,-2.263387539,0.01326,4.019733236,
0.01328,-0.8016663621,0.01328,4.38516353,
0.0133,-1.897957245,0.0133,4.38516353,
0.01332,-2.628817833,0.01332,4.019733236,
0.01334,-1.897957245,0.01334,4.38516353,
0.01336,-2.628817833,0.01336,4.38516353,
0.01338,-3.359678421,0.01338,3.654302942,
0.0134,-3.359678421,0.0134,4.019733236,
0.01342,-2.263387539,0.01342,4.019733236,
0.01344,-3.359678421,0.01344,5.116024118,
0.01346,-2.994248127,0.01346,4.38516353,
0.01348,-2.628817833,0.01348,4.38516353,
0.0135,-3.725108716,0.0135,3.654302942,
0.01352,-2.628817833,0.01352,4.38516353,
0.01354,-2.994248127,0.01354,4.019733236,
0.01356,-2.263387539,0.01356,4.38516353,
0.01358,-0.8016663621,0.01358,5.116024118,
0.0136,-2.263387539,0.0136,4.750593824,
0.01362,-1.897957245,0.01362,4.38516353,
0.01364,-0.0708057738,0.01364,4.38516353,
0.01366,0.2946245204,0.01366,5.116024118,
0.01368,0.6600548145,0.01368,4.019733236,
0.0137,1.025485109,0.0137,4.38516353,
0.01372,1.025485109,0.01372,4.750593824,
0.01374,0.6600548145,0.01374,4.750593824,
0.01376,1.025485109,0.01376,4.019733236,
0.01378,2.487206285,0.01378,5.116024118,
0.0138,2.85263658,0.0138,3.654302942,
0.01382,2.85263658,0.01382,4.019733236,
0.01384,3.218066874,0.01384,4.750593824,
0.01386,3.583497168,0.01386,4.38516353,
0.01388,3.583497168,0.01388,4.019733236,
0.0139,3.583497168,0.0139,6.212315001,
0.01392,6.506939521,0.01392,4.38516353,
0.01394,4.314357756,0.01394,4.38516353,
0.01396,3.218066874,0.01396,4.750593824,
0.01398,2.487206285,0.01398,4.38516353,
0.014,3.218066874,0.014,3.288872648,
0.01402,3.948927462,0.01402,4.750593824,
0.01404,2.121775991,0.01404,4.019733236,
0.01406,3.583497168,0.01406,4.38516353,
0.01408,1.756345697,0.01408,5.116024118,
0.0141,0.6600548145,0.0141,5.116024118,
0.01412,1.756345697,0.01412,4.019733236,
0.01414,0.2946245204,0.01414,4.750593824,
0.01416,-1.167096656,0.01416,4.38516353,
0.01418,1.025485109,0.01418,4.019733236,
0.0142,-0.8016663621,0.0142,4.019733236,
0.01422,-2.263387539,0.01422,4.750593824,
0.01424,-1.897957245,0.01424,4.019733236,
0.01426,-2.263387539,0.01426,5.116024118,
0.01428,-2.628817833,0.01428,4.38516353,
0.0143,-5.917690481,0.0143,4.019733236,
0.01432,-4.821399598,0.01432,4.38516353,
0.01434,-2.994248127,0.01434,4.38516353,
0.01436,-4.09053901,0.01436,4.019733236,
0.01438,-4.455969304,0.01438,4.38516353,
0.0144,-3.725108716,0.0144,4.38516353,
0.01442,-2.994248127,0.01442,4.019733236,
0.01444,-4.455969304,0.01444,4.38516353,
0.01446,-5.186829892,0.01446,4.019733236,
0.01448,-2.263387539,0.01448,4.019733236,
0.0145,-1.897957245,0.0145,4.38516353,
0.01452,-3.359678421,0.01452,3.654302942,
0.01454,-0.8016663621,0.01454,4.019733236,
0.01456,-0.8016663621,0.01456,4.38516353,
0.01458,-0.436236068,0.01458,4.38516353,
0.0146,-0.0708057738,0.0146,4.019733236,
0.01462,-0.0708057738,0.01462,4.38516353,
0.01464,1.025485109,0.01464,4.019733236,
0.01466,1.025485109,0.01466,4.019733236,
0.01468,2.121775991,0.01468,4.38516353,
0.0147,0.6600548145,0.0147,4.019733236,
0.01472,-0.0708057738,0.01472,4.38516353,
0.01474,2.487206285,0.01474,4.750593824,
0.01476,3.218066874,0.01476,4.38516353,
0.01478,2.85263658,0.01478,4.019733236,
0.0148,4.314357756,0.0148,4.750593824,
0.01482,1.756345697,0.01482,4.38516353,
0.01484,3.218066874,0.01484,3.654302942,
0.01486,4.314357756,0.01486,4.38516353,
0.01488,3.218066874,0.01488,4.019733236,
0.0149,2.85263658,0.0149,4.019733236,
0.01492,5.410648639,0.01492,4.38516353,
0.01494,2.85263658,0.01494,4.019733236,
0.01496,2.121775991,0.01496,3.288872648,
0.01498,2.121775991,0.01498,4.750593824,
0.015,2.121775991,0.015,4.750593824,
0.01502,1.025485109,0.01502,4.38516353,
0.01504,0.6600548145,0.01504,4.750593824,
0.01506,-0.436236068,0.01506,4.38516353,
0.01508,1.025485109,0.01508,4.38516353,
0.0151,-0.8016663621,0.0151,4.750593824,
0.01512,-2.628817833,0.01512,4.38516353,
0.01514,-3.359678421,0.01514,4.38516353,
0.01516,-2.263387539,0.01516,4.750593824,
0.01518,-2.263387539,0.01518,4.38516353,
0.0152,-3.359678421,0.0152,4.019733236,
0.01522,-4.821399598,0.01522,4.38516353,
0.01524,-3.359678421,0.01524,4.38516353,
0.01526,-4.455969304,0.01526,4.38516353,
0.01528,-3.359678421,0.01528,4.750593824,
0.0153,-4.09053901,0.0153,4.38516353,
0.01532,-0.8016663621,0.01532,4.019733236,
0.01534,-3.359678421,0.01534,4.38516353,
0.01536,-4.821399598,0.01536,3.654302942,
0.01538,-3.725108716,0.01538,4.019733236,
0.0154,-2.628817833,0.0154,4.750593824,
0.01542,-2.263387539,0.01542,4.38516353,
0.01544,-2.263387539,0.01544,4.019733236,
0.01546,-3.359678421,0.01546,4.38516353,
0.01548,-1.167096656,0.01548,4.38516353,
0.0155,-0.8016663621,0.0155,4.019733236,
0.01552,0.6600548145,0.01552,4.750593824,
0.01554,-0.436236068,0.01554,4.019733236,
0.01556,0.6600548145,0.01556,4.38516353,
0.01558,-0.0708057738,0.01558,4.750593824,
0.0156,1.025485109,0.0156,4.38516353,
0.01562,2.487206285,0.01562,4.019733236,
0.01564,3.218066874,0.01564,5.481454413,
0.01566,2.487206285,0.01566,4.38516353,
0.01568,2.85263658,0.01568,4.019733236,
0.0157,3.218066874,0.0157,4.750593824,
0.01572,3.583497168,0.01572,4.38516353,
0.01574,3.218066874,0.01574,4.019733236,
0.01576,4.314357756,0.01576,4.750593824,
0.01578,5.410648639,0.01578,4.38516353,
0.0158,2.487206285,0.0158,4.019733236,
0.01582,0.2946245204,0.01582,5.481454413,
0.01584,3.583497168,0.01584,4.019733236,
0.01586,2.85263658,0.01586,4.38516353,
0.01588,2.487206285,0.01588,4.750593824,
0.0159,2.85263658,0.0159,4.38516353,
0.01592,0.2946245204,0.01592,3.288872648,
0.01594,1.025485109,0.01594,4.750593824,
0.01596,1.390915403,0.01596,4.750593824,
0.01598,-0.0708057738,0.01598,4.019733236,
0.016,-0.0708057738,0.016,4.38516353,
0.01602,-0.0708057738,0.01602,4.750593824,
0.01604,-1.167096656,0.01604,4.38516353,
0.01606,-2.263387539,0.01606,4.38516353,
0.01608,-2.628817833,0.01608,4.38516353,
0.0161,-0.8016663621,0.0161,4.019733236,
0.01612,-2.628817833,0.01612,4.38516353,
0.01614,-5.186829892,0.01614,4.38516353,
0.01616,-2.628817833,0.01616,4.019733236,
0.01618,-2.628817833,0.01618,4.750593824,
0.0162,-4.821399598,0.0162,4.019733236,
0.01622,-4.09053901,0.01622,3.654302942,
0.01624,-3.359678421,0.01624,4.019733236,
0.01626,-4.455969304,0.01626,4.38516353,
0.01628,-2.994248127,0.01628,4.38516353,
0.0163,-4.821399598,0.0163,4.750593824,
0.01632,-5.186829892,0.01632,5.116024118,
0.01634,-1.897957245,0.01634,4.38516353,
0.01636,-2.263387539,0.01636,4.750593824,
0.01638,-1.53252695,0.01638,5.116024118,
0.0164,-1.167096656,0.0164,4.38516353,
0.01642,1.025485109,0.01642,2.923442353,
0.01644,-1.167096656,0.01644,4.750593824,
0.01646,0.6600548145,0.01646,4.38516353,
0.01648,0.6600548145,0.01648,4.750593824,
0.0165,-0.0708057738,0.0165,4.750593824,
0.01652,1.025485109,0.01652,4.750593824,
0.01654,2.121775991,0.01654,4.750593824,
0.01656,3.583497168,0.01656,4.750593824,
0.01658,3.583497168,0.01658,4.38516353,
0.0166,3.948927462,0.0166,4.38516353,
0.01662,3.218066874,0.01662,4.38516353,
0.01664,3.948927462,0.01664,4.019733236,
0.01666,3.948927462,0.01666,4.750593824,
0.01668,3.948927462,0.01668,4.38516353,
0.0167,3.583497168,0.0167,4.38516353,
0.01672,4.314357756,0.01672,5.481454413,
0.01674,3.583497168,0.01674,4.38516353,
0.01676,3.218066874,0.01676,4.38516353,
0.01678,2.85263658,0.01678,4.38516353,
0.0168,2.85263658,0.0168,4.750593824,
0.01682,4.314357756,0.01682,2.923442353,
0.01684,2.85263658,0.01684,4.750593824,
0.01686,2.121775991,0.01686,4.38516353,
0.01688,4.67978805,0.01688,4.019733236,
0.0169,1.025485109,0.0169,4.750593824,
0.01692,-0.8016663621,0.01692,5.481454413,
0.01694,0.2946245204,0.01694,4.38516353,
0.01696,1.756345697,0.01696,4.38516353,
0.01698,-1.53252695,0.01698,4.019733236,
0.017,-1.897957245,0.017,4.38516353,
0.01702,-0.8016663621,0.01702,5.116024118,
0.01704,-2.994248127,0.01704,4.38516353,
0.01706,-2.628817833,0.01706,4.38516353,
0.01708,-2.994248127,0.01708,4.38516353,
0.0171,-3.725108716,0.0171,4.750593824,
0.01712,-3.725108716,0.01712,3.654302942,
0.01714,-1.897957245,0.01714,4.750593824,
0.01716,-4.455969304,0.01716,4.38516353,
0.01718,-2.628817833,0.01718,4.019733236,
0.0172,-2.628817833,0.0172,5.116024118,
0.01722,-3.359678421,0.01722,4.750593824,
0.01724,-2.994248127,0.01724,4.38516353,
0.01726,-4.09053901,0.01726,4.750593824,
0.01728,-2.994248127,0.01728,4.38516353,
0.0173,-2.994248127,0.0173,4.38516353,
0.01732,-2.994248127,0.01732,4.750593824,
0.01734,-2.994248127,0.01734,4.38516353,
0.01736,-0.8016663621,0.01736,4.019733236,
0.01738,-0.8016663621,0.01738,4.750593824,
0.0174,-0.8016663621,0.0174,4.38516353,
0.01742,1.390915403,0.01742,4.38516353,
0.01744,1.025485109,0.01744,4.750593824,
0.01746,1.756345697,0.01746,4.38516353,
0.01748,2.121775991,0.01748,4.38516353,
0.0175,2.85263658,0.0175,5.481454413,
0.01752,2.121775991,0.01752,4.019733236,
0.01754,1.756345697,0.01754,4.750593824,
0.01756,2.85263658,0.01756,4.750593824,
0.01758,3.583497168,0.01758,4.750593824,
0.0176,3.583497168,0.0176,4.38516353,
0.01762,3.583497168,0.01762,4.019733236,
0.01764,2.85263658,0.01764,4.38516353,
0.01766,4.314357756,0.01766,4.38516353,
0.01768,3.948927462,0.01768,5.481454413,
0.0177,1.390915403,0.0177,4.38516353,
0.01772,3.583497168,0.01772,4.38516353,
0.01774,2.85263658,0.01774,4.750593824,
0.01776,2.487206285,0.01776,5.116024118,
0.01778,2.121775991,0.01778,4.019733236,
0.0178,1.390915403,0.0178,4.38516353,
0.01782,2.487206285,0.01782,4.750593824,
0.01784,0.2946245204,0.01784,4.38516353,
0.01786,0.6600548145,0.01786,4.750593824,
0.01788,0.2946245204,0.01788,3.654302942,
0.0179,-0.8016663621,0.0179,4.38516353,
0.01792,-1.897957245,0.01792,4.019733236,
0.01794,-1.53252695,0.01794,4.38516353,
0.01796,-1.53252695,0.01796,4.38516353,
0.01798,-2.263387539,0.01798,3.654302942,
0.018,-2.628817833,0.018,4.019733236,
0.01802,-3.359678421,0.01802,4.019733236,
0.01804,-2.994248127,0.01804,4.019733236,
0.01806,-2.994248127,0.01806,4.019733236,
0.01808,-4.455969304,0.01808,4.019733236,
0.0181,-4.09053901,0.0181,4.38516353,
0.01812,-2.994248127,0.01812,4.38516353,
0.01814,-3.725108716,0.01814,4.019733236,
0.01816,-3.359678421,0.01816,3.654302942,
0.01818,-2.628817833,0.01818,4.38516353,
0.0182,-2.994248127,0.0182,4.38516353,
0.01822,-1.167096656,0.01822,4.38516353,
0.01824,-1.53252695,0.01824,4.019733236,
0.01826,-1.53252695,0.01826,4.38516353,
0.01828,-1.53252695,0.01828,4.019733236,
0.0183,-0.436236068,0.0183,4.38516353,
0.01832,-0.436236068,0.01832,4.019733236,
0.01834,0.6600548145,0.01834,4.019733236,
0.01836,1.390915403,0.01836,4.750593824,
0.01838,0.2946245204,0.01838,4.019733236,
0.0184,2.85263658,0.0184,3.654302942,
0.01842,2.85263658,0.01842,4.750593824,
0.01844,3.948927462,0.01844,4.38516353,
0.01846,2.487206285,0.01846,4.019733236,
0.01848,2.85263658,0.01848,4.019733236,
0.0185,2.85263658,0.0185,4.38516353,
0.01852,3.218066874,0.01852,3.654302942,
0.01854,4.67978805,0.01854,3.654302942,
0.01856,3.583497168,0.01856,4.019733236,
0.01858,3.583497168,0.01858,3.654302942,
0.0186,4.314357756,0.0186,4.019733236,
0.01862,3.218066874,0.01862,4.38516353,
0.01864,2.487206285,0.01864,4.38516353,
0.01866,2.85263658,0.01866,4.019733236,
0.01868,2.121775991,0.01868,4.38516353,
0.0187,2.487206285,0.0187,4.38516353,
0.01872,1.390915403,0.01872,4.019733236,
0.01874,2.121775991,0.01874,5.116024118,
0.01876,1.025485109,0.01876,4.38516353,
0.01878,1.390915403,0.01878,4.38516353,
0.0188,-0.0708057738,0.0188,4.019733236,
0.01882,-0.436236068,0.01882,2.923442353,
0.01884,-0.436236068,0.01884,3.654302942,
0.01886,-0.8016663621,0.01886,5.116024118,
0.01888,-0.436236068,0.01888,4.38516353,
0.0189,-1.53252695,0.0189,4.750593824,
0.01892,-3.359678421,0.01892,4.019733236,
0.01894,-2.994248127,0.01894,5.846884707,
0.01896,-2.628817833,0.01896,4.38516353,
0.01898,-2.994248127,0.01898,4.38516353,
0.019,-3.359678421,0.019,4.38516353,
0.01902,-4.455969304,0.01902,4.750593824,
0.01904,-2.994248127,0.01904,4.019733236,
0.01906,-4.09053901,0.01906,4.750593824,
0.01908,-4.821399598,0.01908,4.750593824,
0.0191,-2.994248127,0.0191,4.38516353,
0.01912,-2.263387539,0.01912,5.116024118,
0.01914,-2.994248127,0.01914,4.750593824,
0.01916,-4.09053901,0.01916,4.019733236,
0.01918,-2.263387539,0.01918,4.019733236,
0.0192,-1.897957245,0.0192,4.38516353,
0.01922,-0.8016663621,0.01922,4.38516353,
0.01924,1.390915403,0.01924,4.750593824,
0.01926,1.390915403,0.01926,4.38516353,
0.01928,0.6600548145,0.01928,4.019733236,
0.0193,0.6600548145,0.0193,4.38516353,
0.01932,1.025485109,0.01932,4.38516353,
0.01934,1.390915403,0.01934,3.654302942,
0.01936,1.025485109,0.01936,4.750593824,
0.01938,3.218066874,0.01938,4.38516353,
0.0194,2.121775991,0.0194,4.019733236,
0.01942,3.583497168,0.01942,4.750593824,
0.01944,3.218066874,0.01944,5.116024118,
0.01946,4.314357756,0.01946,3.654302942,
0.01948,4.314357756,0.01948,4.750593824,
0.0195,3.583497168,0.0195,4.38516353,
0.01952,4.67978805,0.01952,4.38516353,
0.01954,3.948927462,0.01954,4.019733236,
0.01956,0.6600548145,0.01956,4.38516353,
0.01958,2.487206285,0.01958,4.019733236,
0.0196,3.948927462,0.0196,4.750593824,
0.01962,2.85263658,0.01962,4.750593824,
0.01964,2.121775991,0.01964,4.38516353,
0.01966,3.218066874,0.01966,4.750593824,
0.01968,0.6600548145,0.01968,4.38516353,
0.0197,1.025485109,0.0197,4.38516353,
0.01972,0.2946245204,0.01972,4.38516353,
0.01974,-1.897957245,0.01974,4.38516353,
0.01976,-0.0708057738,0.01976,4.38516353,
0.01978,-1.167096656,0.01978,4.750593824,
0.0198,-1.897957245,0.0198,4.38516353,
0.01982,-2.263387539,0.01982,4.38516353,
0.01984,-2.263387539,0.01984,4.019733236,
0.01986,-4.821399598,0.01986,4.750593824,
0.01988,-2.628817833,0.01988,4.019733236,
0.0199,-2.628817833,0.0199,4.38516353,
0.01992,-2.994248127,0.01992,4.38516353,
0.01994,-3.359678421,0.01994,4.38516353,
0.01996,-2.994248127,0.01996,4.750593824,
0.01998,-4.09053901,0.01998,4.38516353,
0.02,-2.994248127,0.02,4.019733236,
0.02002,-4.821399598,0.02002,4.750593824,
0.02004,-5.186829892,0.02004,4.38516353,
0.02006,0.2946245204,0.02006,4.38516353,
0.02008,-2.628817833,0.02008,4.38516353,
0.0201,-3.359678421,0.0201,5.116024118,
0.02012,-1.897957245,0.02012,4.019733236,
0.02014,-0.8016663621,0.02014,4.750593824,
0.02016,-1.53252695,0.02016,4.019733236,
0.02018,-1.167096656,0.02018,4.38516353,
0.0202,0.2946245204,0.0202,4.38516353,
0.02022,-0.0708057738,0.02022,4.38516353,
0.02024,1.025485109,0.02024,4.019733236,
0.02026,-1.897957245,0.02026,4.750593824,
0.02028,1.025485109,0.02028,4.750593824,
0.0203,2.121775991,0.0203,4.38516353,
0.02032,3.218066874,0.02032,4.750593824,
0.02034,3.218066874,0.02034,4.019733236,
0.02036,2.85263658,0.02036,4.019733236,
0.02038,3.583497168,0.02038,4.38516353,
0.0204,2.487206285,0.0204,4.38516353,
0.02042,3.218066874,0.02042,4.38516353,
0.02044,3.218066874,0.02044,4.38516353,
0.02046,4.314357756,0.02046,4.38516353,
0.02048,3.218066874,0.02048,4.750593824,
0.0205,3.583497168,0.0205,4.38516353,
0.02052,2.487206285,0.02052,4.750593824,
0.02054,2.85263658,0.02054,4.750593824,
0.02056,3.218066874,0.02056,4.38516353,
0.02058,1.756345697,0.02058,4.38516353,
0.0206,1.756345697,0.0206,4.38516353,
0.02062,1.025485109,0.02062,4.750593824,
0.02064,1.756345697,0.02064,4.38516353,
0.02066,-0.0708057738,0.02066,4.019733236,
0.02068,-0.0708057738,0.02068,4.750593824,
0.0207,-1.167096656,0.0207,4.38516353,
0.02072,-0.8016663621,0.02072,4.38516353,
0.02074,-1.53252695,0.02074,4.38516353,
0.02076,-1.897957245,0.02076,4.019733236,
0.02078,-2.263387539,0.02078,4.38516353,
0.0208,-1.167096656,0.0208,4.38516353,
0.02082,-3.725108716,0.02082,3.654302942,
0.02084,-1.897957245,0.02084,4.38516353,
0.02086,-2.263387539,0.02086,4.019733236,
0.02088,-3.725108716,0.02088,4.019733236,
0.0209,-2.994248127,0.0209,4.019733236,
0.02092,-2.994248127,0.02092,4.38516353,
0.02094,-5.917690481,0.02094,3.654302942,
0.02096,-2.994248127,0.02096,4.38516353,
0.02098,-3.359678421,0.02098,4.750593824,
0.021,-2.628817833,0.021,3.654302942,
0.02102,-2.628817833,0.02102,4.38516353,
0.02104,-1.897957245,0.02104,4.38516353,
0.02106,-1.167096656,0.02106,4.38516353,
0.02108,-0.436236068,0.02108,4.38516353,
0.0211,-1.897957245,0.0211,4.38516353,
0.02112,-1.53252695,0.02112,3.654302942,
0.02114,-0.8016663621,0.02114,4.38516353,
0.02116,1.390915403,0.02116,4.019733236,
0.02118,0.6600548145,0.02118,3.654302942,
0.0212,1.756345697,0.0212,4.38516353,
0.02122,2.487206285,0.02122,4.38516353,
0.02124,1.756345697,0.02124,4.019733236,
0.02126,5.045218345,0.02126,4.750593824,
0.02128,2.85263658,0.02128,4.38516353,
0.0213,4.314357756,0.0213,4.019733236,
0.02132,3.948927462,0.02132,4.38516353,
0.02134,3.948927462,0.02134,4.38516353,
0.02136,4.67978805,0.02136,4.38516353,
0.02138,3.948927462,0.02138,4.38516353,
0.0214,3.583497168,0.0214,4.38516353,
0.02142,2.121775991,0.02142,4.019733236,
0.02144,4.67978805,0.02144,4.38516353,
0.02146,3.583497168,0.02146,2.558012059,
0.02148,2.121775991,0.02148,3.654302942,
0.0215,2.85263658,0.0215,4.38516353,
0.02152,1.390915403,0.02152,4.019733236,
0.02154,1.756345697,0.02154,4.019733236,
0.02156,0.2946245204,0.02156,5.846884707,
0.02158,0.6600548145,0.02158,4.019733236,
0.0216,-0.0708057738,0.0216,3.654302942,
0.02162,0.6600548145,0.02162,4.38516353,
0.02164,-0.8016663621,0.02164,4.019733236,
0.02166,-1.167096656,0.02166,3.288872648,
0.02168,-2.263387539,0.02168,4.38516353,
0.0217,-1.897957245,0.0217,4.38516353,
0.02172,-2.994248127,0.02172,3.654302942,
0.02174,-2.628817833,0.02174,4.750593824,
0.02176,-1.167096656,0.02176,2.558012059,
0.02178,-1.167096656,0.02178,3.654302942,
0.0218,-4.09053901,0.0218,4.38516353,
0.02182,-2.628817833,0.02182,4.38516353,
0.02184,-1.53252695,0.02184,3.654302942,
0.02186,-5.917690481,0.02186,5.116024118,
0.02188,-5.552260186,0.02188,3.654302942,
0.0219,-2.994248127,0.0219,4.019733236,
0.02192,-1.897957245,0.02192,4.750593824,
0.02194,-2.628817833,0.02194,4.38516353,
0.02196,-4.09053901,0.02196,3.288872648,
0.02198,-2.263387539,0.02198,4.38516353,
0.022,-1.53252695,0.022,4.38516353,
0.02202,-1.53252695,0.02202,3.654302942,
0.02204,-2.263387539,0.02204,4.38516353,
0.02206,1.025485109,0.02206,5.116024118,
0.02208,0.6600548145,0.02208,3.654302942,
0.0221,0.6600548145,0.0221,4.38516353,
0.02212,0.6600548145,0.02212,3.654302942,
0.02214,0.6600548145,0.02214,4.019733236,
0.02216,2.85263658,0.02216,4.38516353,
0.02218,2.85263658,0.02218,4.38516353,
0.0222,2.85263658,0.0222,4.019733236,
0.02222,1.756345697,0.02222,4.38516353,
0.02224,3.218066874,0.02224,4.38516353,
0.02226,2.121775991,0.02226,3.288872648,
0.02228,4.314357756,0.02228,4.019733236,
0.0223,3.948927462,0.0223,4.019733236,
0.02232,3.583497168,0.02232,4.019733236,
0.02234,3.948927462,0.02234,4.38516353,
0.02236,4.67978805,0.02236,5.116024118,
0.02238,3.218066874,0.02238,3.654302942,
0.0224,3.218066874,0.0224,4.750593824,
0.02242,2.85263658,0.02242,4.38516353,
0.02244,2.121775991,0.02244,3.654302942,
0.02246,2.487206285,0.02246,3.288872648,
0.02248,1.390915403,0.02248,4.38516353,
0.0225,1.756345697,0.0225,3.654302942,
0.02252,0.2946245204,0.02252,4.38516353,
0.02254,-0.436236068,0.02254,4.019733236,
0.02256,-1.53252695,0.02256,3.288872648,
0.02258,-1.167096656,0.02258,4.38516353,
0.0226,-0.8016663621,0.0226,4.38516353,
0.02262,-2.263387539,0.02262,4.38516353,
0.02264,-2.628817833,0.02264,4.38516353,
0.02266,-2.994248127,0.02266,4.750593824,
0.02268,-3.359678421,0.02268,4.750593824,
0.0227,-2.263387539,0.0227,3.654302942,
0.02272,-4.455969304,0.02272,4.019733236,
0.02274,-4.09053901,0.02274,4.38516353,
0.02276,-2.994248127,0.02276,4.019733236,
0.02278,-2.994248127,0.02278,4.019733236,
0.0228,-4.09053901,0.0228,4.38516353,
0.02282,-2.994248127,0.02282,4.38516353,
0.02284,-3.359678421,0.02284,4.38516353,
0.02286,-1.897957245,0.02286,4.750593824,
0.02288,-2.628817833,0.02288,4.019733236,
0.0229,-2.263387539,0.0229,4.019733236,
0.02292,-1.897957245,0.02292,5.116024118,
0.02294,-2.263387539,0.02294,4.38516353,
0.02296,-1.897957245,0.02296,4.019733236,
0.02298,-0.436236068,0.02298,5.116024118,
0.023,-0.0708057738,0.023,4.38516353,
0.02302,1.390915403,0.02302,4.38516353,
0.02304,0.6600548145,0.02304,4.38516353,
0.02306,1.025485109,0.02306,4.38516353,
0.02308,1.756345697,0.02308,4.019733236,
0.0231,2.85263658,0.0231,5.116024118,
0.02312,2.487206285,0.02312,4.38516353,
0.02314,2.85263658,0.02314,4.38516353,
0.02316,2.85263658,0.02316,4.750593824,
0.02318,5.045218345,0.02318,4.019733236,
0.0232,3.583497168,0.0232,4.019733236,
0.02322,3.948927462,0.02322,4.750593824,
0.02324,3.218066874,0.02324,4.019733236,
0.02326,5.410648639,0.02326,4.38516353,
0.02328,3.218066874,0.02328,4.750593824,
0.0233,3.218066874,0.0233,4.750593824,
0.02332,3.218066874,0.02332,3.654302942,
0.02334,3.583497168,0.02334,5.116024118,
0.02336,1.756345697,0.02336,4.019733236,
0.02338,2.121775991,0.02338,3.654302942,
0.0234,1.025485109,0.0234,4.38516353,
0.02342,2.121775991,0.02342,3.654302942,
0.02344,-0.0708057738,0.02344,4.38516353,
0.02346,-0.0708057738,0.02346,4.750593824,
0.02348,-0.8016663621,0.02348,4.019733236,
0.0235,-0.0708057738,0.0235,4.019733236,
0.02352,-3.359678421,0.02352,5.116024118,
0.02354,-2.994248127,0.02354,4.38516353,
0.02356,-2.263387539,0.02356,4.38516353,
0.02358,-1.53252695,0.02358,4.750593824,
0.0236,-3.359678421,0.0236,4.019733236,
0.02362,-2.994248127,0.02362,4.019733236,
0.02364,-3.359678421,0.02364,4.750593824,
0.02366,-2.994248127,0.02366,4.019733236,
0.02368,-3.359678421,0.02368,4.019733236,
0.0237,-4.09053901,0.0237,4.38516353,
0.02372,-5.552260186,0.02372,4.38516353,
0.02374,-3.359678421,0.02374,4.38516353,
0.02376,-3.725108716,0.02376,4.750593824,
0.02378,-2.994248127,0.02378,4.750593824,
0.0238,-1.53252695,0.0238,4.38516353,
0.02382,-2.263387539,0.02382,4.750593824,
0.02384,-2.994248127,0.02384,4.38516353,
0.02386,-3.359678421,0.02386,4.750593824,
0.02388,-0.8016663621,0.02388,4.019733236,
0.0239,-0.436236068,0.0239,4.38516353,
0.02392,-2.263387539,0.02392,4.019733236,
0.02394,-1.53252695,0.02394,3.654302942,
0.02396,0.6600548145,0.02396,5.116024118,
0.02398,1.025485109,0.02398,5.481454413,
0.024,2.487206285,0.024,4.38516353,
0.02402,1.756345697,0.02402,4.38516353,
0.02404,2.85263658,0.02404,4.019733236,
0.02406,1.390915403,0.02406,5.116024118,
0.02408,2.85263658,0.02408,3.288872648,
0.0241,3.218066874,0.0241,4.019733236,
0.02412,3.218066874,0.02412,4.38516353,
0.02414,2.121775991,0.02414,4.38516353,
0.02416,3.948927462,0.02416,3.654302942,
0.02418,3.948927462,0.02418,5.116024118,
0.0242,3.218066874,0.0242,4.38516353,
0.02422,4.314357756,0.02422,4.019733236,
0.02424,2.85263658,0.02424,4.38516353,
0.02426,2.487206285,0.02426,4.019733236,
0.02428,2.121775991,0.02428,3.288872648,
0.0243,2.121775991,0.0243,5.116024118,
0.02432,2.121775991,0.02432,4.38516353,
0.02434,1.390915403,0.02434,4.38516353,
0.02436,2.121775991,0.02436,4.750593824,
0.02438,-0.0708057738,0.02438,4.750593824,
0.0244,-0.8016663621,0.0244,4.019733236,
0.02442,-0.0708057738,0.02442,4.750593824,
0.02444,-1.53252695,0.02444,4.019733236,
0.02446,-2.628817833,0.02446,4.750593824,
0.02448,-1.53252695,0.02448,4.019733236,
0.0245,-4.821399598,0.0245,4.38516353,
0.02452,-2.994248127,0.02452,4.019733236,
0.02454,-2.263387539,0.02454,5.116024118,
0.02456,-2.263387539,0.02456,4.38516353,
0.02458,-3.725108716,0.02458,5.116024118,
0.0246,-2.628817833,0.0246,4.38516353,
0.02462,-4.821399598,0.02462,4.019733236,
0.02464,-5.186829892,0.02464,4.750593824,
0.02466,-4.821399598,0.02466,4.38516353,
0.02468,-3.725108716,0.02468,4.019733236,
0.0247,-2.263387539,0.0247,4.38516353,
0.02472,-4.09053901,0.02472,4.38516353,
0.02474,-1.897957245,0.02474,4.38516353,
0.02476,-1.897957245,0.02476,4.019733236,
0.02478,-1.897957245,0.02478,3.654302942,
0.0248,-3.359678421,0.0248,4.38516353,
0.02482,0.2946245204,0.02482,4.750593824,
0.02484,-0.8016663621,0.02484,4.750593824,
0.02486,0.6600548145,0.02486,4.38516353,
0.02488,-0.0708057738,0.02488,4.750593824,
0.0249,-0.0708057738,0.0249,5.116024118,
0.02492,1.756345697,0.02492,4.019733236,
0.02494,1.756345697,0.02494,4.750593824,
0.02496,-0.436236068,0.02496,4.750593824,
0.02498,2.85263658,0.02498,4.019733236,
0.025,1.756345697,0.025,4.38516353,
0.02502,2.85263658,0.02502,4.750593824,
0.02504,2.487206285,0.02504,4.38516353,
0.02506,4.314357756,0.02506,4.38516353,
0.02508,4.67978805,0.02508,4.38516353,
0.0251,3.583497168,0.0251,4.38516353,
0.02512,5.045218345,0.02512,4.38516353,
0.02514,3.218066874,0.02514,4.38516353,
0.02516,3.948927462,0.02516,4.38516353,
0.02518,3.583497168,0.02518,4.750593824,
0.0252,2.85263658,0.0252,4.38516353,
0.02522,2.487206285,0.02522,5.116024118,
0.02524,2.487206285,0.02524,4.019733236,
0.02526,1.025485109,0.02526,4.019733236,
0.02528,1.025485109,0.02528,4.38516353,
0.0253,-0.8016663621,0.0253,4.750593824,
0.02532,-0.0708057738,0.02532,4.38516353,
0.02534,0.2946245204,0.02534,4.38516353,
0.02536,-1.897957245,0.02536,4.38516353,
0.02538,-0.8016663621,0.02538,4.750593824,
0.0254,-1.897957245,0.0254,4.019733236,
0.02542,-1.897957245,0.02542,5.116024118,
0.02544,-3.725108716,0.02544,4.750593824,
0.02546,-4.09053901,0.02546,4.38516353,
0.02548,-2.994248127,0.02548,4.750593824,
0.0255,-1.53252695,0.0255,4.38516353,
0.02552,-2.628817833,0.02552,4.38516353,
0.02554,-3.359678421,0.02554,4.750593824,
0.02556,-2.994248127,0.02556,4.38516353,
0.02558,-2.628817833,0.02558,4.38516353,
0.0256,-2.628817833,0.0256,4.750593824,
0.02562,-3.725108716,0.02562,4.38516353,
0.02564,-3.359678421,0.02564,4.38516353,
0.02566,-3.359678421,0.02566,4.750593824,
0.02568,-2.628817833,0.02568,4.38516353,
0.0257,-2.263387539,0.0257,4.019733236,
0.02572,-2.263387539,0.02572,4.019733236,
0.02574,-1.897957245,0.02574,4.38516353,
0.02576,-1.53252695,0.02576,3.654302942,
0.02578,-1.53252695,0.02578,4.38516353,
0.0258,-0.8016663621,0.0258,4.750593824,
0.02582,-0.436236068,0.02582,4.38516353,
0.02584,1.756345697,0.02584,4.750593824,
0.02586,1.756345697,0.02586,4.38516353,
0.02588,1.390915403,0.02588,4.38516353,
0.0259,2.85263658,0.0259,4.750593824,
0.02592,2.121775991,0.02592,4.38516353,
0.02594,2.85263658,0.02594,4.38516353,
0.02596,3.948927462,0.02596,4.38516353,
0.02598,3.218066874,0.02598,4.38516353,
0.026,4.67978805,0.026,4.38516353,
0.02602,3.948927462,0.02602,4.750593824,
0.02604,3.218066874,0.02604,4.38516353,
0.02606,3.583497168,0.02606,4.38516353,
0.02608,1.390915403,0.02608,4.750593824,
0.0261,1.756345697,0.0261,4.38516353,
0.02612,4.67978805,0.02612,4.38516353,
0.02614,3.218066874,0.02614,4.750593824,
0.02616,2.487206285,0.02616,4.38516353,
0.02618,1.756345697,0.02618,4.38516353,
0.0262,1.390915403,0.0262,4.750593824,
0.02622,0.6600548145,0.02622,4.019733236,
0.02624,1.025485109,0.02624,4.019733236,
0.02626,1.756345697,0.02626,4.38516353,
0.02628,0.2946245204,0.02628,4.750593824,
0.0263,0.2946245204,0.0263,4.019733236,
0.02632,-0.8016663621,0.02632,4.750593824,
0.02634,-2.263387539,0.02634,4.750593824,
0.02636,-0.8016663621,0.02636,4.38516353,
0.02638,-3.359678421,0.02638,5.116024118,
0.0264,-4.09053901,0.0264,4.750593824,
0.02642,-3.359678421,0.02642,4.019733236,
0.02644,-2.628817833,0.02644,4.019733236,
0.02646,-3.359678421,0.02646,4.38516353,
0.02648,-2.994248127,0.02648,4.019733236,
0.0265,-4.09053901,0.0265,3.288872648,
0.02652,-3.725108716,0.02652,2.923442353,
0.02654,-2.994248127,0.02654,4.019733236,
0.02656,-3.359678421,0.02656,4.019733236,
0.02658,-2.263387539,0.02658,4.38516353,
0.0266,-2.263387539,0.0266,4.38516353,
0.02662,-2.994248127,0.02662,4.019733236,
0.02664,-2.263387539,0.02664,4.019733236,
0.02666,-2.263387539,0.02666,4.38516353,
0.02668,-1.897957245,0.02668,4.019733236,
0.0267,-1.167096656,0.0267,4.019733236,
0.02672,-0.0708057738,0.02672,4.019733236,
0.02674,-0.0708057738,0.02674,3.654302942,
0.02676,-0.0708057738,0.02676,4.38516353,
0.02678,1.390915403,0.02678,4.38516353,
0.0268,1.025485109,0.0268,3.654302942,
0.02682,2.121775991,0.02682,4.019733236,
0.02684,1.390915403,0.02684,4.019733236,
0.02686,0.6600548145,0.02686,4.019733236,
0.02688,3.218066874,0.02688,4.38516353,
0.0269,3.583497168,0.0269,5.481454413,
0.02692,2.121775991,0.02692,4.38516353,
0.02694,3.948927462,0.02694,4.38516353,
0.02696,3.948927462,0.02696,3.654302942,
0.02698,3.583497168,0.02698,3.288872648,
0.027,5.410648639,0.027,2.923442353,
0.02702,3.948927462,0.02702,4.38516353,
0.02704,2.85263658,0.02704,4.38516353,
0.02706,3.583497168,0.02706,4.38516353,
0.02708,2.487206285,0.02708,4.019733236,
0.0271,2.487206285,0.0271,5.116024118,
0.02712,2.121775991,0.02712,4.38516353,
0.02714,2.121775991,0.02714,3.654302942,
0.02716,-1.53252695,0.02716,3.654302942,
0.02718,-0.436236068,0.02718,4.019733236,
0.0272,-1.167096656,0.0272,4.019733236,
0.02722,-1.53252695,0.02722,3.654302942,
0.02724,-0.436236068,0.02724,4.38516353,
0.02726,-0.436236068,0.02726,4.019733236,
0.02728,-2.263387539,0.02728,4.019733236,
0.0273,-1.53252695,0.0273,5.116024118,
0.02732,0.6600548145,0.02732,4.019733236,
0.02734,-3.725108716,0.02734,3.654302942,
0.02736,-2.628817833,0.02736,4.38516353,
0.02738,-2.628817833,0.02738,4.38516353,
0.0274,-4.09053901,0.0274,4.38516353,
0.02742,-1.897957245,0.02742,4.38516353,
0.02744,-3.725108716,0.02744,4.019733236,
0.02746,-5.186829892,0.02746,4.019733236,
0.02748,-2.994248127,0.02748,4.38516353,
0.0275,-3.725108716,0.0275,3.654302942,
0.02752,-2.628817833,0.02752,4.019733236,
0.02754,-1.167096656,0.02754,4.38516353,
0.02756,-1.53252695,0.02756,4.38516353,
0.02758,-3.359678421,0.02758,4.019733236,
0.0276,-1.897957245,0.0276,5.116024118,
0.02762,-0.0708057738,0.02762,4.38516353,
0.02764,0.2946245204,0.02764,3.654302942,
0.02766,0.2946245204,0.02766,4.38516353,
0.02768,-1.53252695,0.02768,4.38516353,
0.0277,1.390915403,0.0277,3.654302942,
0.02772,-0.0708057738,0.02772,4.019733236,
0.02774,2.487206285,0.02774,4.019733236,
0.02776,2.121775991,0.02776,4.019733236,
0.02778,3.583497168,0.02778,4.38516353,
0.0278,4.314357756,0.0278,3.654302942,
0.02782,3.948927462,0.02782,4.38516353,
0.02784,1.756345697,0.02784,4.750593824,
0.02786,3.218066874,0.02786,4.019733236,
0.02788,2.85263658,0.02788,3.654302942,
0.0279,4.314357756,0.0279,4.38516353,
0.02792,3.218066874,0.02792,4.38516353,
0.02794,2.85263658,0.02794,4.019733236,
0.02796,3.218066874,0.02796,4.019733236,
0.02798,3.218066874,0.02798,4.019733236,
0.028,2.121775991,0.028,3.654302942,
0.02802,2.85263658,0.02802,4.019733236,
0.02804,3.218066874,0.02804,4.019733236,
0.02806,1.390915403,0.02806,4.019733236,
0.02808,2.121775991,0.02808,4.38516353,
0.0281,0.6600548145,0.0281,4.019733236,
0.02812,-0.436236068,0.02812,4.019733236,
0.02814,-1.167096656,0.02814,4.38516353,
0.02816,-1.53252695,0.02816,4.019733236,
0.02818,-1.897957245,0.02818,4.019733236,
0.0282,-2.263387539,0.0282,4.38516353,
0.02822,-1.167096656,0.02822,4.750593824,
0.02824,-2.994248127,0.02824,4.019733236,
0.02826,-1.897957245,0.02826,4.38516353,
0.02828,-2.994248127,0.02828,4.019733236,
0.0283,-3.725108716,0.0283,3.654302942,
0.02832,-3.725108716,0.02832,4.750593824,
0.02834,-4.09053901,0.02834,4.38516353,
0.02836,-3.725108716,0.02836,4.750593824,
0.02838,-4.09053901,0.02838,4.750593824,
0.0284,-3.359678421,0.0284,4.38516353,
0.02842,-3.725108716,0.02842,4.750593824,
0.02844,-2.994248127,0.02844,4.38516353,
0.02846,-3.725108716,0.02846,4.019733236,
0.02848,-0.8016663621,0.02848,4.38516353,
0.0285,-2.263387539,0.0285,4.38516353,
0.02852,-3.359678421,0.02852,4.019733236,
0.02854,-0.8016663621,0.02854,4.750593824,
0.02856,-1.53252695,0.02856,4.019733236,
0.02858,-2.628817833,0.02858,4.019733236,
0.0286,-0.0708057738,0.0286,4.38516353,
0.02862,0.6600548145,0.02862,4.38516353,
0.02864,0.6600548145,0.02864,4.019733236,
0.02866,1.025485109,0.02866,4.750593824,
0.02868,1.390915403,0.02868,4.38516353,
0.0287,2.487206285,0.0287,4.019733236,
0.02872,1.390915403,0.02872,4.750593824,
0.02874,1.390915403,0.02874,4.38516353,
0.02876,3.583497168,0.02876,4.019733236,
0.02878,3.218066874,0.02878,5.116024118,
0.0288,4.314357756,0.0288,4.019733236,
0.02882,3.948927462,0.02882,4.019733236,
0.02884,4.314357756,0.02884,4.019733236,
0.02886,4.67978805,0.02886,4.38516353,
0.02888,3.583497168,0.02888,4.38516353,
0.0289,2.85263658,0.0289,4.38516353,
0.02892,2.487206285,0.02892,4.019733236,
0.02894,2.487206285,0.02894,4.38516353,
0.02896,1.756345697,0.02896,4.38516353,
0.02898,-0.436236068,0.02898,4.750593824,
0.029,1.025485109,0.029,4.38516353,
0.02902,1.025485109,0.02902,4.019733236,
0.02904,1.025485109,0.02904,4.38516353,
0.02906,1.025485109,0.02906,4.38516353,
0.02908,-0.436236068,0.02908,4.019733236,
0.0291,-3.359678421,0.0291,4.750593824,
0.02912,-0.8016663621,0.02912,4.38516353,
0.02914,-1.897957245,0.02914,4.750593824,
0.02916,-2.628817833,0.02916,4.38516353,
0.02918,-2.994248127,0.02918,4.019733236,
0.0292,-2.628817833,0.0292,4.38516353,
0.02922,-4.821399598,0.02922,4.750593824,
0.02924,-2.628817833,0.02924,4.38516353,
0.02926,-2.628817833,0.02926,4.38516353,
0.02928,-4.09053901,0.02928,4.019733236,
0.0293,-3.359678421,0.0293,4.750593824,
0.02932,-2.994248127,0.02932,3.654302942,
0.02934,-3.725108716,0.02934,3.654302942,
0.02936,-2.994248127,0.02936,4.019733236,
0.02938,-1.897957245,0.02938,4.38516353,
0.0294,-2.263387539,0.0294,4.019733236,
0.02942,-1.897957245,0.02942,5.116024118,
0.02944,-2.628817833,0.02944,4.019733236,
0.02946,-0.436236068,0.02946,4.019733236,
0.02948,-1.167096656,0.02948,4.38516353,
0.0295,-0.436236068,0.0295,4.019733236,
0.02952,0.6600548145,0.02952,2.923442353,
0.02954,0.2946245204,0.02954,4.38516353,
0.02956,1.025485109,0.02956,4.38516353,
0.02958,2.121775991,0.02958,3.654302942,
0.0296,1.390915403,0.0296,4.019733236,
0.02962,3.218066874,0.02962,4.019733236,
0.02964,2.487206285,0.02964,3.654302942,
0.02966,3.218066874,0.02966,4.38516353,
0.02968,2.487206285,0.02968,4.38516353,
0.0297,3.948927462,0.0297,3.654302942,
0.02972,3.583497168,0.02972,5.116024118,
0.02974,4.314357756,0.02974,4.38516353,
0.02976,4.67978805,0.02976,3.654302942,
0.02978,3.948927462,0.02978,4.38516353,
0.0298,4.314357756,0.0298,4.019733236,
0.02982,2.85263658,0.02982,2.558012059,
0.02984,2.121775991,0.02984,4.38516353,
0.02986,3.583497168,0.02986,4.019733236,
0.02988,2.121775991,0.02988,4.019733236,
0.0299,2.85263658,0.0299,4.38516353,
0.02992,1.025485109,0.02992,4.750593824,
0.02994,1.756345697,0.02994,3.654302942,
0.02996,1.390915403,0.02996,4.750593824,
0.02998,0.6600548145,0.02998,4.019733236,
0.03,-0.0708057738,0.03,3.654302942,
0.03002,-0.8016663621,0.03002,4.019733236,
0.03004,-1.167096656,0.03004,4.38516353,
0.03006,-1.53252695,0.03006,4.019733236,
0.03008,-1.897957245,0.03008,4.38516353,
0.0301,-3.359678421,0.0301,4.38516353,
0.03012,-2.263387539,0.03012,2.923442353,
0.03014,-4.09053901,0.03014,4.38516353,
0.03016,-3.725108716,0.03016,4.750593824,
0.03018,-3.359678421,0.03018,3.654302942,
0.0302,-2.994248127,0.0302,4.750593824,
0.03022,-3.359678421,0.03022,4.750593824,
0.03024,-5.186829892,0.03024,4.019733236,
0.03026,-4.821399598,0.03026,4.38516353,
0.03028,-2.628817833,0.03028,4.38516353,
0.0303,-2.994248127,0.0303,3.654302942,
0.03032,0.2946245204,0.03032,4.750593824,
0.03034,-1.167096656,0.03034,4.019733236,
0.03036,-2.263387539,0.03036,2.923442353,
0.03038,-2.263387539,0.03038,4.38516353,
0.0304,-1.897957245,0.0304,4.019733236,
0.03042,-1.53252695,0.03042,3.288872648,
0.03044,-2.263387539,0.03044,4.38516353,
0.03046,-0.436236068,0.03046,4.019733236,
0.03048,-0.0708057738,0.03048,3.654302942,
0.0305,0.6600548145,0.0305,4.38516353,
0.03052,1.756345697,0.03052,4.750593824,
0.03054,3.583497168,0.03054,3.654302942,
0.03056,2.487206285,0.03056,4.38516353,
0.03058,3.218066874,0.03058,4.019733236,
0.0306,2.85263658,0.0306,3.654302942,
0.03062,3.948927462,0.03062,4.38516353,
0.03064,3.583497168,0.03064,3.654302942,
0.03066,3.948927462,0.03066,4.019733236,
0.03068,5.045218345,0.03068,4.38516353,
0.0307,1.756345697,0.0307,4.38516353,
0.03072,6.872369815,0.03072,3.654302942,
0.03074,4.314357756,0.03074,4.019733236,
0.03076,2.85263658,0.03076,4.019733236,
0.03078,2.121775991,0.03078,3.654302942,
0.0308,2.85263658,0.0308,4.38516353,
0.03082,2.487206285,0.03082,4.38516353,
0.03084,2.121775991,0.03084,4.38516353,
0.03086,2.121775991,0.03086,4.38516353,
0.03088,1.756345697,0.03088,4.38516353,
0.0309,0.2946245204,0.0309,3.654302942,
0.03092,0.6600548145,0.03092,4.019733236,
0.03094,-0.8016663621,0.03094,4.38516353,
0.03096,-0.0708057738,0.03096,3.654302942,
0.03098,1.025485109,0.03098,4.38516353,
0.031,-1.167096656,0.031,4.019733236,
0.03102,-2.263387539,0.03102,3.654302942,
0.03104,-2.994248127,0.03104,4.38516353,
0.03106,-3.359678421,0.03106,4.019733236,
0.03108,-3.359678421,0.03108,4.019733236,
0.0311,-3.359678421,0.0311,4.019733236,
0.03112,-3.359678421,0.03112,4.019733236,
0.03114,-2.628817833,0.03114,3.654302942,
0.03116,1.025485109,0.03116,4.019733236,
0.03118,-2.628817833,0.03118,4.750593824,
0.0312,-3.725108716,0.0312,4.019733236,
0.03122,-3.725108716,0.03122,3.654302942,
0.03124,-5.186829892,0.03124,3.654302942,
0.03126,-3.359678421,0.03126,4.750593824,
0.03128,-3.359678421,0.03128,4.38516353,
0.0313,-0.8016663621,0.0313,4.019733236,
0.03132,-1.897957245,0.03132,4.38516353,
0.03134,-2.628817833,0.03134,4.38516353,
0.03136,1.390915403,0.03136,4.019733236,
0.03138,-0.8016663621,0.03138,4.38516353,
0.0314,-1.167096656,0.0314,4.38516353,
0.03142,1.390915403,0.03142,4.38516353,
0.03144,1.025485109,0.03144,4.750593824,
0.03146,0.6600548145,0.03146,4.38516353,
0.03148,1.756345697,0.03148,4.019733236,
0.0315,2.121775991,0.0315,4.38516353,
0.03152,1.756345697,0.03152,4.38516353,
0.03154,3.218066874,0.03154,4.38516353,
0.03156,3.583497168,0.03156,4.38516353,
0.03158,2.487206285,0.03158,4.019733236,
0.0316,3.948927462,0.0316,4.38516353,
0.03162,4.67978805,0.03162,4.750593824,
0.03164,3.583497168,0.03164,4.019733236,
0.03166,1.756345697,0.03166,4.750593824,
0.03168,3.218066874,0.03168,4.38516353,
0.0317,2.85263658,0.0317,4.38516353,
0.03172,0.6600548145,0.03172,4.38516353,
0.03174,1.390915403,0.03174,4.38516353,
0.03176,1.756345697,0.03176,4.38516353,
0.03178,1.756345697,0.03178,4.019733236,
0.0318,0.2946245204,0.0318,4.750593824,
0.03182,1.390915403,0.03182,4.750593824,
0.03184,1.390915403,0.03184,4.019733236,
0.03186,0.2946245204,0.03186,4.38516353,
0.03188,-0.436236068,0.03188,4.38516353,
0.0319,-0.8016663621,0.0319,4.38516353,
0.03192,-2.263387539,0.03192,4.38516353,
0.03194,-1.897957245,0.03194,3.288872648,
0.03196,-2.628817833,0.03196,4.019733236,
0.03198,-4.821399598,0.03198,4.750593824,
0.032,-3.725108716,0.032,4.019733236,
0.03202,-2.994248127,0.03202,3.654302942,
0.03204,-5.186829892,0.03204,5.116024118,
0.03206,-1.897957245,0.03206,4.019733236,
0.03208,-3.359678421,0.03208,4.019733236,
0.0321,-2.628817833,0.0321,5.481454413,
0.03212,-5.186829892,0.03212,4.38516353,
0.03214,-2.994248127,0.03214,3.288872648,
0.03216,-3.359678421,0.03216,4.750593824,
0.03218,-5.186829892,0.03218,4.38516353,
0.0322,-2.994248127,0.0322,4.019733236,
0.03222,-2.994248127,0.03222,4.38516353,
0.03224,-2.628817833,0.03224,5.116024118,
0.03226,-1.897957245,0.03226,4.38516353,
0.03228,-1.167096656,0.03228,4.750593824,
0.0323,-1.167096656,0.0323,4.38516353,
0.03232,-1.53252695,0.03232,4.38516353,
0.03234,-0.0708057738,0.03234,2.923442353,
0.03236,0.6600548145,0.03236,4.38516353,
0.03238,1.025485109,0.03238,4.019733236,
0.0324,1.390915403,0.0324,4.019733236,
0.03242,2.487206285,0.03242,4.38516353,
0.03244,2.487206285,0.03244,6.212315001,
0.03246,2.121775991,0.03246,4.750593824,
0.03248,2.85263658,0.03248,4.38516353,
0.0325,2.487206285,0.0325,4.019733236,
0.03252,4.314357756,0.03252,4.750593824,
0.03254,1.756345697,0.03254,2.558012059,
0.03256,3.583497168,0.03256,4.750593824,
0.03258,2.85263658,0.03258,4.750593824,
0.0326,3.583497168,0.0326,4.38516353,
0.03262,3.583497168,0.03262,4.019733236,
0.03264,2.85263658,0.03264,5.846884707,
0.03266,2.85263658,0.03266,4.38516353,
0.03268,3.218066874,0.03268,3.654302942,
0.0327,1.756345697,0.0327,4.38516353,
0.03272,0.2946245204,0.03272,4.019733236,
0.03274,0.2946245204,0.03274,4.019733236,
0.03276,0.2946245204,0.03276,4.750593824,
0.03278,-0.8016663621,0.03278,4.38516353,
0.0328,0.2946245204,0.0328,4.38516353,
0.03282,-0.8016663621,0.03282,4.750593824,
0.03284,-1.167096656,0.03284,3.288872648,
0.03286,-4.09053901,0.03286,4.019733236,
0.03288,-3.359678421,0.03288,4.750593824,
0.0329,-2.628817833,0.0329,4.019733236,
0.03292,-2.994248127,0.03292,4.38516353,
0.03294,-3.359678421,0.03294,5.846884707,
0.03296,-4.821399598,0.03296,4.019733236,
0.03298,-4.09053901,0.03298,4.38516353,
0.033,-3.725108716,0.033,4.750593824,
0.03302,-3.359678421,0.03302,4.38516353,
0.03304,-4.09053901,0.03304,2.923442353,
0.03306,-3.725108716,0.03306,4.750593824,
0.03308,-3.359678421,0.03308,4.38516353,
0.0331,-2.994248127,0.0331,4.750593824,
0.03312,-1.53252695,0.03312,4.38516353,
0.03314,-3.359678421,0.03314,4.38516353,
0.03316,-1.897957245,0.03316,4.38516353,
0.03318,-2.628817833,0.03318,4.019733236,
0.0332,-1.167096656,0.0332,4.019733236,
0.03322,-0.436236068,0.03322,4.38516353,
0.03324,0.2946245204,0.03324,4.019733236,
0.03326,-0.0708057738,0.03326,4.38516353,
0.03328,0.2946245204,0.03328,4.750593824,
0.0333,0.2946245204,0.0333,4.38516353,
0.03332,1.390915403,0.03332,4.38516353,
0.03334,2.121775991,0.03334,4.38516353,
0.03336,3.218066874,0.03336,4.750593824,
0.03338,3.218066874,0.03338,4.750593824,
0.0334,3.218066874,0.0334,4.38516353,
0.03342,1.390915403,0.03342,4.38516353,
0.03344,2.85263658,0.03344,4.750593824,
0.03346,3.583497168,0.03346,4.750593824,
0.03348,2.121775991,0.03348,4.750593824,
0.0335,4.67978805,0.0335,4.019733236,
0.03352,3.948927462,0.03352,4.38516353,
0.03354,1.756345697,0.03354,4.019733236,
0.03356,3.218066874,0.03356,4.019733236,
0.03358,2.121775991,0.03358,4.38516353,
0.0336,2.121775991,0.0336,4.38516353,
0.03362,3.583497168,0.03362,4.019733236,
0.03364,3.218066874,0.03364,4.750593824,
0.03366,1.390915403,0.03366,4.750593824,
0.03368,1.390915403,0.03368,4.019733236,
0.0337,0.2946245204,0.0337,4.750593824,
0.03372,-0.436236068,0.03372,4.750593824,
0.03374,1.390915403,0.03374,4.019733236,
0.03376,-0.8016663621,0.03376,4.750593824,
0.03378,-2.628817833,0.03378,4.38516353,
0.0338,-0.8016663621,0.0338,4.38516353,
0.03382,-1.897957245,0.03382,4.38516353,
0.03384,-2.994248127,0.03384,4.019733236,
0.03386,-4.09053901,0.03386,4.750593824,
0.03388,-2.263387539,0.03388,4.019733236,
0.0339,-3.725108716,0.0339,4.750593824,
0.03392,-2.628817833,0.03392,3.654302942,
0.03394,-1.167096656,0.03394,4.019733236,
0.03396,-3.725108716,0.03396,4.38516353,
0.03398,-4.09053901,0.03398,4.38516353,
0.034,-2.994248127,0.034,4.019733236,
0.03402,-2.994248127,0.03402,4.38516353,
0.03404,-3.359678421,0.03404,4.38516353,
0.03406,-3.725108716,0.03406,4.38516353,
0.03408,-2.628817833,0.03408,3.654302942,
0.0341,-3.359678421,0.0341,4.38516353,
0.03412,-3.725108716,0.03412,4.019733236,
0.03414,-0.8016663621,0.03414,4.38516353,
0.03416,-0.0708057738,0.03416,4.38516353,
0.03418,-1.53252695,0.03418,5.116024118,
0.0342,0.2946245204,0.0342,4.38516353,
0.03422,-0.0708057738,0.03422,5.116024118,
0.03424,1.025485109,0.03424,3.654302942,
0.03426,2.487206285,0.03426,4.38516353,
0.03428,1.390915403,0.03428,3.654302942,
0.0343,1.390915403,0.0343,4.019733236,
0.03432,2.121775991,0.03432,4.38516353,
0.03434,1.390915403,0.03434,4.019733236,
0.03436,5.045218345,0.03436,4.38516353,
0.03438,4.314357756,0.03438,4.38516353,
0.0344,3.218066874,0.0344,3.654302942,
0.03442,4.67978805,0.03442,4.019733236,
0.03444,5.045218345,0.03444,3.654302942,
0.03446,3.948927462,0.03446,3.654302942,
0.03448,3.583497168,0.03448,4.019733236,
0.0345,3.218066874,0.0345,4.019733236,
0.03452,4.314357756,0.03452,4.019733236,
0.03454,2.487206285,0.03454,4.38516353,
0.03456,2.121775991,0.03456,4.750593824,
0.03458,1.756345697,0.03458,4.019733236,
0.0346,2.121775991,0.0346,4.38516353,
0.03462,0.6600548145,0.03462,3.654302942,
0.03464,-0.0708057738,0.03464,3.654302942,
0.03466,0.2946245204,0.03466,3.654302942,
0.03468,-0.0708057738,0.03468,4.019733236,
0.0347,-1.53252695,0.0347,3.654302942,
0.03472,-1.167096656,0.03472,4.38516353,
0.03474,-1.53252695,0.03474,4.019733236,
0.03476,-1.897957245,0.03476,3.654302942,
0.03478,-2.628817833,0.03478,4.750593824,
0.0348,-2.263387539,0.0348,4.019733236,
0.03482,-4.09053901,0.03482,4.019733236,
0.03484,-2.263387539,0.03484,4.750593824,
0.03486,-3.359678421,0.03486,5.481454413,
0.03488,-4.455969304,0.03488,4.019733236,
0.0349,-1.897957245,0.0349,4.019733236,
0.03492,-3.725108716,0.03492,4.38516353,
0.03494,-3.725108716,0.03494,3.654302942,
0.03496,-3.725108716,0.03496,4.019733236,
0.03498,-3.359678421,0.03498,4.019733236,
0.035,-2.263387539,0.035,4.750593824,
0.03502,-4.455969304,0.03502,4.019733236,
0.03504,-1.53252695,0.03504,3.654302942,
0.03506,-1.167096656,0.03506,4.750593824,
0.03508,-0.436236068,0.03508,4.38516353,
0.0351,-0.8016663621,0.0351,4.38516353,
0.03512,0.2946245204,0.03512,4.019733236,
0.03514,0.2946245204,0.03514,4.38516353,
0.03516,0.6600548145,0.03516,4.38516353,
0.03518,-0.8016663621,0.03518,3.654302942,
0.0352,2.121775991,0.0352,4.38516353,
0.03522,2.487206285,0.03522,4.019733236,
0.03524,3.218066874,0.03524,3.654302942,
0.03526,1.756345697,0.03526,3.288872648,
0.03528,3.948927462,0.03528,4.38516353,
0.0353,3.218066874,0.0353,4.019733236,
0.03532,3.948927462,0.03532,4.38516353,
0.03534,3.948927462,0.03534,4.019733236,
0.03536,3.583497168,0.03536,4.750593824,
0.03538,4.67978805,0.03538,4.38516353,
0.0354,3.583497168,0.0354,4.019733236,
0.03542,3.583497168,0.03542,3.654302942,
0.03544,2.487206285,0.03544,4.019733236,
0.03546,4.314357756,0.03546,4.019733236,
0.03548,0.6600548145,0.03548,3.654302942,
0.0355,2.487206285,0.0355,4.750593824,
0.03552,2.85263658,0.03552,4.38516353,
0.03554,2.487206285,0.03554,4.019733236,
0.03556,-0.436236068,0.03556,3.654302942,
0.03558,-2.994248127,0.03558,4.750593824,
0.0356,-1.897957245,0.0356,4.019733236,
0.03562,1.025485109,0.03562,4.38516353,
0.03564,-2.628817833,0.03564,4.38516353,
0.03566,-4.09053901,0.03566,4.750593824,
0.03568,0.2946245204,0.03568,4.38516353,
0.0357,-0.436236068,0.0357,4.38516353,
0.03572,-2.628817833,0.03572,4.019733236,
0.03574,-1.53252695,0.03574,4.750593824,
0.03576,-4.821399598,0.03576,4.38516353,
0.03578,-5.186829892,0.03578,4.019733236,
0.0358,-2.994248127,0.0358,4.019733236,
0.03582,-0.0708057738,0.03582,4.019733236,
0.03584,-1.53252695,0.03584,4.019733236,
0.03586,-2.628817833,0.03586,4.750593824,
0.03588,-3.725108716,0.03588,4.019733236,
0.0359,-5.186829892,0.0359,3.654302942,
0.03592,-2.628817833,0.03592,4.019733236,
0.03594,-3.359678421,0.03594,4.019733236,
0.03596,-2.994248127,0.03596,3.654302942,
0.03598,-1.897957245,0.03598,4.019733236,
0.036,-2.263387539,0.036,3.654302942,
0.03602,-1.167096656,0.03602,4.019733236,
0.03604,-1.167096656,0.03604,4.38516353,
0.03606,1.390915403,0.03606,4.019733236,
0.03608,0.6600548145,0.03608,4.019733236,
0.0361,1.390915403,0.0361,4.38516353,
0.03612,1.390915403,0.03612,4.019733236,
0.03614,1.756345697,0.03614,4.019733236,
0.03616,2.487206285,0.03616,4.38516353,
0.03618,3.583497168,0.03618,4.38516353,
0.0362,2.85263658,0.0362,3.654302942,
0.03622,3.583497168,0.03622,4.019733236,
0.03624,3.583497168,0.03624,4.38516353,
0.03626,3.218066874,0.03626,3.654302942,
0.03628,2.487206285,0.03628,4.38516353,
0.0363,3.948927462,0.0363,4.019733236,
0.03632,3.218066874,0.03632,4.019733236,
0.03634,3.583497168,0.03634,4.38516353,
0.03636,4.314357756,0.03636,4.019733236,
0.03638,3.583497168,0.03638,3.654302942,
0.0364,2.85263658,0.0364,4.019733236,
0.03642,2.85263658,0.03642,4.38516353,
0.03644,1.756345697,0.03644,4.019733236,
0.03646,2.487206285,0.03646,4.019733236,
0.03648,2.85263658,0.03648,4.38516353,
0.0365,0.2946245204,0.0365,4.019733236,
0.03652,1.756345697,0.03652,4.019733236,
0.03654,-0.0708057738,0.03654,4.019733236,
0.03656,-1.167096656,0.03656,4.019733236,
0.03658,-0.436236068,0.03658,4.38516353,
0.0366,-1.53252695,0.0366,4.38516353,
0.03662,-1.53252695,0.03662,3.654302942,
0.03664,-4.09053901,0.03664,4.38516353,
0.03666,-1.897957245,0.03666,4.38516353,
0.03668,-2.263387539,0.03668,3.654302942,
0.0367,-3.359678421,0.0367,4.38516353,
0.03672,-1.53252695,0.03672,4.019733236,
0.03674,-4.09053901,0.03674,3.654302942,
0.03676,-4.455969304,0.03676,4.38516353,
0.03678,-0.8016663621,0.03678,4.38516353,
0.0368,-4.09053901,0.0368,3.654302942,
0.03682,-3.359678421,0.03682,4.019733236,
0.03684,-2.628817833,0.03684,4.019733236,
0.03686,-2.628817833,0.03686,4.019733236,
0.03688,-1.167096656,0.03688,4.38516353,
0.0369,-1.897957245,0.0369,4.019733236,
0.03692,-0.0708057738,0.03692,4.019733236,
0.03694,0.6600548145,0.03694,5.116024118,
0.03696,-1.167096656,0.03696,4.019733236,
0.03698,-0.0708057738,0.03698,4.019733236,
0.037,-1.53252695,0.037,4.750593824,
0.03702,-0.0708057738,0.03702,4.019733236,
0.03704,1.025485109,0.03704,4.019733236,
0.03706,1.756345697,0.03706,5.116024118,
0.03708,-0.0708057738,0.03708,4.019733236,
0.0371,2.121775991,0.0371,4.019733236,
0.03712,2.487206285,0.03712,4.750593824,
0.03714,1.756345697,0.03714,4.38516353,
0.03716,3.583497168,0.03716,4.019733236,
0.03718,4.67978805,0.03718,4.750593824,
0.0372,5.410648639,0.0372,4.38516353,
0.03722,3.218066874,0.03722,4.019733236,
0.03724,5.045218345,0.03724,4.750593824,
0.03726,3.218066874,0.03726,4.38516353,
0.03728,3.948927462,0.03728,4.38516353,
0.0373,3.218066874,0.0373,5.116024118,
0.03732,2.487206285,0.03732,4.38516353,
0.03734,1.756345697,0.03734,4.019733236,
0.03736,2.487206285,0.03736,4.750593824,
0.03738,2.85263658,0.03738,4.38516353,
0.0374,1.025485109,0.0374,4.019733236,
0.03742,1.756345697,0.03742,5.116024118,
0.03744,0.6600548145,0.03744,4.019733236,
0.03746,-0.0708057738,0.03746,3.654302942,
0.03748,-0.8016663621,0.03748,4.38516353,
0.0375,-0.436236068,0.0375,4.019733236,
0.03752,-3.725108716,0.03752,4.38516353,
0.03754,-1.53252695,0.03754,4.38516353,
0.03756,-4.09053901,0.03756,3.654302942,
0.03758,-2.628817833,0.03758,4.750593824,
0.0376,-2.994248127,0.0376,4.750593824,
0.03762,-3.359678421,0.03762,4.019733236,
0.03764,-2.628817833,0.03764,4.019733236,
0.03766,-2.994248127,0.03766,4.38516353,
0.03768,-3.725108716,0.03768,4.019733236,
0.0377,-4.09053901,0.0377,4.38516353,
0.03772,-2.994248127,0.03772,4.019733236,
0.03774,-5.186829892,0.03774,4.38516353,
0.03776,-3.725108716,0.03776,4.019733236,
0.03778,-2.994248127,0.03778,4.38516353,
0.0378,-3.359678421,0.0378,4.019733236,
0.03782,-4.821399598,0.03782,3.654302942,
0.03784,-2.263387539,0.03784,4.38516353,
0.03786,-1.897957245,0.03786,4.019733236,
0.03788,-0.8016663621,0.03788,5.846884707,
0.0379,-0.436236068,0.0379,4.750593824,
0.03792,-0.8016663621,0.03792,4.38516353,
0.03794,-0.0708057738,0.03794,4.38516353,
0.03796,1.390915403,0.03796,4.38516353,
0.03798,1.390915403,0.03798,2.558012059,
0.038,1.390915403,0.038,4.019733236,
0.03802,2.85263658,0.03802,4.38516353,
0.03804,1.390915403,0.03804,4.38516353,
0.03806,1.025485109,0.03806,4.019733236,
0.03808,2.487206285,0.03808,6.212315001,
0.0381,2.487206285,0.0381,4.019733236,
0.03812,3.583497168,0.03812,4.38516353,
0.03814,3.948927462,0.03814,4.38516353,
0.03816,2.487206285,0.03816,4.750593824,
0.03818,2.487206285,0.03818,2.558012059,
0.0382,3.583497168,0.0382,4.750593824,
0.03822,2.85263658,0.03822,3.654302942,
0.03824,2.85263658,0.03824,4.019733236,
0.03826,2.85263658,0.03826,4.38516353,
0.03828,2.487206285,0.03828,4.750593824,
0.0383,2.487206285,0.0383,4.019733236,
0.03832,1.756345697,0.03832,4.750593824,
0.03834,0.2946245204,0.03834,4.38516353,
0.03836,0.2946245204,0.03836,4.38516353,
0.03838,1.025485109,0.03838,5.116024118,
0.0384,-1.53252695,0.0384,4.750593824,
0.03842,-0.8016663621,0.03842,4.38516353,
0.03844,-0.436236068,0.03844,4.38516353,
0.03846,-1.53252695,0.03846,4.38516353,
0.03848,-2.263387539,0.03848,3.654302942,
0.0385,-1.53252695,0.0385,4.750593824,
0.03852,-3.359678421,0.03852,4.38516353,
0.03854,-2.263387539,0.03854,4.019733236,
0.03856,-2.994248127,0.03856,4.750593824,
0.03858,-1.897957245,0.03858,5.481454413,
0.0386,-3.725108716,0.0386,4.750593824,
0.03862,-2.994248127,0.03862,4.750593824,
0.03864,-3.725108716,0.03864,4.019733236,
0.03866,-1.167096656,0.03866,4.019733236,
0.03868,-2.628817833,0.03868,4.750593824,
0.0387,-4.09053901,0.0387,4.38516353,
0.03872,-4.09053901,0.03872,4.38516353,
0.03874,-2.263387539,0.03874,4.750593824,
0.03876,-2.628817833,0.03876,4.38516353,
0.03878,-2.263387539,0.03878,3.654302942,
0.0388,-0.8016663621,0.0388,5.116024118,
0.03882,-0.436236068,0.03882,4.019733236,
0.03884,-0.0708057738,0.03884,5.116024118,
0.03886,0.6600548145,0.03886,4.750593824,
0.03888,2.121775991,0.03888,4.750593824,
0.0389,1.025485109,0.0389,4.38516353,
0.03892,0.2946245204,0.03892,4.38516353,
0.03894,1.756345697,0.03894,4.019733236,
0.03896,3.218066874,0.03896,4.750593824,
0.03898,2.85263658,0.03898,4.38516353,
0.039,2.487206285,0.039,4.019733236,
0.03902,3.218066874,0.03902,4.38516353,
0.03904,3.218066874,0.03904,4.750593824,
0.03906,3.583497168,0.03906,4.750593824,
0.03908,4.314357756,0.03908,4.38516353,
0.0391,4.67978805,0.0391,4.38516353,
0.03912,3.948927462,0.03912,4.38516353,
0.03914,3.218066874,0.03914,4.019733236,
0.03916,3.583497168,0.03916,4.38516353,
0.03918,2.85263658,0.03918,4.750593824,
0.0392,3.218066874,0.0392,4.38516353,
0.03922,1.756345697,0.03922,3.654302942,
0.03924,1.390915403,0.03924,4.750593824,
0.03926,0.6600548145,0.03926,4.38516353,
0.03928,1.756345697,0.03928,4.019733236,
0.0393,1.390915403,0.0393,4.750593824,
0.03932,0.6600548145,0.03932,4.38516353,
0.03934,-0.436236068,0.03934,4.750593824,
0.03936,-1.167096656,0.03936,4.38516353,
0.03938,-1.167096656,0.03938,2.923442353,
0.0394,-0.8016663621,0.0394,4.38516353,
0.03942,-3.359678421,0.03942,5.116024118,
0.03944,-2.263387539,0.03944,4.750593824,
0.03946,-2.628817833,0.03946,3.654302942,
0.03948,-4.455969304,0.03948,4.750593824,
0.0395,-4.455969304,0.0395,4.38516353,
0.03952,-3.359678421,0.03952,4.019733236,
0.03954,-2.263387539,0.03954,5.116024118,
0.03956,-4.455969304,0.03956,4.38516353,
0.03958,-4.455969304,0.03958,4.38516353,
0.0396,-4.09053901,0.0396,5.116024118,
0.03962,-2.994248127,0.03962,4.750593824,
0.03964,-3.359678421,0.03964,4.019733236,
0.03966,-3.359678421,0.03966,4.750593824,
0.03968,-3.359678421,0.03968,4.019733236,
0.0397,-0.0708057738,0.0397,4.019733236,
0.03972,-1.897957245,0.03972,4.750593824,
0.03974,-1.53252695,0.03974,4.019733236,
0.03976,-1.167096656,0.03976,4.019733236,
0.03978,-0.436236068,0.03978,4.019733236,
0.0398,0.6600548145,0.0398,4.019733236,
0.03982,0.2946245204,0.03982,4.38516353,
0.03984,3.218066874,0.03984,4.38516353,
0.03986,2.121775991,0.03986,4.019733236,
0.03988,2.121775991,0.03988,4.38516353,
0.0399,2.121775991,0.0399,4.019733236,
0.03992,2.487206285,0.03992,4.019733236,
0.03994,3.583497168,0.03994,4.750593824,
0.03996,2.487206285,0.03996,4.38516353,
0.03998,3.218066874,0.03998,4.38516353,
0.04,2.85263658,0.04,4.750593824,
0.04002,3.218066874,0.04002,4.38516353,
0.04004,2.85263658,0.04004,4.019733236,
0.04006,1.756345697,0.04006,4.38516353,
0.04008,3.583497168,0.04008,4.38516353,
0.0401,3.583497168,0.0401,4.019733236,
0.04012,2.85263658,0.04012,4.750593824,
0.04014,3.218066874,0.04014,4.019733236,
0.04016,2.121775991,0.04016,4.38516353,
0.04018,1.390915403,0.04018,4.38516353,
0.0402,0.6600548145,0.0402,4.38516353,
0.04022,2.487206285,0.04022,4.019733236,
0.04024,-0.0708057738,0.04024,4.750593824,
0.04026,-0.0708057738,0.04026,4.38516353,
0.04028,-0.436236068,0.04028,4.019733236,
0.0403,-1.53252695,0.0403,5.116024118,
0.04032,-2.263387539,0.04032,4.38516353,
0.04034,-1.897957245,0.04034,4.019733236,
0.04036,-3.725108716,0.04036,4.750593824,
0.04038,-3.359678421,0.04038,4.019733236,
0.0404,-3.725108716,0.0404,3.654302942,
0.04042,-3.725108716,0.04042,4.750593824,
0.04044,-3.725108716,0.04044,4.38516353,
0.04046,-2.263387539,0.04046,4.019733236,
0.04048,-3.359678421,0.04048,4.750593824,
0.0405,-4.09053901,0.0405,3.654302942,
0.04052,-7.013981363,0.04052,4.019733236,
0.04054,-3.725108716,0.04054,4.750593824,
0.04056,-2.628817833,0.04056,4.38516353,
0.04058,-2.628817833,0.04058,4.38516353,
0.0406,-3.359678421,0.0406,5.481454413,
0.04062,-2.628817833,0.04062,4.019733236,
0.04064,-1.897957245,0.04064,2.923442353,
0.04066,-1.167096656,0.04066,4.750593824,
0.04068,-2.263387539,0.04068,3.654302942,
0.0407,-1.53252695,0.0407,2.923442353,
0.04072,-0.436236068,0.04072,4.38516353,
0.04074,-0.436236068,0.04074,4.019733236,
0.04076,0.6600548145,0.04076,4.38516353,
0.04078,1.756345697,0.04078,4.750593824,
0.0408,0.6600548145,0.0408,5.116024118,
0.04082,1.756345697,0.04082,3.654302942,
0.04084,2.487206285,0.04084,4.750593824,
0.04086,2.85263658,0.04086,4.019733236,
0.04088,2.487206285,0.04088,3.654302942,
0.0409,4.67978805,0.0409,3.654302942,
0.04092,3.218066874,0.04092,4.019733236,
0.04094,3.218066874,0.04094,3.288872648,
0.04096,3.948927462,0.04096,4.750593824,
0.04098,2.487206285,0.04098,4.019733236,
0.041,3.218066874,0.041,4.750593824,
0.04102,3.583497168,0.04102,4.38516353,
0.04104,2.121775991,0.04104,4.019733236,
0.04106,2.487206285,0.04106,4.019733236,
0.04108,2.487206285,0.04108,4.750593824,
0.0411,1.756345697,0.0411,4.38516353,
0.04112,1.390915403,0.04112,4.38516353,
0.04114,0.2946245204,0.04114,4.38516353,
0.04116,1.390915403,0.04116,4.38516353,
0.04118,0.2946245204,0.04118,4.019733236,
0.0412,-0.436236068,0.0412,6.212315001,
0.04122,-0.436236068,0.04122,4.019733236,
0.04124,-1.53252695,0.04124,4.019733236,
0.04126,-1.167096656,0.04126,4.38516353,
0.04128,-2.628817833,0.04128,4.019733236,
0.0413,-2.263387539,0.0413,3.288872648,
0.04132,-0.8016663621,0.04132,4.750593824,
0.04134,-4.09053901,0.04134,4.019733236,
0.04136,-4.09053901,0.04136,4.019733236,
0.04138,-5.552260186,0.04138,4.750593824,
0.0414,-4.09053901,0.0414,4.019733236,
0.04142,-5.552260186,0.04142,4.019733236,
0.04144,-2.994248127,0.04144,4.750593824,
0.04146,-4.09053901,0.04146,4.019733236,
0.04148,-4.455969304,0.04148,4.019733236,
0.0415,-2.628817833,0.0415,5.116024118,
0.04152,-2.994248127,0.04152,4.019733236,
0.04154,-2.263387539,0.04154,4.019733236,
0.04156,-2.994248127,0.04156,4.750593824,
0.04158,-2.263387539,0.04158,4.019733236,
0.0416,-1.167096656,0.0416,4.019733236,
0.04162,-2.263387539,0.04162,4.750593824,
0.04164,-0.436236068,0.04164,4.750593824,
0.04166,1.756345697,0.04166,4.019733236,
0.04168,0.2946245204,0.04168,4.38516353,
0.0417,-0.436236068,0.0417,4.019733236,
0.04172,2.487206285,0.04172,4.019733236,
0.04174,1.756345697,0.04174,4.750593824,
0.04176,2.121775991,0.04176,4.38516353,
0.04178,3.218066874,0.04178,4.019733236,
0.0418,2.85263658,0.0418,4.750593824,
0.04182,3.948927462,0.04182,4.750593824,
0.04184,3.583497168,0.04184,4.019733236,
0.04186,2.85263658,0.04186,4.750593824,
0.04188,5.776078933,0.04188,4.750593824,
0.0419,3.583497168,0.0419,4.019733236,
0.04192,2.121775991,0.04192,4.750593824,
0.04194,2.85263658,0.04194,5.116024118,
0.04196,3.583497168,0.04196,4.38516353,
0.04198,3.583497168,0.04198,4.750593824,
0.042,1.390915403,0.042,4.750593824,
0.04202,2.85263658,0.04202,4.019733236,
0.04204,3.948927462,0.04204,4.750593824,
0.04206,1.025485109,0.04206,4.38516353,
0.04208,1.025485109,0.04208,4.019733236,
0.0421,0.6600548145,0.0421,4.750593824,
0.04212,1.756345697,0.04212,4.38516353,
0.04214,0.2946245204,0.04214,3.654302942,
0.04216,-0.8016663621,0.04216,4.750593824,
0.04218,-2.628817833,0.04218,4.38516353,
0.0422,-1.167096656,0.0422,4.019733236,
0.04222,-4.455969304,0.04222,5.116024118,
0.04224,-2.994248127,0.04224,4.38516353,
0.04226,-2.994248127,0.04226,4.019733236,
0.04228,-3.725108716,0.04228,4.750593824,
0.0423,-2.628817833,0.0423,4.750593824,
0.04232,-4.455969304,0.04232,4.38516353,
0.04234,-4.09053901,0.04234,4.750593824,
0.04236,-4.821399598,0.04236,4.38516353,
0.04238,-3.725108716,0.04238,4.38516353,
0.0424,-4.09053901,0.0424,4.38516353,
0.04242,-6.283120775,0.04242,4.38516353,
0.04244,-2.994248127,0.04244,4.38516353,
0.04246,-2.628817833,0.04246,5.116024118,
0.04248,-2.994248127,0.04248,4.750593824,
0.0425,-1.897957245,0.0425,4.019733236,
0.04252,-2.263387539,0.04252,4.750593824,
0.04254,-2.263387539,0.04254,4.38516353,
0.04256,-0.436236068,0.04256,4.38516353,
0.04258,-0.8016663621,0.04258,4.750593824,
0.0426,-0.0708057738,0.0426,4.38516353,
0.04262,1.390915403,0.04262,4.019733236,
0.04264,1.756345697,0.04264,4.750593824,
0.04266,1.025485109,0.04266,4.38516353,
0.04268,2.85263658,0.04268,4.38516353,
0.0427,2.85263658,0.0427,4.38516353,
0.04272,1.756345697,0.04272,4.750593824,
0.04274,2.85263658,0.04274,4.019733236,
0.04276,2.121775991,0.04276,4.38516353,
0.04278,2.85263658,0.04278,5.116024118,
0.0428,3.948927462,0.0428,4.38516353,
0.04282,1.025485109,0.04282,4.750593824,
0.04284,3.948927462,0.04284,4.750593824,
0.04286,3.218066874,0.04286,4.019733236,
0.04288,2.85263658,0.04288,4.750593824,
0.0429,3.218066874,0.0429,4.38516353,
0.04292,3.218066874,0.04292,4.019733236,
0.04294,2.487206285,0.04294,4.38516353,
0.04296,1.390915403,0.04296,4.38516353,
0.04298,1.756345697,0.04298,4.019733236,
0.043,0.6600548145,0.043,4.750593824,
0.04302,1.025485109,0.04302,4.019733236,
0.04304,-0.436236068,0.04304,4.019733236,
0.04306,0.6600548145,0.04306,4.750593824,
0.04308,-0.8016663621,0.04308,4.019733236,
0.0431,-0.0708057738,0.0431,4.38516353,
0.04312,-0.0708057738,0.04312,4.019733236,
0.04314,-4.09053901,0.04314,4.38516353,
0.04316,-1.897957245,0.04316,4.38516353,
0.04318,-2.994248127,0.04318,4.38516353,
0.0432,-4.821399598,0.0432,4.019733236,
0.04322,-4.09053901,0.04322,4.019733236,
0.04324,-0.436236068,0.04324,4.38516353,
0.04326,-4.09053901,0.04326,4.38516353,
0.04328,-2.628817833,0.04328,4.750593824,
0.0433,-4.09053901,0.0433,4.38516353,
0.04332,-4.455969304,0.04332,4.750593824,
0.04334,-3.725108716,0.04334,4.38516353,
0.04336,-3.725108716,0.04336,4.750593824,
0.04338,-2.628817833,0.04338,4.750593824,
0.0434,-0.436236068,0.0434,4.019733236,
0.04342,-1.897957245,0.04342,3.654302942,
0.04344,-2.263387539,0.04344,4.750593824,
0.04346,-1.897957245,0.04346,4.750593824,
0.04348,-0.8016663621,0.04348,4.750593824,
0.0435,-0.436236068,0.0435,4.38516353,
0.04352,0.6600548145,0.04352,4.750593824,
0.04354,0.2946245204,0.04354,4.38516353,
0.04356,0.2946245204,0.04356,4.750593824,
0.04358,-0.0708057738,0.04358,3.288872648,
0.0436,3.218066874,0.0436,3.654302942,
0.04362,2.85263658,0.04362,3.654302942,
0.04364,2.121775991,0.04364,4.38516353,
0.04366,2.487206285,0.04366,3.654302942,
0.04368,3.218066874,0.04368,4.019733236,
0.0437,3.583497168,0.0437,4.38516353,
0.04372,2.121775991,0.04372,2.192581765,
0.04374,4.314357756,0.04374,4.38516353,
0.04376,3.583497168,0.04376,4.38516353,
0.04378,2.487206285,0.04378,3.654302942,
0.0438,4.314357756,0.0438,4.019733236,
0.04382,3.948927462,0.04382,5.481454413,
0.04384,4.67978805,0.04384,3.654302942,
0.04386,2.85263658,0.04386,4.019733236,
0.04388,2.85263658,0.04388,4.38516353,
0.0439,2.121775991,0.0439,3.654302942,
0.04392,2.85263658,0.04392,3.654302942,
0.04394,0.2946245204,0.04394,4.38516353,
0.04396,0.2946245204,0.04396,4.019733236,
0.04398,-0.0708057738,0.04398,4.019733236,
0.044,0.6600548145,0.044,4.38516353,
0.04402,-2.263387539,0.04402,4.38516353,
0.04404,-1.897957245,0.04404,4.019733236,
0.04406,-1.167096656,0.04406,3.654302942,
0.04408,-1.167096656,0.04408,4.019733236,
0.0441,-0.8016663621,0.0441,4.38516353,
0.04412,-3.725108716,0.04412,4.019733236,
0.04414,-3.725108716,0.04414,4.019733236,
0.04416,-2.628817833,0.04416,4.750593824,
0.04418,-3.725108716,0.04418,4.750593824,
0.0442,-3.359678421,0.0442,4.750593824,
0.04422,-2.994248127,0.04422,5.481454413,
0.04424,-4.09053901,0.04424,4.38516353,
0.04426,-3.359678421,0.04426,4.019733236,
0.04428,-2.994248127,0.04428,4.38516353,
0.0443,-2.263387539,0.0443,4.38516353,
0.04432,-2.994248127,0.04432,3.288872648,
0.04434,-2.263387539,0.04434,4.019733236,
0.04436,-3.725108716,0.04436,4.019733236,
0.04438,-2.628817833,0.04438,4.38516353,
0.0444,-1.53252695,0.0444,4.750593824,
0.04442,-1.167096656,0.04442,4.38516353,
0.04444,-0.8016663621,0.04444,4.38516353,
0.04446,-0.0708057738,0.04446,4.38516353,
0.04448,-0.0708057738,0.04448,4.38516353,
0.0445,1.390915403,0.0445,4.38516353,
0.04452,1.756345697,0.04452,3.654302942,
0.04454,1.390915403,0.04454,4.38516353,
0.04456,3.218066874,0.04456,4.750593824,
0.04458,2.121775991,0.04458,4.38516353,
0.0446,3.948927462,0.0446,4.38516353,
0.04462,2.85263658,0.04462,4.750593824,
0.04464,3.948927462,0.04464,4.019733236,
0.04466,4.314357756,0.04466,4.019733236,
0.04468,4.314357756,0.04468,4.38516353,
0.0447,3.583497168,0.0447,4.019733236,
0.04472,3.948927462,0.04472,4.38516353,
0.04474,3.218066874,0.04474,4.019733236,
0.04476,3.218066874,0.04476,4.38516353,
0.04478,2.487206285,0.04478,4.38516353,
0.0448,3.218066874,0.0448,4.019733236,
0.04482,2.121775991,0.04482,4.38516353,
0.04484,-1.167096656,0.04484,4.750593824,
0.04486,1.756345697,0.04486,4.38516353,
0.04488,2.487206285,0.04488,4.019733236,
0.0449,0.6600548145,0.0449,4.38516353,
0.04492,-0.0708057738,0.04492,4.38516353,
0.04494,-0.8016663621,0.04494,4.750593824,
0.04496,2.85263658,0.04496,4.38516353,
0.04498,-2.628817833,0.04498,4.750593824,
0.045,-1.897957245,0.045,4.38516353,
0.04502,-2.263387539,0.04502,4.38516353,
0.04504,-1.53252695,0.04504,4.750593824,
0.04506,-1.53252695,0.04506,4.38516353,
0.04508,-2.628817833,0.04508,4.38516353,
0.0451,-3.359678421,0.0451,4.750593824,
0.04512,-6.283120775,0.04512,4.38516353,
0.04514,-2.994248127,0.04514,4.38516353,
0.04516,-3.359678421,0.04516,4.38516353,
0.04518,-3.725108716,0.04518,4.38516353,
0.0452,-3.359678421,0.0452,4.38516353,
0.04522,-3.725108716,0.04522,4.38516353,
0.04524,-3.725108716,0.04524,4.38516353,
0.04526,-2.994248127,0.04526,3.654302942,
0.04528,-1.897957245,0.04528,4.750593824,
0.0453,-2.263387539,0.0453,4.38516353,
0.04532,-1.53252695,0.04532,4.38516353,
0.04534,-1.167096656,0.04534,4.750593824,
0.04536,-0.436236068,0.04536,4.38516353,
0.04538,1.025485109,0.04538,4.38516353,
0.0454,-0.436236068,0.0454,4.38516353,
0.04542,0.2946245204,0.04542,4.38516353,
0.04544,0.6600548145,0.04544,4.38516353,
0.04546,1.390915403,0.04546,4.38516353,
0.04548,1.390915403,0.04548,4.38516353,
0.0455,4.67978805,0.0455,4.38516353,
0.04552,3.583497168,0.04552,4.38516353,
0.04554,2.85263658,0.04554,4.019733236,
0.04556,4.314357756,0.04556,4.019733236,
0.04558,3.948927462,0.04558,4.750593824,
0.0456,2.487206285,0.0456,4.38516353,
0.04562,3.583497168,0.04562,4.019733236,
0.04564,2.85263658,0.04564,4.38516353,
0.04566,3.218066874,0.04566,4.750593824,
0.04568,4.67978805,0.04568,4.38516353,
0.0457,3.583497168,0.0457,4.750593824,
0.04572,2.487206285,0.04572,4.38516353,
0.04574,3.218066874,0.04574,4.019733236,
0.04576,0.6600548145,0.04576,4.750593824,
0.04578,3.218066874,0.04578,4.750593824,
0.0458,2.121775991,0.0458,3.654302942,
0.04582,0.6600548145,0.04582,4.750593824,
0.04584,0.2946245204,0.04584,4.38516353,
0.04586,-0.0708057738,0.04586,4.750593824,
0.04588,-0.0708057738,0.04588,4.750593824,
0.0459,-1.53252695,0.0459,4.750593824,
0.04592,-1.53252695,0.04592,4.750593824,
0.04594,-1.53252695,0.04594,4.750593824,
0.04596,-2.628817833,0.04596,4.019733236,
0.04598,-2.994248127,0.04598,4.019733236,
0.046,-2.994248127,0.046,5.116024118,
0.04602,-4.09053901,0.04602,4.38516353,
0.04604,-2.994248127,0.04604,4.38516353,
0.04606,-2.628817833,0.04606,4.750593824,
0.04608,-4.821399598,0.04608,4.019733236,
0.0461,-3.359678421,0.0461,3.654302942,
0.04612,-5.186829892,0.04612,4.750593824,
0.04614,-4.09053901,0.04614,4.750593824,
0.04616,-2.994248127,0.04616,4.019733236,
0.04618,-1.897957245,0.04618,4.38516353,
0.0462,-3.359678421,0.0462,4.38516353,
0.04622,-2.994248127,0.04622,4.019733236,
0.04624,-1.897957245,0.04624,4.019733236,
0.04626,-2.994248127,0.04626,4.019733236,
0.04628,-0.8016663621,0.04628,4.38516353,
0.0463,-0.0708057738,0.0463,4.750593824,
0.04632,-0.0708057738,0.04632,5.481454413,
0.04634,0.2946245204,0.04634,4.38516353,
0.04636,1.390915403,0.04636,4.750593824,
0.04638,0.2946245204,0.04638,4.38516353,
0.0464,2.121775991,0.0464,4.38516353,
0.04642,2.121775991,0.04642,5.116024118,
0.04644,2.487206285,0.04644,5.116024118,
0.04646,3.583497168,0.04646,4.019733236,
0.04648,2.121775991,0.04648,4.38516353,
0.0465,4.314357756,0.0465,4.38516353,
0.04652,4.67978805,0.04652,4.38516353,
0.04654,3.218066874,0.04654,4.38516353,
0.04656,2.121775991,0.04656,4.019733236,
0.04658,4.67978805,0.04658,4.019733236,
0.0466,3.583497168,0.0466,4.38516353,
0.04662,3.583497168,0.04662,3.654302942,
0.04664,3.218066874,0.04664,3.288872648,
0.04666,2.487206285,0.04666,4.38516353,
0.04668,2.121775991,0.04668,4.019733236,
0.0467,2.85263658,0.0467,4.019733236,
0.04672,1.756345697,0.04672,4.38516353,
0.04674,1.756345697,0.04674,4.38516353,
0.04676,0.2946245204,0.04676,4.750593824,
0.04678,-0.0708057738,0.04678,4.019733236,
0.0468,0.2946245204,0.0468,3.654302942,
0.04682,-0.436236068,0.04682,4.38516353,
0.04684,-1.167096656,0.04684,5.116024118,
0.04686,-1.897957245,0.04686,4.019733236,
0.04688,-1.897957245,0.04688,4.38516353,
0.0469,-1.53252695,0.0469,4.38516353,
0.04692,-4.455969304,0.04692,3.654302942,
0.04694,-2.994248127,0.04694,4.38516353,
0.04696,-3.725108716,0.04696,4.019733236,
0.04698,-2.994248127,0.04698,4.019733236,
0.047,-3.359678421,0.047,4.019733236,
0.04702,-2.628817833,0.04702,4.019733236,
0.04704,-3.359678421,0.04704,2.923442353,
0.04706,-2.628817833,0.04706,4.38516353,
0.04708,-1.53252695,0.04708,4.019733236,
0.0471,-2.994248127,0.0471,2.558012059,
0.04712,-2.263387539,0.04712,4.019733236,
0.04714,-3.359678421,0.04714,5.116024118,
0.04716,-1.53252695,0.04716,4.019733236,
0.04718,-1.53252695,0.04718,4.019733236,
0.0472,-1.167096656,0.0472,4.750593824,
0.04722,-1.53252695,0.04722,4.019733236,
0.04724,1.025485109,0.04724,3.654302942,
0.04726,-1.53252695,0.04726,4.38516353,
0.04728,-0.0708057738,0.04728,3.654302942,
0.0473,3.218066874,0.0473,4.38516353,
0.04732,1.756345697,0.04732,4.38516353,
0.04734,1.390915403,0.04734,4.38516353,
0.04736,3.948927462,0.04736,4.38516353,
0.04738,4.314357756,0.04738,4.750593824,
0.0474,2.85263658,0.0474,3.654302942,
0.04742,3.583497168,0.04742,4.750593824,
0.04744,2.487206285,0.04744,4.019733236,
0.04746,4.67978805,0.04746,3.654302942,
0.04748,2.85263658,0.04748,4.019733236,
0.0475,3.948927462,0.0475,4.019733236,
0.04752,3.948927462,0.04752,3.654302942,
0.04754,3.948927462,0.04754,4.019733236,
0.04756,2.487206285,0.04756,4.38516353,
0.04758,2.85263658,0.04758,3.654302942,
0.0476,2.85263658,0.0476,4.38516353,
0.04762,3.583497168,0.04762,4.38516353,
0.04764,1.025485109,0.04764,4.019733236,
0.04766,3.218066874,0.04766,4.38516353,
0.04768,1.025485109,0.04768,4.019733236,
0.0477,-0.436236068,0.0477,4.019733236,
0.04772,0.2946245204,0.04772,4.38516353,
0.04774,-0.8016663621,0.04774,3.654302942,
0.04776,-0.8016663621,0.04776,3.288872648,
0.04778,1.025485109,0.04778,4.38516353,
0.0478,-1.53252695,0.0478,4.750593824,
0.04782,-1.897957245,0.04782,3.654302942,
0.04784,-2.263387539,0.04784,4.019733236,
0.04786,-1.167096656,0.04786,4.38516353,
0.04788,-4.455969304,0.04788,4.019733236,
0.0479,-2.628817833,0.0479,4.019733236,
0.04792,-2.994248127,0.04792,4.38516353,
0.04794,-3.725108716,0.04794,4.019733236,
0.04796,-6.648551069,0.04796,4.38516353,
0.04798,-2.628817833,0.04798,4.019733236,
0.048,-2.994248127,0.048,3.654302942,
0.04802,-4.455969304,0.04802,4.019733236,
0.04804,-2.628817833,0.04804,4.38516353,
0.04806,-1.897957245,0.04806,4.019733236,
0.04808,-2.628817833,0.04808,4.019733236,
0.0481,-1.53252695,0.0481,4.019733236,
0.04812,0.6600548145,0.04812,3.654302942,
0.04814,-1.167096656,0.04814,4.019733236,
0.04816,-1.53252695,0.04816,4.38516353,
0.04818,-0.436236068,0.04818,3.654302942,
0.0482,1.390915403,0.0482,4.38516353,
0.04822,1.025485109,0.04822,4.019733236,
0.04824,1.390915403,0.04824,4.019733236,
0.04826,1.390915403,0.04826,4.019733236,
0.04828,1.025485109,0.04828,4.019733236,
0.0483,1.390915403,0.0483,4.019733236,
0.04832,3.218066874,0.04832,4.38516353,
0.04834,3.948927462,0.04834,3.654302942,
0.04836,3.583497168,0.04836,3.654302942,
0.04838,1.390915403,0.04838,4.750593824,
0.0484,4.314357756,0.0484,3.654302942,
0.04842,3.948927462,0.04842,4.750593824,
0.04844,3.218066874,0.04844,4.38516353,
0.04846,3.218066874,0.04846,4.38516353,
0.04848,3.218066874,0.04848,4.750593824,
0.0485,2.121775991,0.0485,4.38516353,
0.04852,2.487206285,0.04852,4.019733236,
0.04854,2.487206285,0.04854,4.38516353,
0.04856,2.487206285,0.04856,4.38516353,
0.04858,1.390915403,0.04858,4.019733236,
0.0486,1.756345697,0.0486,4.750593824,
0.04862,1.025485109,0.04862,4.38516353,
0.04864,0.2946245204,0.04864,4.019733236,
0.04866,0.6600548145,0.04866,4.38516353,
0.04868,-0.8016663621,0.04868,4.38516353,
0.0487,-1.167096656,0.0487,4.019733236,
0.04872,-1.167096656,0.04872,4.750593824,
0.04874,-1.53252695,0.04874,4.38516353,
0.04876,-1.897957245,0.04876,4.019733236,
0.04878,-2.994248127,0.04878,4.38516353,
0.0488,-4.09053901,0.0488,4.38516353,
0.04882,-3.359678421,0.04882,4.019733236,
0.04884,-2.994248127,0.04884,4.38516353,
0.04886,-4.455969304,0.04886,4.019733236,
0.04888,-4.09053901,0.04888,4.019733236,
0.0489,-4.09053901,0.0489,4.750593824,
0.04892,-4.09053901,0.04892,4.38516353,
0.04894,-3.359678421,0.04894,4.019733236,
0.04896,-4.09053901,0.04896,5.116024118,
0.04898,-3.359678421,0.04898,4.38516353,
0.049,-2.994248127,0.049,4.019733236,
0.04902,-0.0708057738,0.04902,4.750593824,
0.04904,-2.628817833,0.04904,4.019733236,
0.04906,-3.359678421,0.04906,4.38516353,
0.04908,2.487206285,0.04908,4.750593824,
0.0491,-1.897957245,0.0491,4.38516353,
0.04912,0.2946245204,0.04912,4.019733236,
0.04914,-0.436236068,0.04914,5.116024118,
0.04916,0.6600548145,0.04916,4.019733236,
0.04918,1.025485109,0.04918,4.38516353,
0.0492,1.390915403,0.0492,4.750593824,
0.04922,2.121775991,0.04922,4.750593824,
0.04924,2.121775991,0.04924,4.019733236,
0.04926,3.218066874,0.04926,5.481454413,
0.04928,2.121775991,0.04928,4.38516353,
0.0493,3.948927462,0.0493,4.38516353,
0.04932,5.045218345,0.04932,4.019733236,
0.04934,3.218066874,0.04934,4.019733236,
0.04936,1.025485109,0.04936,3.654302942,
0.04938,5.045218345,0.04938,4.38516353,
0.0494,3.948927462,0.0494,4.38516353,
0.04942,1.390915403,0.04942,4.38516353,
0.04944,3.218066874,0.04944,4.750593824,
0.04946,2.121775991,0.04946,6.212315001,
0.04948,1.390915403,0.04948,4.019733236,
0.0495,1.390915403,0.0495,4.38516353,
0.04952,2.487206285,0.04952,4.38516353,
0.04954,1.390915403,0.04954,4.750593824,
0.04956,1.756345697,0.04956,2.192581765,
0.04958,1.390915403,0.04958,4.38516353,
0.0496,0.2946245204,0.0496,4.750593824,
0.04962,-0.8016663621,0.04962,4.750593824,
0.04964,-0.8016663621,0.04964,4.750593824,
0.04966,-1.167096656,0.04966,5.846884707,
0.04968,-2.263387539,0.04968,4.38516353,
0.0497,-2.263387539,0.0497,4.38516353,
0.04972,-3.359678421,0.04972,4.38516353,
0.04974,-3.725108716,0.04974,4.38516353,
0.04976,-4.09053901,0.04976,4.019733236,
0.04978,-4.821399598,0.04978,4.750593824,
0.0498,-3.725108716,0.0498,4.750593824,
0.04982,-4.09053901,0.04982,4.019733236,
0.04984,-2.994248127,0.04984,4.750593824,
0.04986,-4.09053901,0.04986,4.019733236,
0.04988,-1.167096656,0.04988,4.019733236,
0.0499,-1.897957245,0.0499,4.750593824,
0.04992,-3.359678421,0.04992,4.750593824,
0.04994,-2.994248127,0.04994,4.019733236,
0.04996,-2.263387539,0.04996,5.116024118,
0.04998,-2.628817833,0.04998,4.750593824,
0.05,-2.263387539,0.05,4.38516353,
0.05002,-1.53252695,0.05002,4.38516353,
0.05004,-0.8016663621,0.05004,4.38516353,
0.05006,0.6600548145,0.05006,2.558012059,
0.05008,1.025485109,0.05008,4.019733236,
0.0501,2.121775991,0.0501,4.38516353,
0.05012,1.390915403,0.05012,4.019733236,
0.05014,2.121775991,0.05014,5.116024118,
0.05016,1.390915403,0.05016,5.481454413,
0.05018,2.85263658,0.05018,4.019733236,
0.0502,3.218066874,0.0502,4.38516353,
0.05022,2.487206285,0.05022,4.38516353,
0.05024,2.121775991,0.05024,4.019733236,
0.05026,3.948927462,0.05026,5.116024118,
0.05028,3.948927462,0.05028,4.019733236,
0.0503,5.045218345,0.0503,4.750593824,
0.05032,3.948927462,0.05032,4.38516353,
0.05034,4.314357756,0.05034,4.750593824,
0.05036,3.218066874,0.05036,4.38516353,
0.05038,3.218066874,0.05038,4.750593824,
0.0504,1.390915403,0.0504,4.38516353,
0.05042,2.487206285,0.05042,5.116024118,
0.05044,2.487206285,0.05044,4.750593824,
0.05046,1.025485109,0.05046,4.750593824,
0.05048,0.6600548145,0.05048,4.750593824,
0.0505,0.6600548145,0.0505,4.38516353,
0.05052,-0.8016663621,0.05052,4.38516353,
0.05054,0.2946245204,0.05054,4.750593824,
0.05056,-1.167096656,0.05056,4.019733236,
0.05058,-2.628817833,0.05058,4.38516353,
0.0506,-2.263387539,0.0506,4.750593824,
0.05062,-2.263387539,0.05062,4.38516353,
0.05064,-4.455969304,0.05064,4.38516353,
0.05066,-2.994248127,0.05066,5.116024118,
0.05068,-2.994248127,0.05068,4.750593824,
0.0507,-2.994248127,0.0507,4.019733236,
0.05072,-2.628817833,0.05072,4.38516353,
0.05074,-4.821399598,0.05074,4.38516353,
0.05076,-3.725108716,0.05076,3.654302942,
0.05078,-4.09053901,0.05078,4.38516353,
0.0508,-3.725108716,0.0508,4.019733236,
0.05082,-2.628817833,0.05082,4.38516353,
0.05084,-2.263387539,0.05084,4.750593824,
0.05086,-2.628817833,0.05086,4.750593824,
0.05088,-2.263387539,0.05088,4.019733236,
0.0509,-2.994248127,0.0509,5.116024118,
0.05092,-0.0708057738,0.05092,3.654302942,
0.05094,-1.167096656,0.05094,4.750593824,
0.05096,-1.167096656,0.05096,4.019733236,
0.05098,-1.53252695,0.05098,4.38516353,
0.051,0.2946245204,0.051,4.38516353,
0.05102,0.2946245204,0.05102,4.750593824,
0.05104,1.390915403,0.05104,4.019733236,
0.05106,1.390915403,0.05106,4.38516353,
0.05108,2.85263658,0.05108,4.38516353,
0.0511,3.948927462,0.0511,4.750593824,
0.05112,3.218066874,0.05112,4.019733236,
0.05114,3.218066874,0.05114,4.38516353,
0.05116,2.487206285,0.05116,4.38516353,
0.05118,3.583497168,0.05118,4.38516353,
0.0512,3.583497168,0.0512,4.38516353,
0.05122,4.67978805,0.05122,4.38516353,
0.05124,3.583497168,0.05124,4.019733236,
0.05126,3.218066874,0.05126,4.750593824,
0.05128,2.121775991,0.05128,4.38516353,
0.0513,3.218066874,0.0513,4.019733236,
0.05132,2.85263658,0.05132,4.38516353,
0.05134,2.121775991,0.05134,4.38516353,
0.05136,2.487206285,0.05136,4.750593824,
0.05138,2.121775991,0.05138,5.116024118,
0.0514,1.390915403,0.0514,4.019733236,
0.05142,2.487206285,0.05142,4.750593824,
0.05144,1.390915403,0.05144,4.750593824,
0.05146,-0.0708057738,0.05146,4.019733236,
0.05148,-0.8016663621,0.05148,4.019733236,
0.0515,-0.8016663621,0.0515,4.019733236,
0.05152,-1.897957245,0.05152,4.38516353,
0.05154,-0.0708057738,0.05154,4.38516353,
0.05156,-2.263387539,0.05156,4.019733236,
0.05158,-2.263387539,0.05158,4.750593824,
0.0516,-2.628817833,0.0516,4.38516353,
0.05162,-3.725108716,0.05162,4.38516353,
0.05164,-3.725108716,0.05164,4.38516353,
0.05166,-2.994248127,0.05166,4.38516353,
0.05168,-3.725108716,0.05168,4.750593824,
0.0517,-4.821399598,0.0517,4.750593824,
0.05172,-2.994248127,0.05172,4.38516353,
0.05174,-3.359678421,0.05174,4.750593824,
0.05176,-4.455969304,0.05176,4.38516353,
0.05178,-2.628817833,0.05178,4.750593824,
0.0518,-2.263387539,0.0518,4.750593824,
0.05182,-2.263387539,0.05182,4.750593824,
0.05184,-2.628817833,0.05184,4.38516353,
0.05186,-1.53252695,0.05186,4.750593824,
0.05188,-2.263387539,0.05188,4.750593824,
0.0519,-0.8016663621,0.0519,4.750593824,
0.05192,0.6600548145,0.05192,4.38516353,
0.05194,-0.0708057738,0.05194,4.38516353,
0.05196,-1.167096656,0.05196,3.654302942,
0.05198,1.390915403,0.05198,3.654302942,
0.052,1.390915403,0.052,4.019733236,
0.05202,2.487206285,0.05202,4.38516353,
0.05204,2.121775991,0.05204,4.38516353,
0.05206,2.85263658,0.05206,4.38516353,
0.05208,3.218066874,0.05208,5.481454413,
0.0521,2.85263658,0.0521,4.750593824,
0.05212,3.218066874,0.05212,4.019733236,
0.05214,3.218066874,0.05214,4.019733236,
0.05216,3.948927462,0.05216,4.38516353,
0.05218,3.218066874,0.05218,3.654302942,
0.0522,4.314357756,0.0522,3.654302942,
0.05222,2.487206285,0.05222,4.750593824,
0.05224,2.85263658,0.05224,3.654302942,
0.05226,2.487206285,0.05226,4.38516353,
0.05228,2.85263658,0.05228,4.38516353,
0.0523,1.390915403,0.0523,4.019733236,
0.05232,2.487206285,0.05232,4.38516353,
0.05234,1.756345697,0.05234,4.019733236,
0.05236,0.6600548145,0.05236,3.654302942,
0.05238,-0.436236068,0.05238,4.38516353,
0.0524,0.6600548145,0.0524,4.38516353,
0.05242,-0.8016663621,0.05242,4.019733236,
0.05244,-0.0708057738,0.05244,4.38516353,
0.05246,-1.167096656,0.05246,4.019733236,
0.05248,-2.628817833,0.05248,3.288872648,
0.0525,-4.821399598,0.0525,4.019733236,
0.05252,-2.263387539,0.05252,4.019733236,
0.05254,-2.628817833,0.05254,4.019733236,
0.05256,-2.994248127,0.05256,4.38516353,
0.05258,-4.821399598,0.05258,5.116024118,
0.0526,-3.359678421,0.0526,3.288872648,
0.05262,-3.359678421,0.05262,4.38516353,
0.05264,-4.09053901,0.05264,4.38516353,
0.05266,-4.455969304,0.05266,3.654302942,
0.05268,-2.994248127,0.05268,3.654302942,
0.0527,-3.725108716,0.0527,4.019733236,
0.05272,-3.359678421,0.05272,3.654302942,
0.05274,-3.359678421,0.05274,4.38516353,
0.05276,-1.897957245,0.05276,4.019733236,
0.05278,-2.263387539,0.05278,3.654302942,
0.0528,-2.628817833,0.0528,4.38516353,
0.05282,-1.167096656,0.05282,4.019733236,
0.05284,-0.436236068,0.05284,3.654302942,
0.05286,-0.8016663621,0.05286,4.38516353,
0.05288,0.6600548145,0.05288,4.38516353,
0.0529,1.756345697,0.0529,3.654302942,
0.05292,1.390915403,0.05292,4.38516353,
0.05294,2.121775991,0.05294,4.38516353,
0.05296,2.121775991,0.05296,4.019733236,
0.05298,3.218066874,0.05298,4.019733236,
0.053,2.121775991,0.053,4.38516353,
0.05302,3.218066874,0.05302,4.019733236,
0.05304,3.583497168,0.05304,4.38516353,
0.05306,3.948927462,0.05306,4.38516353,
0.05308,3.583497168,0.05308,4.38516353,
0.0531,6.141509227,0.0531,4.38516353,
0.05312,3.583497168,0.05312,4.38516353,
0.05314,3.583497168,0.05314,4.38516353,
0.05316,3.218066874,0.05316,4.019733236,
0.05318,3.218066874,0.05318,4.019733236,
0.0532,1.390915403,0.0532,4.019733236,
0.05322,4.314357756,0.05322,4.750593824,
0.05324,2.85263658,0.05324,4.38516353,
0.05326,1.025485109,0.05326,3.654302942,
0.05328,1.025485109,0.05328,4.38516353,
0.0533,-1.167096656,0.0533,4.38516353,
0.05332,0.2946245204,0.05332,3.654302942,
0.05334,-0.8016663621,0.05334,4.019733236,
0.05336,-0.436236068,0.05336,4.019733236,
0.05338,-1.167096656,0.05338,4.019733236,
0.0534,-0.0708057738,0.0534,4.38516353,
0.05342,-1.53252695,0.05342,4.38516353,
0.05344,-1.897957245,0.05344,4.019733236,
0.05346,-2.628817833,0.05346,4.750593824,
0.05348,-2.628817833,0.05348,5.116024118,
0.0535,-4.09053901,0.0535,3.654302942,
0.05352,-2.628817833,0.05352,4.019733236,
0.05354,-3.359678421,0.05354,4.38516353,
0.05356,-4.455969304,0.05356,3.654302942,
0.05358,-2.628817833,0.05358,4.38516353,
0.0536,-4.821399598,0.0536,4.019733236,
0.05362,-3.725108716,0.05362,3.654302942,
0.05364,-2.994248127,0.05364,4.750593824,
0.05366,-1.53252695,0.05366,4.019733236,
0.05368,-2.628817833,0.05368,3.654302942,
0.0537,-1.53252695,0.0537,4.38516353,
0.05372,-1.167096656,0.05372,4.019733236,
0.05374,-2.994248127,0.05374,4.019733236,
0.05376,-1.53252695,0.05376,4.750593824,
0.05378,0.2946245204,0.05378,4.38516353,
0.0538,0.2946245204,0.0538,3.654302942,
0.05382,1.390915403,0.05382,4.38516353,
0.05384,-0.0708057738,0.05384,4.38516353,
0.05386,1.390915403,0.05386,3.654302942,
0.05388,2.487206285,0.05388,4.019733236,
0.0539,2.85263658,0.0539,4.38516353,
0.05392,3.218066874,0.05392,4.019733236,
0.05394,3.948927462,0.05394,4.750593824,
0.05396,2.85263658,0.05396,4.38516353,
0.05398,2.487206285,0.05398,4.019733236,
0.054,4.67978805,0.054,4.38516353,
0.05402,3.948927462,0.05402,4.38516353,
0.05404,3.583497168,0.05404,4.019733236,
0.05406,2.487206285,0.05406,4.019733236,
0.05408,3.218066874,0.05408,4.019733236,
0.0541,1.756345697,0.0541,4.38516353,
0.05412,2.487206285,0.05412,4.38516353,
0.05414,2.487206285,0.05414,4.38516353,
0.05416,2.85263658,0.05416,4.750593824,
0.05418,1.756345697,0.05418,4.019733236,
0.0542,3.583497168,0.0542,4.38516353,
0.05422,3.218066874,0.05422,4.750593824,
0.05424,-0.436236068,0.05424,4.019733236,
0.05426,-0.8016663621,0.05426,4.38516353,
0.05428,-1.53252695,0.05428,4.38516353,
0.0543,-1.167096656,0.0543,4.019733236,
0.05432,-1.53252695,0.05432,4.019733236,
0.05434,-1.53252695,0.05434,5.481454413,
0.05436,-3.359678421,0.05436,4.019733236,
0.05438,-4.09053901,0.05438,4.38516353,
0.0544,-2.628817833,0.0544,4.019733236,
0.05442,-1.897957245,0.05442,4.019733236,
0.05444,-3.359678421,0.05444,4.019733236,
0.05446,-2.628817833,0.05446,4.019733236,
0.05448,-4.09053901,0.05448,4.38516353,
0.0545,-5.186829892,0.0545,4.750593824,
0.05452,-2.628817833,0.05452,4.38516353,
0.05454,-4.455969304,0.05454,4.38516353,
0.05456,-2.628817833,0.05456,4.38516353,
0.05458,-3.359678421,0.05458,4.750593824,
0.0546,-1.53252695,0.0546,3.654302942,
0.05462,-2.628817833,0.05462,4.38516353,
0.05464,-1.897957245,0.05464,4.38516353,
0.05466,-1.53252695,0.05466,4.38516353,
0.05468,-0.436236068,0.05468,4.38516353,
0.0547,1.025485109,0.0547,4.38516353,
0.05472,0.2946245204,0.05472,4.019733236,
0.05474,0.6600548145,0.05474,4.38516353,
0.05476,0.2946245204,0.05476,4.38516353,
0.05478,1.390915403,0.05478,4.019733236,
0.0548,3.948927462,0.0548,5.481454413,
0.05482,1.390915403,0.05482,4.38516353,
0.05484,4.314357756,0.05484,4.38516353,
0.05486,1.390915403,0.05486,4.750593824,
0.05488,2.487206285,0.05488,4.38516353,
0.0549,2.85263658,0.0549,2.923442353,
0.05492,4.67978805,0.05492,4.38516353,
0.05494,1.756345697,0.05494,4.750593824,
0.05496,4.314357756,0.05496,4.38516353,
0.05498,3.948927462,0.05498,4.750593824,
0.055,4.314357756,0.055,4.019733236,
0.05502,4.314357756,0.05502,4.019733236,
0.05504,3.583497168,0.05504,4.019733236,
0.05506,2.85263658,0.05506,4.019733236,
0.05508,2.487206285,0.05508,4.019733236,
0.0551,2.121775991,0.0551,4.750593824,
0.05512,1.756345697,0.05512,3.654302942,
0.05514,1.025485109,0.05514,4.38516353,
0.05516,0.2946245204,0.05516,4.019733236,
0.05518,-1.53252695,0.05518,4.019733236,
0.0552,1.390915403,0.0552,2.558012059,
0.05522,-0.8016663621,0.05522,3.654302942,
0.05524,-0.8016663621,0.05524,3.654302942,
0.05526,-2.994248127,0.05526,4.38516353,
0.05528,-2.263387539,0.05528,4.019733236,
0.0553,-2.994248127,0.0553,5.481454413,
0.05532,-2.994248127,0.05532,4.019733236,
0.05534,-2.994248127,0.05534,4.38516353,
0.05536,-3.359678421,0.05536,4.019733236,
0.05538,-5.186829892,0.05538,4.019733236,
0.0554,-3.725108716,0.0554,3.288872648,
0.05542,-4.09053901,0.05542,4.019733236,
0.05544,-1.897957245,0.05544,4.38516353,
0.05546,-3.359678421,0.05546,4.019733236,
0.05548,-2.994248127,0.05548,3.654302942,
0.0555,-2.263387539,0.0555,5.481454413,
0.05552,-2.263387539,0.05552,4.019733236,
0.05554,-2.628817833,0.05554,4.019733236,
0.05556,1.025485109,0.05556,4.019733236,
0.05558,0.2946245204,0.05558,4.38516353,
0.0556,-1.167096656,0.0556,4.750593824,
0.05562,-1.53252695,0.05562,4.019733236,
0.05564,-0.0708057738,0.05564,3.654302942,
0.05566,0.2946245204,0.05566,4.38516353,
0.05568,1.390915403,0.05568,4.750593824,
0.0557,1.390915403,0.0557,3.288872648,
0.05572,1.756345697,0.05572,4.019733236,
0.05574,3.583497168,0.05574,4.019733236,
0.05576,2.85263658,0.05576,4.38516353,
0.05578,1.025485109,0.05578,4.019733236,
0.0558,2.121775991,0.0558,4.750593824,
0.05582,2.85263658,0.05582,4.019733236,
0.05584,3.583497168,0.05584,3.654302942,
0.05586,3.583497168,0.05586,4.38516353,
0.05588,4.67978805,0.05588,4.38516353,
0.0559,4.67978805,0.0559,3.288872648,
0.05592,4.67978805,0.05592,4.38516353,
0.05594,4.67978805,0.05594,4.38516353,
0.05596,2.85263658,0.05596,3.654302942,
0.05598,3.583497168,0.05598,4.750593824,
0.056,3.218066874,0.056,4.38516353,
0.05602,1.390915403,0.05602,4.019733236,
0.05604,2.121775991,0.05604,4.38516353,
0.05606,1.025485109,0.05606,3.654302942,
0.05608,0.6600548145,0.05608,3.654302942,
0.0561,-0.8016663621,0.0561,4.750593824,
0.05612,-0.0708057738,0.05612,3.288872648,
0.05614,-0.436236068,0.05614,3.654302942,
0.05616,-0.8016663621,0.05616,4.38516353,
0.05618,-0.436236068,0.05618,4.38516353,
0.0562,-2.994248127,0.0562,4.019733236,
0.05622,-2.263387539,0.05622,4.38516353,
0.05624,-2.263387539,0.05624,4.019733236,
0.05626,-0.436236068,0.05626,3.654302942,
0.05628,-3.359678421,0.05628,4.019733236,
0.0563,-3.359678421,0.0563,4.750593824,
0.05632,-2.628817833,0.05632,4.019733236,
0.05634,-2.263387539,0.05634,4.019733236,
0.05636,-3.725108716,0.05636,4.019733236,
0.05638,-2.994248127,0.05638,3.654302942,
0.0564,-3.359678421,0.0564,3.654302942,
0.05642,-4.09053901,0.05642,4.019733236,
0.05644,-4.09053901,0.05644,4.38516353,
0.05646,-2.263387539,0.05646,3.654302942,
0.05648,-1.897957245,0.05648,4.019733236,
0.0565,-2.628817833,0.0565,4.019733236,
0.05652,-1.897957245,0.05652,4.019733236,
0.05654,-1.167096656,0.05654,3.654302942,
0.05656,-1.167096656,0.05656,3.654302942,
0.05658,-0.0708057738,0.05658,4.38516353,
0.0566,-0.0708057738,0.0566,4.019733236,
0.05662,0.6600548145,0.05662,4.019733236,
0.05664,1.756345697,0.05664,4.38516353,
0.05666,1.390915403,0.05666,4.019733236,
0.05668,0.6600548145,0.05668,3.654302942,
0.0567,2.85263658,0.0567,4.019733236,
0.05672,3.218066874,0.05672,4.019733236,
0.05674,3.948927462,0.05674,3.654302942,
0.05676,4.314357756,0.05676,4.019733236,
0.05678,3.948927462,0.05678,4.019733236,
0.0568,2.85263658,0.0568,4.38516353,
0.05682,4.314357756,0.05682,4.38516353,
0.05684,3.583497168,0.05684,4.38516353,
0.05686,3.218066874,0.05686,4.019733236,
0.05688,5.410648639,0.05688,4.750593824,
0.0569,3.218066874,0.0569,4.019733236,
0.05692,2.85263658,0.05692,4.019733236,
0.05694,4.67978805,0.05694,4.750593824,
0.05696,2.85263658,0.05696,4.019733236,
0.05698,1.756345697,0.05698,4.38516353,
0.057,2.121775991,0.057,4.750593824,
0.05702,0.6600548145,0.05702,3.654302942,
0.05704,1.390915403,0.05704,4.019733236,
0.05706,0.2946245204,0.05706,4.750593824,
0.05708,-0.8016663621,0.05708,4.38516353,
0.0571,-0.8016663621,0.0571,4.019733236,
0.05712,-0.8016663621,0.05712,4.750593824,
0.05714,-2.263387539,0.05714,4.019733236,
0.05716,-1.53252695,0.05716,4.019733236,
0.05718,-1.897957245,0.05718,4.750593824,
0.0572,-2.263387539,0.0572,4.38516353,
0.05722,-3.725108716,0.05722,4.750593824,
0.05724,-2.994248127,0.05724,4.750593824,
0.05726,-4.09053901,0.05726,3.654302942,
0.05728,-5.186829892,0.05728,4.019733236,
0.0573,-3.359678421,0.0573,4.750593824,
0.05732,-3.359678421,0.05732,3.654302942,
0.05734,-4.09053901,0.05734,4.019733236,
0.05736,-2.994248127,0.05736,4.750593824,
0.05738,-3.359678421,0.05738,4.38516353,
0.0574,-4.09053901,0.0574,5.116024118,
0.05742,-1.53252695,0.05742,5.846884707,
0.05744,-2.994248127,0.05744,4.750593824,
0.05746,-2.263387539,0.05746,4.019733236,
0.05748,-0.8016663621,0.05748,4.38516353,
0.0575,-1.167096656,0.0575,4.38516353,
0.05752,-0.436236068,0.05752,3.654302942,
0.05754,1.025485109,0.05754,4.750593824,
0.05756,0.2946245204,0.05756,4.019733236,
0.05758,1.025485109,0.05758,4.38516353,
0.0576,1.025485109,0.0576,4.750593824,
0.05762,1.756345697,0.05762,5.116024118,
0.05764,2.121775991,0.05764,4.38516353,
0.05766,2.487206285,0.05766,4.750593824,
0.05768,3.218066874,0.05768,4.38516353,
0.0577,2.85263658,0.0577,4.38516353,
0.05772,3.583497168,0.05772,5.481454413,
0.05774,3.218066874,0.05774,4.019733236,
0.05776,3.583497168,0.05776,4.019733236,
0.05778,2.85263658,0.05778,5.116024118,
0.0578,2.85263658,0.0578,4.019733236,
0.05782,2.121775991,0.05782,2.923442353,
0.05784,2.85263658,0.05784,4.750593824,
0.05786,2.487206285,0.05786,4.019733236,
0.05788,1.390915403,0.05788,4.019733236,
0.0579,1.390915403,0.0579,4.750593824,
0.05792,1.025485109,0.05792,4.019733236,
0.05794,-0.436236068,0.05794,4.019733236,
0.05796,-0.436236068,0.05796,4.750593824,
0.05798,-0.0708057738,0.05798,4.38516353,
0.058,-1.167096656,0.058,4.019733236,
0.05802,0.6600548145,0.05802,5.481454413,
0.05804,-0.436236068,0.05804,4.019733236,
0.05806,-1.897957245,0.05806,4.019733236,
0.05808,-1.897957245,0.05808,4.750593824,
0.0581,-2.628817833,0.0581,4.38516353,
0.05812,-3.725108716,0.05812,2.923442353,
0.05814,-2.628817833,0.05814,4.38516353,
0.05816,-4.09053901,0.05816,4.019733236,
0.05818,-4.09053901,0.05818,4.019733236,
0.0582,-3.725108716,0.0582,4.38516353,
0.05822,-4.455969304,0.05822,4.38516353,
0.05824,-5.552260186,0.05824,4.019733236,
0.05826,-2.994248127,0.05826,4.750593824,
0.05828,-3.725108716,0.05828,4.38516353,
0.0583,-4.09053901,0.0583,4.019733236,
0.05832,-3.725108716,0.05832,5.481454413,
0.05834,-2.263387539,0.05834,4.38516353,
0.05836,-2.628817833,0.05836,3.288872648,
0.05838,-3.725108716,0.05838,4.750593824,
0.0584,-1.167096656,0.0584,4.019733236,
0.05842,-1.53252695,0.05842,3.288872648,
0.05844,-1.167096656,0.05844,4.750593824,
0.05846,-1.897957245,0.05846,4.38516353,
0.05848,0.2946245204,0.05848,4.38516353,
0.0585,1.390915403,0.0585,4.750593824,
0.05852,1.025485109,0.05852,4.38516353,
0.05854,1.025485109,0.05854,4.019733236,
0.05856,2.85263658,0.05856,4.750593824,
0.05858,2.121775991,0.05858,4.019733236,
0.0586,2.121775991,0.0586,4.38516353,
0.05862,3.218066874,0.05862,4.750593824,
0.05864,2.85263658,0.05864,4.750593824,
0.05866,3.218066874,0.05866,3.654302942,
0.05868,3.948927462,0.05868,4.019733236,
0.0587,4.67978805,0.0587,4.019733236,
0.05872,3.583497168,0.05872,3.654302942,
0.05874,2.85263658,0.05874,4.750593824,
0.05876,3.218066874,0.05876,3.654302942,
0.05878,2.85263658,0.05878,3.654302942,
0.0588,2.85263658,0.0588,4.38516353,
0.05882,3.948927462,0.05882,4.38516353,
0.05884,2.85263658,0.05884,4.750593824,
0.05886,2.85263658,0.05886,4.38516353,
0.05888,-0.436236068,0.05888,4.38516353,
0.0589,1.025485109,0.0589,4.750593824,
0.05892,0.2946245204,0.05892,4.38516353,
0.05894,-0.436236068,0.05894,4.019733236,
