"A0_accX_x","A0_accX_y","A1_rmsX_x","A1_rmsX_y"
0,2.649669286,0,1.827151471,
2e-05,0.4570875206,2e-05,1.461721177,
4e-05,-0.639203362,4e-05,0.7308605883,
6e-05,-0.639203362,6e-05,1.827151471,
8e-05,1.187948109,8e-05,1.827151471,
0.0001,-0.639203362,0.0001,0.7308605883,
0.00012,-0.639203362,0.00012,1.827151471,
0.00014,-0.2737730678,0.00014,2.923442353,
0.00016,-0.2737730678,0.00016,1.461721177,
0.00018,-0.2737730678,0.00018,1.461721177,
0.0002,0.09165722638,0.0002,1.827151471,
0.00022,0.4570875206,0.00022,1.461721177,
0.00024,1.187948109,0.00024,2.192581765,
0.00026,0.8225178147,0.00026,1.827151471,
0.00028,-0.639203362,0.00028,1.096290883,
0.0003,0.09165722638,0.0003,1.827151471,
0.00032,1.918808697,0.00032,1.827151471,
0.00034,0.09165722638,0.00034,1.096290883,
0.00036,-0.639203362,0.00036,1.461721177,
0.00038,1.187948109,0.00038,1.827151471,
0.0004,2.284238991,0.0004,1.096290883,
0.00042,0.4570875206,0.00042,1.827151471,
0.00044,0.09165722638,0.00044,1.461721177,
0.00046,-0.639203362,0.00046,1.096290883,
0.00048,0.09165722638,0.00048,1.827151471,
0.0005,0.8225178147,0.0005,2.192581765,
0.00052,0.4570875206,0.00052,2.192581765,
0.00054,-0.639203362,0.00054,2.192581765,
0.00056,1.187948109,0.00056,2.192581765,
0.00058,-0.639203362,0.00058,1.827151471,
0.0006,-0.2737730678,0.0006,1.827151471,
0.00062,0.09165722638,0.00062,2.192581765,
0.00064,-0.639203362,0.00064,1.096290883,
0.00066,0.8225178147,0.00066,1.827151471,
0.00068,-0.2737730678,0.00068,2.192581765,
0.0007,-0.639203362,0.0007,2.192581765,
0.00072,-0.2737730678,0.00072,1.461721177,
0.00074,-0.639203362,0.00074,1.461721177,
0.00076,-0.639203362,0.00076,2.192581765,
0.00078,0.8225178147,0.00078,1.827151471,
0.0008,0.4570875206,0.0008,2.192581765,
0.00082,0.4570875206,0.00082,1.827151471,
0.00084,-0.2737730678,0.00084,2.192581765,
0.00086,-0.639203362,0.00086,1.461721177,
0.00088,-0.639203362,0.00088,2.192581765,
0.0009,-0.639203362,0.0009,1.827151471,
0.00092,-0.2737730678,0.00092,1.827151471,
0.00094,-0.639203362,0.00094,1.827151471,
0.00096,-0.639203362,0.00096,1.461721177,
0.00098,0.09165722638,0.00098,1.461721177,
0.001,-0.639203362,0.001,1.827151471,
0.00102,-0.639203362,0.00102,1.461721177,
0.00104,-0.639203362,0.00104,1.827151471,
0.00106,-0.2737730678,0.00106,1.827151471,
0.00108,-0.639203362,0.00108,1.096290883,
0.0011,0.09165722638,0.0011,1.827151471,
0.00112,-0.2737730678,0.00112,1.827151471,
0.00114,-0.2737730678,0.00114,1.827151471,
0.00116,1.553378403,0.00116,2.558012059,
0.00118,-0.639203362,0.00118,2.192581765,
0.0012,-0.2737730678,0.0012,1.461721177,
0.00122,0.09165722638,0.00122,2.192581765,
0.00124,-0.2737730678,0.00124,1.827151471,
0.00126,-0.2737730678,0.00126,1.461721177,
0.00128,-0.639203362,0.00128,2.558012059,
0.0013,-0.639203362,0.0013,1.461721177,
0.00132,-0.2737730678,0.00132,1.827151471,
0.00134,-0.639203362,0.00134,2.192581765,
0.00136,-0.639203362,0.00136,1.827151471,
0.00138,-0.639203362,0.00138,1.827151471,
0.0014,0.09165722638,0.0014,2.192581765,
0.00142,-0.2737730678,0.00142,1.827151471,
0.00144,-0.2737730678,0.00144,1.827151471,
0.00146,-0.2737730678,0.00146,2.192581765,
0.00148,-0.639203362,0.00148,1.827151471,
0.0015,-0.639203362,0.0015,1.827151471,
0.00152,2.284238991,0.00152,2.192581765,
0.00154,-0.2737730678,0.00154,1.461721177,
0.00156,-0.2737730678,0.00156,1.827151471,
0.00158,0.4570875206,0.00158,2.192581765,
0.0016,-0.2737730678,0.0016,1.827151471,
0.00162,-0.2737730678,0.00162,1.827151471,
0.00164,0.09165722638,0.00164,2.192581765,
0.00166,1.187948109,0.00166,1.461721177,
0.00168,-0.2737730678,0.00168,1.827151471,
0.0017,-0.2737730678,0.0017,2.192581765,
0.00172,-0.2737730678,0.00172,1.461721177,
0.00174,-0.639203362,0.00174,1.827151471,
0.00176,0.09165722638,0.00176,1.461721177,
0.00178,-0.639203362,0.00178,1.827151471,
0.0018,0.8225178147,0.0018,1.461721177,
0.00182,0.4570875206,0.00182,1.827151471,
0.00184,-0.2737730678,0.00184,1.461721177,
0.00186,-0.639203362,0.00186,2.192581765,
0.00188,-0.2737730678,0.00188,2.192581765,
0.0019,-0.639203362,0.0019,1.461721177,
0.00192,0.4570875206,0.00192,1.827151471,
0.00194,0.4570875206,0.00194,2.192581765,
0.00196,-0.639203362,0.00196,1.827151471,
0.00198,0.4570875206,0.00198,1.461721177,
0.002,0.8225178147,0.002,1.827151471,
0.00202,-0.639203362,0.00202,1.827151471,
0.00204,-0.639203362,0.00204,2.192581765,
0.00206,0.8225178147,0.00206,2.192581765,
0.00208,-0.639203362,0.00208,1.461721177,
0.0021,-0.639203362,0.0021,1.827151471,
0.00212,-0.639203362,0.00212,2.192581765,
0.00214,-0.2737730678,0.00214,1.461721177,
0.00216,0.8225178147,0.00216,1.461721177,
0.00218,-0.639203362,0.00218,2.558012059,
0.0022,-0.2737730678,0.0022,1.461721177,
0.00222,-0.639203362,0.00222,1.461721177,
0.00224,0.8225178147,0.00224,2.558012059,
0.00226,-0.639203362,0.00226,2.192581765,
0.00228,1.918808697,0.00228,1.461721177,
0.0023,-0.639203362,0.0023,2.192581765,
0.00232,-0.2737730678,0.00232,2.192581765,
0.00234,-0.2737730678,0.00234,1.827151471,
0.00236,-0.639203362,0.00236,2.558012059,
0.00238,0.09165722638,0.00238,1.827151471,
0.0024,-0.2737730678,0.0024,1.827151471,
0.00242,-0.2737730678,0.00242,2.192581765,
0.00244,-0.2737730678,0.00244,1.827151471,
0.00246,-0.639203362,0.00246,1.096290883,
0.00248,0.09165722638,0.00248,1.827151471,
0.0025,-0.639203362,0.0025,1.827151471,
0.00252,-0.2737730678,0.00252,1.827151471,
0.00254,0.09165722638,0.00254,2.192581765,
0.00256,-0.2737730678,0.00256,1.827151471,
0.00258,-0.639203362,0.00258,1.461721177,
0.0026,0.09165722638,0.0026,2.192581765,
0.00262,-0.639203362,0.00262,2.192581765,
0.00264,0.8225178147,0.00264,1.827151471,
0.00266,0.8225178147,0.00266,1.827151471,
0.00268,-0.639203362,0.00268,1.827151471,
0.0027,0.4570875206,0.0027,1.461721177,
0.00272,-0.639203362,0.00272,2.558012059,
0.00274,1.187948109,0.00274,1.827151471,
0.00276,0.4570875206,0.00276,1.461721177,
0.00278,0.8225178147,0.00278,2.192581765,
0.0028,-0.639203362,0.0028,1.827151471,
0.00282,-0.639203362,0.00282,1.827151471,
0.00284,0.09165722638,0.00284,2.192581765,
0.00286,-0.639203362,0.00286,1.827151471,
0.00288,0.4570875206,0.00288,1.827151471,
0.0029,0.09165722638,0.0029,2.192581765,
0.00292,1.187948109,0.00292,2.192581765,
0.00294,0.09165722638,0.00294,1.827151471,
0.00296,1.187948109,0.00296,2.558012059,
0.00298,-0.639203362,0.00298,2.192581765,
0.003,2.649669286,0.003,1.827151471,
0.00302,1.187948109,0.00302,2.192581765,
0.00304,-0.639203362,0.00304,2.192581765,
0.00306,-0.2737730678,0.00306,2.923442353,
0.00308,-0.2737730678,0.00308,2.192581765,
0.0031,-0.639203362,0.0031,1.827151471,
0.00312,2.649669286,0.00312,2.192581765,
0.00314,-0.639203362,0.00314,1.827151471,
0.00316,-0.639203362,0.00316,0.3654302942,
0.00318,-0.639203362,0.00318,1.827151471,
0.0032,0.8225178147,0.0032,2.192581765,
0.00322,-0.639203362,0.00322,2.192581765,
0.00324,-0.639203362,0.00324,1.461721177,
0.00326,0.4570875206,0.00326,4.019733236,
0.00328,0.09165722638,0.00328,1.827151471,
0.0033,0.8225178147,0.0033,1.827151471,
0.00332,-0.639203362,0.00332,2.192581765,
0.00334,-0.2737730678,0.00334,2.558012059,
0.00336,0.09165722638,0.00336,1.096290883,
0.00338,-0.2737730678,0.00338,2.192581765,
0.0034,-0.639203362,0.0034,1.827151471,
0.00342,0.4570875206,0.00342,1.827151471,
0.00344,-0.639203362,0.00344,1.827151471,
0.00346,-0.639203362,0.00346,2.558012059,
0.00348,0.09165722638,0.00348,1.827151471,
0.0035,0.09165722638,0.0035,1.461721177,
0.00352,-0.639203362,0.00352,1.827151471,
0.00354,-0.639203362,0.00354,2.192581765,
0.00356,-0.639203362,0.00356,2.558012059,
0.00358,-0.639203362,0.00358,2.192581765,
0.0036,0.4570875206,0.0036,1.827151471,
0.00362,0.4570875206,0.00362,2.558012059,
0.00364,-0.2737730678,0.00364,1.827151471,
0.00366,-0.639203362,0.00366,1.096290883,
0.00368,-0.639203362,0.00368,2.192581765,
0.0037,-0.2737730678,0.0037,1.461721177,
0.00372,-0.639203362,0.00372,1.827151471,
0.00374,-0.2737730678,0.00374,2.558012059,
0.00376,-0.2737730678,0.00376,1.096290883,
0.00378,1.918808697,0.00378,1.827151471,
0.0038,0.09165722638,0.0038,2.192581765,
0.00382,-0.639203362,0.00382,2.192581765,
0.00384,0.09165722638,0.00384,1.827151471,
0.00386,0.09165722638,0.00386,3.288872648,
0.00388,-0.2737730678,0.00388,1.096290883,
0.0039,0.09165722638,0.0039,1.461721177,
0.00392,0.09165722638,0.00392,2.192581765,
0.00394,-0.639203362,0.00394,1.827151471,
0.00396,0.8225178147,0.00396,2.558012059,
0.00398,-0.639203362,0.00398,2.192581765,
0.004,-0.2737730678,0.004,1.827151471,
0.00402,-0.2737730678,0.00402,2.192581765,
0.00404,-0.639203362,0.00404,2.192581765,
0.00406,-0.2737730678,0.00406,1.096290883,
0.00408,-0.2737730678,0.00408,2.192581765,
0.0041,-0.2737730678,0.0041,2.558012059,
0.00412,0.09165722638,0.00412,1.827151471,
0.00414,0.09165722638,0.00414,1.827151471,
0.00416,-0.639203362,0.00416,1.461721177,
0.00418,-0.639203362,0.00418,2.192581765,
0.0042,0.4570875206,0.0042,1.461721177,
0.00422,0.09165722638,0.00422,2.192581765,
0.00424,-0.639203362,0.00424,1.827151471,
0.00426,-0.639203362,0.00426,1.827151471,
0.00428,0.8225178147,0.00428,2.192581765,
0.0043,-0.639203362,0.0043,2.558012059,
0.00432,-0.639203362,0.00432,1.461721177,
0.00434,0.09165722638,0.00434,1.827151471,
0.00436,-0.639203362,0.00436,2.923442353,
0.00438,-0.2737730678,0.00438,1.461721177,
0.0044,0.09165722638,0.0044,2.192581765,
0.00442,-0.639203362,0.00442,1.827151471,
0.00444,0.09165722638,0.00444,1.827151471,
0.00446,-0.2737730678,0.00446,2.923442353,
0.00448,-0.639203362,0.00448,1.827151471,
0.0045,-0.2737730678,0.0045,1.827151471,
0.00452,1.553378403,0.00452,1.827151471,
0.00454,-0.639203362,0.00454,2.192581765,
0.00456,0.4570875206,0.00456,1.461721177,
0.00458,-0.639203362,0.00458,2.192581765,
0.0046,-0.639203362,0.0046,2.192581765,
0.00462,0.4570875206,0.00462,1.827151471,
0.00464,-0.639203362,0.00464,2.192581765,
0.00466,-0.2737730678,0.00466,1.461721177,
0.00468,1.553378403,0.00468,1.096290883,
0.0047,0.09165722638,0.0047,1.827151471,
0.00472,-0.639203362,0.00472,1.827151471,
0.00474,0.09165722638,0.00474,2.192581765,
0.00476,-0.639203362,0.00476,2.558012059,
0.00478,2.284238991,0.00478,1.827151471,
0.0048,0.8225178147,0.0048,1.461721177,
0.00482,-0.2737730678,0.00482,1.461721177,
0.00484,0.8225178147,0.00484,1.827151471,
0.00486,-0.2737730678,0.00486,1.827151471,
0.00488,-0.2737730678,0.00488,1.461721177,
0.0049,-0.2737730678,0.0049,1.461721177,
0.00492,0.09165722638,0.00492,1.461721177,
0.00494,-0.2737730678,0.00494,1.827151471,
0.00496,1.918808697,0.00496,1.827151471,
0.00498,-0.639203362,0.00498,1.461721177,
0.005,-0.2737730678,0.005,1.461721177,
0.00502,-0.2737730678,0.00502,1.827151471,
0.00504,0.09165722638,0.00504,1.461721177,
0.00506,-0.639203362,0.00506,1.461721177,
0.00508,0.4570875206,0.00508,2.192581765,
0.0051,0.09165722638,0.0051,1.461721177,
0.00512,-0.2737730678,0.00512,1.461721177,
0.00514,0.4570875206,0.00514,1.096290883,
0.00516,-0.639203362,0.00516,1.827151471,
0.00518,0.4570875206,0.00518,1.461721177,
0.0052,0.09165722638,0.0052,2.192581765,
0.00522,0.4570875206,0.00522,1.461721177,
0.00524,-0.2737730678,0.00524,1.461721177,
0.00526,1.553378403,0.00526,1.827151471,
0.00528,-0.639203362,0.00528,1.461721177,
0.0053,0.09165722638,0.0053,1.827151471,
0.00532,1.553378403,0.00532,1.827151471,
0.00534,-0.639203362,0.00534,1.461721177,
0.00536,1.553378403,0.00536,1.461721177,
0.00538,-0.639203362,0.00538,2.192581765,
0.0054,0.09165722638,0.0054,1.827151471,
0.00542,0.09165722638,0.00542,1.461721177,
0.00544,0.8225178147,0.00544,1.827151471,
0.00546,0.4570875206,0.00546,1.827151471,
0.00548,-0.639203362,0.00548,1.827151471,
0.0055,-0.2737730678,0.0055,1.827151471,
0.00552,0.09165722638,0.00552,1.827151471,
0.00554,0.4570875206,0.00554,1.096290883,
0.00556,-0.2737730678,0.00556,2.192581765,
0.00558,0.09165722638,0.00558,1.461721177,
0.0056,0.09165722638,0.0056,2.192581765,
0.00562,-0.2737730678,0.00562,1.827151471,
0.00564,-0.2737730678,0.00564,2.192581765,
0.00566,0.4570875206,0.00566,1.827151471,
0.00568,-0.639203362,0.00568,1.461721177,
0.0057,0.4570875206,0.0057,1.827151471,
0.00572,0.4570875206,0.00572,2.192581765,
0.00574,-0.639203362,0.00574,2.192581765,
0.00576,1.918808697,0.00576,1.827151471,
0.00578,0.4570875206,0.00578,1.827151471,
0.0058,-0.639203362,0.0058,1.827151471,
0.00582,0.4570875206,0.00582,1.827151471,
0.00584,-0.2737730678,0.00584,2.192581765,
0.00586,-0.639203362,0.00586,1.827151471,
0.00588,0.4570875206,0.00588,1.827151471,
0.0059,-0.639203362,0.0059,2.192581765,
0.00592,0.09165722638,0.00592,1.461721177,
0.00594,0.09165722638,0.00594,2.192581765,
0.00596,-0.639203362,0.00596,1.827151471,
0.00598,-0.639203362,0.00598,1.827151471,
0.006,0.4570875206,0.006,2.192581765,
0.00602,0.4570875206,0.00602,2.192581765,
0.00604,-0.639203362,0.00604,1.461721177,
0.00606,0.09165722638,0.00606,2.192581765,
0.00608,-0.639203362,0.00608,2.192581765,
0.0061,-0.2737730678,0.0061,1.827151471,
0.00612,-0.2737730678,0.00612,2.192581765,
0.00614,-0.639203362,0.00614,2.192581765,
0.00616,0.09165722638,0.00616,1.827151471,
0.00618,0.09165722638,0.00618,1.827151471,
0.0062,-0.2737730678,0.0062,2.192581765,
0.00622,0.09165722638,0.00622,1.461721177,
0.00624,-0.639203362,0.00624,1.827151471,
0.00626,-0.2737730678,0.00626,1.827151471,
0.00628,0.09165722638,0.00628,2.192581765,
0.0063,-0.639203362,0.0063,2.558012059,
0.00632,-0.639203362,0.00632,2.192581765,
0.00634,-0.2737730678,0.00634,1.827151471,
0.00636,0.09165722638,0.00636,2.192581765,
0.00638,-0.639203362,0.00638,2.192581765,
0.0064,0.09165722638,0.0064,1.827151471,
0.00642,0.4570875206,0.00642,2.192581765,
0.00644,0.09165722638,0.00644,1.827151471,
0.00646,-0.639203362,0.00646,1.827151471,
0.00648,-0.2737730678,0.00648,1.827151471,
0.0065,1.553378403,0.0065,2.192581765,
0.00652,0.8225178147,0.00652,1.461721177,
0.00654,-0.639203362,0.00654,2.192581765,
0.00656,-0.639203362,0.00656,2.558012059,
0.00658,-0.2737730678,0.00658,2.558012059,
0.0066,0.4570875206,0.0066,2.558012059,
0.00662,0.09165722638,0.00662,1.827151471,
0.00664,-0.2737730678,0.00664,1.827151471,
0.00666,0.8225178147,0.00666,1.827151471,
0.00668,-0.639203362,0.00668,1.827151471,
0.0067,-0.639203362,0.0067,1.827151471,
0.00672,-0.2737730678,0.00672,2.192581765,
0.00674,-0.639203362,0.00674,1.827151471,
0.00676,-0.639203362,0.00676,1.827151471,
0.00678,0.8225178147,0.00678,1.096290883,
0.0068,2.649669286,0.0068,1.461721177,
0.00682,0.09165722638,0.00682,1.461721177,
0.00684,-0.639203362,0.00684,2.192581765,
0.00686,-0.2737730678,0.00686,1.827151471,
0.00688,0.4570875206,0.00688,1.096290883,
0.0069,-0.639203362,0.0069,2.558012059,
0.00692,0.8225178147,0.00692,1.827151471,
0.00694,-0.2737730678,0.00694,1.461721177,
0.00696,1.187948109,0.00696,2.192581765,
0.00698,0.4570875206,0.00698,1.827151471,
0.007,-0.2737730678,0.007,1.827151471,
0.00702,-0.2737730678,0.00702,2.192581765,
0.00704,-0.639203362,0.00704,1.827151471,
0.00706,-0.2737730678,0.00706,1.827151471,
0.00708,-0.2737730678,0.00708,2.923442353,
0.0071,-0.639203362,0.0071,1.827151471,
0.00712,-0.639203362,0.00712,1.827151471,
0.00714,0.8225178147,0.00714,2.192581765,
0.00716,1.187948109,0.00716,1.461721177,
0.00718,-0.639203362,0.00718,1.827151471,
0.0072,0.09165722638,0.0072,2.192581765,
0.00722,-0.639203362,0.00722,1.827151471,
0.00724,-0.2737730678,0.00724,1.461721177,
0.00726,-0.2737730678,0.00726,2.192581765,
0.00728,-0.2737730678,0.00728,0.7308605883,
0.0073,-0.639203362,0.0073,1.461721177,
0.00732,-0.639203362,0.00732,2.558012059,
0.00734,0.8225178147,0.00734,1.827151471,
0.00736,-0.2737730678,0.00736,1.461721177,
0.00738,0.09165722638,0.00738,2.558012059,
0.0074,-0.2737730678,0.0074,1.461721177,
0.00742,0.4570875206,0.00742,1.461721177,
0.00744,0.4570875206,0.00744,1.827151471,
0.00746,-0.639203362,0.00746,1.827151471,
0.00748,-0.2737730678,0.00748,2.192581765,
0.0075,0.8225178147,0.0075,2.192581765,
0.00752,0.09165722638,0.00752,1.827151471,
0.00754,-0.2737730678,0.00754,1.827151471,
0.00756,-0.2737730678,0.00756,2.558012059,
0.00758,0.09165722638,0.00758,2.192581765,
0.0076,-0.639203362,0.0076,1.827151471,
0.00762,0.09165722638,0.00762,2.192581765,
0.00764,-0.2737730678,0.00764,1.827151471,
0.00766,0.09165722638,0.00766,1.827151471,
0.00768,0.4570875206,0.00768,1.827151471,
0.0077,-0.2737730678,0.0077,1.827151471,
0.00772,0.4570875206,0.00772,1.096290883,
0.00774,-0.2737730678,0.00774,2.192581765,
0.00776,-0.639203362,0.00776,1.827151471,
0.00778,0.09165722638,0.00778,1.827151471,
0.0078,-0.639203362,0.0078,2.192581765,
0.00782,-0.2737730678,0.00782,1.827151471,
0.00784,-0.2737730678,0.00784,1.827151471,
0.00786,0.09165722638,0.00786,2.192581765,
0.00788,0.09165722638,0.00788,2.192581765,
0.0079,0.09165722638,0.0079,1.461721177,
0.00792,-0.2737730678,0.00792,2.192581765,
0.00794,-0.2737730678,0.00794,1.461721177,
0.00796,0.09165722638,0.00796,1.827151471,
0.00798,-0.639203362,0.00798,2.192581765,
0.008,-0.2737730678,0.008,1.827151471,
0.00802,-0.639203362,0.00802,1.827151471,
0.00804,0.09165722638,0.00804,2.192581765,
0.00806,-0.639203362,0.00806,1.827151471,
0.00808,1.553378403,0.00808,0.7308605883,
0.0081,-0.639203362,0.0081,2.192581765,
0.00812,-0.2737730678,0.00812,1.827151471,
0.00814,0.4570875206,0.00814,1.827151471,
0.00816,-0.639203362,0.00816,1.827151471,
0.00818,0.09165722638,0.00818,1.461721177,
0.0082,-0.639203362,0.0082,1.461721177,
0.00822,1.918808697,0.00822,2.558012059,
0.00824,-0.2737730678,0.00824,1.461721177,
0.00826,-0.639203362,0.00826,1.461721177,
0.00828,0.8225178147,0.00828,3.288872648,
0.0083,-0.639203362,0.0083,2.192581765,
0.00832,-0.639203362,0.00832,1.827151471,
0.00834,-0.639203362,0.00834,2.558012059,
0.00836,-0.639203362,0.00836,1.461721177,
0.00838,0.8225178147,0.00838,1.096290883,
0.0084,1.553378403,0.0084,2.192581765,
0.00842,-0.639203362,0.00842,2.192581765,
0.00844,-0.639203362,0.00844,1.461721177,
0.00846,0.09165722638,0.00846,2.192581765,
0.00848,0.09165722638,0.00848,1.096290883,
0.0085,-0.639203362,0.0085,1.461721177,
0.00852,0.4570875206,0.00852,2.558012059,
0.00854,-0.639203362,0.00854,1.827151471,
0.00856,-0.639203362,0.00856,1.461721177,
0.00858,0.4570875206,0.00858,2.558012059,
0.0086,-0.639203362,0.0086,2.192581765,
0.00862,1.187948109,0.00862,1.827151471,
0.00864,-0.2737730678,0.00864,2.192581765,
0.00866,0.09165722638,0.00866,1.827151471,
0.00868,-0.2737730678,0.00868,2.192581765,
0.0087,0.8225178147,0.0087,2.192581765,
0.00872,0.09165722638,0.00872,1.461721177,
0.00874,-0.639203362,0.00874,1.461721177,
0.00876,0.09165722638,0.00876,2.923442353,
0.00878,-0.2737730678,0.00878,1.827151471,
0.0088,-0.639203362,0.0088,1.827151471,
0.00882,0.09165722638,0.00882,2.192581765,
0.00884,-0.639203362,0.00884,2.192581765,
0.00886,0.4570875206,0.00886,1.827151471,
0.00888,-0.2737730678,0.00888,2.192581765,
0.0089,0.4570875206,0.0089,1.827151471,
0.00892,-0.2737730678,0.00892,1.461721177,
0.00894,-0.639203362,0.00894,2.192581765,
0.00896,-0.639203362,0.00896,1.827151471,
0.00898,0.09165722638,0.00898,1.827151471,
0.009,0.8225178147,0.009,2.192581765,
0.00902,-0.639203362,0.00902,1.827151471,
0.00904,-0.2737730678,0.00904,1.827151471,
0.00906,-0.639203362,0.00906,2.558012059,
0.00908,-0.639203362,0.00908,1.827151471,
0.0091,1.553378403,0.0091,1.827151471,
0.00912,-0.2737730678,0.00912,2.192581765,
0.00914,-0.639203362,0.00914,1.827151471,
0.00916,0.09165722638,0.00916,1.827151471,
0.00918,0.09165722638,0.00918,1.827151471,
0.0092,-0.639203362,0.0092,1.827151471,
0.00922,-0.639203362,0.00922,1.461721177,
0.00924,-0.2737730678,0.00924,2.192581765,
0.00926,-0.639203362,0.00926,2.192581765,
0.00928,-0.639203362,0.00928,1.827151471,
0.0093,-0.639203362,0.0093,1.827151471,
0.00932,-0.639203362,0.00932,1.827151471,
0.00934,-0.2737730678,0.00934,1.827151471,
0.00936,0.8225178147,0.00936,2.192581765,
0.00938,-0.639203362,0.00938,1.827151471,
0.0094,-0.639203362,0.0094,1.827151471,
0.00942,0.4570875206,0.00942,2.558012059,
0.00944,-0.639203362,0.00944,2.558012059,
0.00946,-0.639203362,0.00946,1.827151471,
0.00948,-0.2737730678,0.00948,2.192581765,
0.0095,0.09165722638,0.0095,2.558012059,
0.00952,-0.2737730678,0.00952,1.827151471,
0.00954,0.8225178147,0.00954,2.192581765,
0.00956,-0.2737730678,0.00956,2.192581765,
0.00958,0.4570875206,0.00958,1.827151471,
0.0096,1.187948109,0.0096,2.192581765,
0.00962,-0.639203362,0.00962,1.827151471,
0.00964,0.8225178147,0.00964,1.461721177,
0.00966,-0.2737730678,0.00966,2.558012059,
0.00968,-0.639203362,0.00968,2.192581765,
0.0097,-0.639203362,0.0097,1.827151471,
0.00972,-0.2737730678,0.00972,1.827151471,
0.00974,-0.639203362,0.00974,1.827151471,
0.00976,-0.639203362,0.00976,1.827151471,
0.00978,0.8225178147,0.00978,2.192581765,
0.0098,-0.639203362,0.0098,2.192581765,
0.00982,0.8225178147,0.00982,1.827151471,
0.00984,0.09165722638,0.00984,2.192581765,
0.00986,-0.639203362,0.00986,2.192581765,
0.00988,-0.2737730678,0.00988,2.192581765,
0.0099,0.4570875206,0.0099,2.558012059,
0.00992,1.187948109,0.00992,2.192581765,
0.00994,0.8225178147,0.00994,1.461721177,
0.00996,-0.2737730678,0.00996,1.827151471,
0.00998,1.553378403,0.00998,1.827151471,
0.01,-0.2737730678,0.01,2.192581765,
0.01002,0.09165722638,0.01002,1.827151471,
0.01004,-0.639203362,0.01004,1.827151471,
0.01006,-0.2737730678,0.01006,2.192581765,
0.01008,1.187948109,0.01008,2.192581765,
0.0101,0.4570875206,0.0101,1.461721177,
0.01012,0.4570875206,0.01012,1.827151471,
0.01014,0.09165722638,0.01014,2.192581765,
0.01016,-0.639203362,0.01016,1.827151471,
0.01018,0.09165722638,0.01018,1.827151471,
0.0102,0.09165722638,0.0102,1.827151471,
0.01022,-0.639203362,0.01022,1.461721177,
0.01024,0.09165722638,0.01024,1.827151471,
0.01026,-0.639203362,0.01026,2.192581765,
0.01028,-0.2737730678,0.01028,1.827151471,
0.0103,-0.639203362,0.0103,1.461721177,
0.01032,0.4570875206,0.01032,2.558012059,
0.01034,0.4570875206,0.01034,2.192581765,
0.01036,0.4570875206,0.01036,1.827151471,
0.01038,-0.2737730678,0.01038,2.192581765,
0.0104,-0.639203362,0.0104,1.827151471,
0.01042,-0.2737730678,0.01042,1.827151471,
0.01044,-0.2737730678,0.01044,1.827151471,
0.01046,-0.639203362,0.01046,1.461721177,
0.01048,-0.2737730678,0.01048,1.461721177,
0.0105,0.8225178147,0.0105,2.558012059,
0.01052,0.09165722638,0.01052,1.461721177,
0.01054,-0.639203362,0.01054,1.827151471,
0.01056,0.4570875206,0.01056,1.461721177,
0.01058,0.4570875206,0.01058,1.827151471,
0.0106,0.4570875206,0.0106,1.461721177,
0.01062,0.4570875206,0.01062,1.461721177,
0.01064,-0.2737730678,0.01064,1.461721177,
0.01066,-0.639203362,0.01066,1.827151471,
0.01068,0.09165722638,0.01068,1.096290883,
0.0107,0.09165722638,0.0107,1.827151471,
0.01072,0.09165722638,0.01072,1.827151471,
0.01074,-0.2737730678,0.01074,1.096290883,
0.01076,-0.639203362,0.01076,1.827151471,
0.01078,-0.2737730678,0.01078,1.827151471,
0.0108,-0.639203362,0.0108,2.192581765,
0.01082,-0.2737730678,0.01082,1.827151471,
0.01084,-0.2737730678,0.01084,1.827151471,
0.01086,-0.2737730678,0.01086,1.827151471,
0.01088,0.4570875206,0.01088,2.192581765,
0.0109,-0.639203362,0.0109,1.827151471,
0.01092,-0.639203362,0.01092,1.827151471,
0.01094,0.8225178147,0.01094,1.827151471,
0.01096,0.09165722638,0.01096,1.461721177,
0.01098,0.09165722638,0.01098,1.827151471,
0.011,0.8225178147,0.011,1.096290883,
0.01102,0.09165722638,0.01102,1.461721177,
0.01104,-0.639203362,0.01104,2.192581765,
0.01106,0.4570875206,0.01106,2.192581765,
0.01108,-0.639203362,0.01108,1.827151471,
0.0111,0.8225178147,0.0111,2.558012059,
0.01112,0.4570875206,0.01112,2.192581765,
0.01114,0.4570875206,0.01114,2.192581765,
0.01116,0.09165722638,0.01116,1.827151471,
0.01118,-0.639203362,0.01118,2.192581765,
0.0112,-0.639203362,0.0112,0.3654302942,
0.01122,0.09165722638,0.01122,2.192581765,
0.01124,2.284238991,0.01124,2.192581765,
0.01126,-0.639203362,0.01126,2.558012059,
0.01128,1.553378403,0.01128,1.827151471,
0.0113,0.09165722638,0.0113,2.192581765,
0.01132,-0.2737730678,0.01132,1.827151471,
0.01134,0.09165722638,0.01134,1.461721177,
0.01136,0.4570875206,0.01136,2.192581765,
0.01138,0.4570875206,0.01138,1.827151471,
0.0114,0.4570875206,0.0114,2.923442353,
0.01142,-0.2737730678,0.01142,1.827151471,
0.01144,-0.639203362,0.01144,1.827151471,
0.01146,-0.2737730678,0.01146,1.461721177,
0.01148,0.09165722638,0.01148,1.827151471,
0.0115,0.8225178147,0.0115,0,
0.01152,0.8225178147,0.01152,1.827151471,
0.01154,-0.2737730678,0.01154,1.827151471,
0.01156,1.187948109,0.01156,1.461721177,
0.01158,-0.2737730678,0.01158,1.827151471,
0.0116,-0.639203362,0.0116,3.654302942,
0.01162,0.4570875206,0.01162,1.827151471,
0.01164,0.8225178147,0.01164,1.827151471,
0.01166,-0.639203362,0.01166,1.461721177,
0.01168,-0.2737730678,0.01168,1.827151471,
0.0117,-0.639203362,0.0117,2.192581765,
0.01172,-0.639203362,0.01172,2.192581765,
0.01174,0.4570875206,0.01174,1.827151471,
0.01176,-0.2737730678,0.01176,2.192581765,
0.01178,-0.2737730678,0.01178,1.827151471,
0.0118,0.09165722638,0.0118,0.7308605883,
0.01182,0.4570875206,0.01182,2.192581765,
0.01184,0.8225178147,0.01184,1.461721177,
0.01186,-0.639203362,0.01186,1.827151471,
0.01188,0.4570875206,0.01188,2.558012059,
0.0119,-0.639203362,0.0119,2.192581765,
0.01192,0.8225178147,0.01192,1.827151471,
0.01194,0.09165722638,0.01194,2.192581765,
0.01196,-0.2737730678,0.01196,2.192581765,
0.01198,-0.639203362,0.01198,1.461721177,
0.012,1.918808697,0.012,2.923442353,
0.01202,-0.2737730678,0.01202,1.827151471,
0.01204,0.09165722638,0.01204,1.827151471,
0.01206,0.09165722638,0.01206,2.192581765,
0.01208,-0.2737730678,0.01208,1.827151471,
0.0121,0.4570875206,0.0121,1.096290883,
0.01212,-0.2737730678,0.01212,2.192581765,
0.01214,-0.639203362,0.01214,1.461721177,
0.01216,-0.639203362,0.01216,1.827151471,
0.01218,-0.639203362,0.01218,1.827151471,
0.0122,-0.639203362,0.0122,2.192581765,
0.01222,0.4570875206,0.01222,1.827151471,
0.01224,0.09165722638,0.01224,2.192581765,
0.01226,-0.639203362,0.01226,2.192581765,
0.01228,0.4570875206,0.01228,1.827151471,
0.0123,0.09165722638,0.0123,2.558012059,
0.01232,-0.639203362,0.01232,1.827151471,
0.01234,0.8225178147,0.01234,1.827151471,
0.01236,-0.2737730678,0.01236,2.558012059,
0.01238,-0.639203362,0.01238,2.192581765,
0.0124,-0.639203362,0.0124,1.096290883,
0.01242,-0.639203362,0.01242,2.192581765,
0.01244,-0.639203362,0.01244,1.827151471,
0.01246,0.09165722638,0.01246,1.827151471,
0.01248,-0.2737730678,0.01248,2.558012059,
0.0125,-0.639203362,0.0125,0.7308605883,
0.01252,0.4570875206,0.01252,1.461721177,
0.01254,-0.639203362,0.01254,2.558012059,
0.01256,-0.2737730678,0.01256,1.827151471,
0.01258,0.8225178147,0.01258,2.192581765,
0.0126,-0.2737730678,0.0126,1.827151471,
0.01262,-0.639203362,0.01262,2.558012059,
0.01264,0.09165722638,0.01264,1.827151471,
0.01266,0.09165722638,0.01266,2.192581765,
0.01268,-0.639203362,0.01268,1.461721177,
0.0127,0.09165722638,0.0127,1.827151471,
0.01272,0.4570875206,0.01272,2.558012059,
0.01274,-0.2737730678,0.01274,2.192581765,
0.01276,-0.2737730678,0.01276,1.827151471,
0.01278,0.4570875206,0.01278,2.192581765,
0.0128,0.09165722638,0.0128,1.461721177,
0.01282,0.4570875206,0.01282,1.827151471,
0.01284,-0.2737730678,0.01284,2.192581765,
0.01286,-0.2737730678,0.01286,2.192581765,
0.01288,0.09165722638,0.01288,1.827151471,
0.0129,0.09165722638,0.0129,2.558012059,
0.01292,-0.2737730678,0.01292,1.827151471,
0.01294,0.4570875206,0.01294,1.827151471,
0.01296,0.4570875206,0.01296,2.192581765,
0.01298,-0.639203362,0.01298,1.827151471,
0.013,0.09165722638,0.013,1.827151471,
0.01302,-0.2737730678,0.01302,2.192581765,
0.01304,0.09165722638,0.01304,2.558012059,
0.01306,0.09165722638,0.01306,2.192581765,
0.01308,-0.2737730678,0.01308,2.192581765,
0.0131,-0.639203362,0.0131,2.192581765,
0.01312,0.09165722638,0.01312,1.827151471,
0.01314,-0.639203362,0.01314,2.192581765,
0.01316,-0.639203362,0.01316,1.461721177,
0.01318,0.09165722638,0.01318,1.461721177,
0.0132,-0.2737730678,0.0132,2.192581765,
0.01322,-0.639203362,0.01322,1.827151471,
0.01324,0.09165722638,0.01324,1.827151471,
0.01326,0.4570875206,0.01326,2.192581765,
0.01328,-0.639203362,0.01328,2.192581765,
0.0133,-0.639203362,0.0133,1.461721177,
0.01332,-0.2737730678,0.01332,2.192581765,
0.01334,0.4570875206,0.01334,1.827151471,
0.01336,0.09165722638,0.01336,2.192581765,
0.01338,-0.639203362,0.01338,1.827151471,
0.0134,-0.2737730678,0.0134,1.461721177,
0.01342,-0.2737730678,0.01342,1.827151471,
0.01344,0.8225178147,0.01344,1.461721177,
0.01346,-0.639203362,0.01346,1.096290883,
0.01348,0.09165722638,0.01348,1.827151471,
0.0135,0.4570875206,0.0135,1.827151471,
0.01352,-0.639203362,0.01352,1.096290883,
0.01354,-0.2737730678,0.01354,2.192581765,
0.01356,0.8225178147,0.01356,1.827151471,
0.01358,-0.2737730678,0.01358,1.461721177,
0.0136,-0.2737730678,0.0136,1.827151471,
0.01362,0.4570875206,0.01362,1.461721177,
0.01364,0.4570875206,0.01364,1.096290883,
0.01366,-0.639203362,0.01366,1.461721177,
0.01368,0.09165722638,0.01368,1.827151471,
0.0137,-0.639203362,0.0137,1.096290883,
0.01372,0.09165722638,0.01372,1.461721177,
0.01374,-0.639203362,0.01374,1.827151471,
0.01376,-0.639203362,0.01376,1.461721177,
0.01378,0.09165722638,0.01378,1.827151471,
0.0138,-0.2737730678,0.0138,1.461721177,
0.01382,-0.2737730678,0.01382,1.461721177,
0.01384,0.8225178147,0.01384,1.827151471,
0.01386,-0.2737730678,0.01386,1.827151471,
0.01388,0.09165722638,0.01388,1.461721177,
0.0139,0.09165722638,0.0139,1.827151471,
0.01392,-0.639203362,0.01392,1.096290883,
0.01394,-0.2737730678,0.01394,1.461721177,
0.01396,0.4570875206,0.01396,1.827151471,
0.01398,0.4570875206,0.01398,1.461721177,
0.014,-0.639203362,0.014,1.461721177,
0.01402,1.187948109,0.01402,1.461721177,
0.01404,0.8225178147,0.01404,2.192581765,
0.01406,0.09165722638,0.01406,1.461721177,
0.01408,0.8225178147,0.01408,2.192581765,
0.0141,0.4570875206,0.0141,1.827151471,
0.01412,0.4570875206,0.01412,0.7308605883,
0.01414,0.09165722638,0.01414,1.827151471,
0.01416,-0.2737730678,0.01416,1.827151471,
0.01418,-0.2737730678,0.01418,1.827151471,
0.0142,0.8225178147,0.0142,1.827151471,
0.01422,2.284238991,0.01422,2.192581765,
0.01424,-0.2737730678,0.01424,1.461721177,
0.01426,-0.639203362,0.01426,1.827151471,
0.01428,1.553378403,0.01428,1.827151471,
0.0143,-0.639203362,0.0143,1.096290883,
0.01432,-0.2737730678,0.01432,1.461721177,
0.01434,0.4570875206,0.01434,1.827151471,
0.01436,-0.639203362,0.01436,1.461721177,
0.01438,0.09165722638,0.01438,1.827151471,
0.0144,-0.639203362,0.0144,1.461721177,
0.01442,-0.639203362,0.01442,0.7308605883,
0.01444,0.09165722638,0.01444,1.827151471,
0.01446,-0.639203362,0.01446,1.461721177,
0.01448,-0.639203362,0.01448,1.461721177,
0.0145,-0.2737730678,0.0145,1.461721177,
0.01452,0.4570875206,0.01452,2.558012059,
0.01454,-0.639203362,0.01454,1.827151471,
0.01456,-0.639203362,0.01456,1.461721177,
0.01458,-0.639203362,0.01458,1.827151471,
0.0146,-0.2737730678,0.0146,1.461721177,
0.01462,1.187948109,0.01462,0.7308605883,
0.01464,0.09165722638,0.01464,1.827151471,
0.01466,0.4570875206,0.01466,1.461721177,
0.01468,-0.639203362,0.01468,1.827151471,
0.0147,1.918808697,0.0147,1.827151471,
0.01472,0.09165722638,0.01472,0.7308605883,
0.01474,-0.2737730678,0.01474,1.827151471,
0.01476,0.8225178147,0.01476,2.192581765,
0.01478,0.4570875206,0.01478,1.096290883,
0.0148,0.09165722638,0.0148,1.827151471,
0.01482,0.09165722638,0.01482,2.923442353,
0.01484,0.09165722638,0.01484,1.827151471,
0.01486,-0.639203362,0.01486,1.827151471,
0.01488,0.09165722638,0.01488,1.827151471,
0.0149,1.918808697,0.0149,1.461721177,
0.01492,-0.639203362,0.01492,1.827151471,
0.01494,0.8225178147,0.01494,1.461721177,
0.01496,-0.2737730678,0.01496,1.096290883,
0.01498,0.09165722638,0.01498,1.827151471,
0.015,0.09165722638,0.015,1.461721177,
0.01502,1.187948109,0.01502,0,
0.01504,-0.2737730678,0.01504,1.827151471,
0.01506,0.09165722638,0.01506,1.461721177,
0.01508,-0.2737730678,0.01508,1.461721177,
0.0151,0.09165722638,0.0151,1.827151471,
0.01512,0.09165722638,0.01512,0.7308605883,
0.01514,-0.639203362,0.01514,1.461721177,
0.01516,0.4570875206,0.01516,1.827151471,
0.01518,1.553378403,0.01518,1.461721177,
0.0152,0.09165722638,0.0152,1.461721177,
0.01522,0.09165722638,0.01522,2.558012059,
0.01524,-0.2737730678,0.01524,1.827151471,
0.01526,-0.639203362,0.01526,1.461721177,
0.01528,-0.639203362,0.01528,1.461721177,
0.0153,-0.639203362,0.0153,1.461721177,
0.01532,-0.639203362,0.01532,2.558012059,
0.01534,1.918808697,0.01534,1.461721177,
0.01536,-0.2737730678,0.01536,1.461721177,
0.01538,-0.639203362,0.01538,2.192581765,
0.0154,-0.639203362,0.0154,1.461721177,
0.01542,-0.2737730678,0.01542,1.096290883,
0.01544,0.8225178147,0.01544,2.192581765,
0.01546,-0.639203362,0.01546,1.827151471,
0.01548,-0.639203362,0.01548,1.461721177,
0.0155,0.4570875206,0.0155,2.192581765,
0.01552,-0.639203362,0.01552,1.461721177,
0.01554,-0.2737730678,0.01554,1.461721177,
0.01556,-0.2737730678,0.01556,2.192581765,
0.01558,-0.2737730678,0.01558,1.461721177,
0.0156,-0.639203362,0.0156,1.461721177,
0.01562,-0.2737730678,0.01562,1.461721177,
0.01564,-0.639203362,0.01564,2.192581765,
0.01566,-0.2737730678,0.01566,1.827151471,
0.01568,0.4570875206,0.01568,2.558012059,
0.0157,-0.639203362,0.0157,1.827151471,
0.01572,-0.639203362,0.01572,1.096290883,
0.01574,-0.639203362,0.01574,2.192581765,
0.01576,0.8225178147,0.01576,1.827151471,
0.01578,-0.639203362,0.01578,1.827151471,
0.0158,-0.639203362,0.0158,2.192581765,
0.01582,-0.2737730678,0.01582,2.192581765,
0.01584,-0.639203362,0.01584,1.827151471,
0.01586,0.8225178147,0.01586,1.461721177,
0.01588,0.4570875206,0.01588,2.192581765,
0.0159,1.918808697,0.0159,1.827151471,
0.01592,0.09165722638,0.01592,2.558012059,
0.01594,1.187948109,0.01594,1.827151471,
0.01596,-0.639203362,0.01596,1.827151471,
0.01598,-0.2737730678,0.01598,1.827151471,
0.016,0.4570875206,0.016,1.827151471,
0.01602,-0.2737730678,0.01602,1.827151471,
0.01604,0.4570875206,0.01604,1.827151471,
0.01606,-0.639203362,0.01606,1.827151471,
0.01608,1.187948109,0.01608,2.192581765,
0.0161,-0.2737730678,0.0161,1.827151471,
0.01612,-0.2737730678,0.01612,2.192581765,
0.01614,-0.2737730678,0.01614,1.827151471,
0.01616,-0.639203362,0.01616,1.461721177,
0.01618,-0.639203362,0.01618,1.461721177,
0.0162,1.187948109,0.0162,2.192581765,
0.01622,0.4570875206,0.01622,2.558012059,
0.01624,1.553378403,0.01624,2.192581765,
0.01626,-0.2737730678,0.01626,1.096290883,
0.01628,1.553378403,0.01628,3.288872648,
0.0163,-0.2737730678,0.0163,1.827151471,
0.01632,-0.2737730678,0.01632,2.192581765,
0.01634,1.553378403,0.01634,2.558012059,
0.01636,0.8225178147,0.01636,1.461721177,
0.01638,-0.2737730678,0.01638,1.827151471,
0.0164,-0.2737730678,0.0164,2.558012059,
0.01642,-0.2737730678,0.01642,1.461721177,
0.01644,-0.639203362,0.01644,1.461721177,
0.01646,-0.2737730678,0.01646,1.827151471,
0.01648,0.8225178147,0.01648,1.461721177,
0.0165,-0.2737730678,0.0165,1.096290883,
0.01652,2.649669286,0.01652,2.192581765,
0.01654,-0.639203362,0.01654,2.192581765,
0.01656,0.09165722638,0.01656,1.461721177,
0.01658,0.09165722638,0.01658,2.558012059,
0.0166,-0.639203362,0.0166,1.827151471,
0.01662,-0.639203362,0.01662,1.827151471,
0.01664,0.4570875206,0.01664,2.923442353,
0.01666,0.09165722638,0.01666,1.827151471,
0.01668,-0.2737730678,0.01668,1.096290883,
0.0167,-0.2737730678,0.0167,2.558012059,
0.01672,-0.2737730678,0.01672,1.096290883,
0.01674,0.09165722638,0.01674,1.461721177,
0.01676,-0.639203362,0.01676,2.192581765,
0.01678,-0.2737730678,0.01678,1.827151471,
0.0168,-0.2737730678,0.0168,1.461721177,
0.01682,1.553378403,0.01682,2.192581765,
0.01684,-0.639203362,0.01684,1.827151471,
0.01686,0.09165722638,0.01686,1.827151471,
0.01688,0.4570875206,0.01688,2.558012059,
0.0169,-0.639203362,0.0169,2.192581765,
0.01692,-0.639203362,0.01692,1.461721177,
0.01694,-0.639203362,0.01694,2.192581765,
0.01696,-0.639203362,0.01696,2.192581765,
0.01698,-0.639203362,0.01698,1.461721177,
0.017,-0.639203362,0.017,2.192581765,
0.01702,-0.639203362,0.01702,1.827151471,
0.01704,-0.639203362,0.01704,1.827151471,
0.01706,0.09165722638,0.01706,2.192581765,
0.01708,-0.639203362,0.01708,1.827151471,
0.0171,-0.639203362,0.0171,1.461721177,
0.01712,-0.2737730678,0.01712,2.192581765,
0.01714,-0.639203362,0.01714,1.827151471,
0.01716,-0.639203362,0.01716,1.461721177,
0.01718,0.4570875206,0.01718,2.192581765,
0.0172,0.09165722638,0.0172,2.192581765,
0.01722,0.09165722638,0.01722,2.192581765,
0.01724,-0.639203362,0.01724,2.192581765,
0.01726,0.09165722638,0.01726,1.827151471,
0.01728,0.8225178147,0.01728,2.192581765,
0.0173,-0.639203362,0.0173,2.192581765,
0.01732,0.4570875206,0.01732,1.827151471,
0.01734,1.187948109,0.01734,2.192581765,
0.01736,0.09165722638,0.01736,1.827151471,
0.01738,-0.2737730678,0.01738,1.827151471,
0.0174,0.09165722638,0.0174,2.558012059,
0.01742,-0.639203362,0.01742,1.827151471,
0.01744,0.4570875206,0.01744,1.827151471,
0.01746,1.918808697,0.01746,2.192581765,
0.01748,0.09165722638,0.01748,1.827151471,
0.0175,0.4570875206,0.0175,2.192581765,
0.01752,-0.639203362,0.01752,2.923442353,
0.01754,0.09165722638,0.01754,1.461721177,
0.01756,0.09165722638,0.01756,1.461721177,
0.01758,-0.2737730678,0.01758,1.827151471,
0.0176,-0.639203362,0.0176,1.827151471,
0.01762,0.09165722638,0.01762,1.827151471,
0.01764,-0.2737730678,0.01764,2.192581765,
0.01766,-0.639203362,0.01766,1.827151471,
0.01768,-0.2737730678,0.01768,2.192581765,
0.0177,0.09165722638,0.0177,2.192581765,
0.01772,-0.2737730678,0.01772,2.192581765,
0.01774,-0.2737730678,0.01774,1.461721177,
0.01776,-0.639203362,0.01776,2.192581765,
0.01778,1.187948109,0.01778,1.461721177,
0.0178,-0.2737730678,0.0178,1.827151471,
0.01782,0.09165722638,0.01782,1.827151471,
0.01784,-0.2737730678,0.01784,1.827151471,
0.01786,-0.2737730678,0.01786,1.827151471,
0.01788,0.09165722638,0.01788,2.192581765,
0.0179,-0.639203362,0.0179,1.827151471,
0.01792,1.187948109,0.01792,1.827151471,
0.01794,0.09165722638,0.01794,1.827151471,
0.01796,-0.639203362,0.01796,2.192581765,
0.01798,0.4570875206,0.01798,1.827151471,
0.018,0.4570875206,0.018,2.192581765,
0.01802,1.187948109,0.01802,1.827151471,
0.01804,1.187948109,0.01804,1.827151471,
0.01806,-0.639203362,0.01806,2.192581765,
0.01808,-0.639203362,0.01808,2.558012059,
0.0181,0.09165722638,0.0181,1.461721177,
0.01812,-0.639203362,0.01812,2.192581765,
0.01814,-0.639203362,0.01814,1.827151471,
0.01816,0.4570875206,0.01816,1.461721177,
0.01818,0.8225178147,0.01818,2.192581765,
0.0182,-0.639203362,0.0182,2.192581765,
0.01822,-0.2737730678,0.01822,1.461721177,
0.01824,-0.639203362,0.01824,2.923442353,
0.01826,-0.2737730678,0.01826,1.827151471,
0.01828,-0.2737730678,0.01828,1.461721177,
0.0183,-0.639203362,0.0183,2.192581765,
0.01832,0.4570875206,0.01832,2.192581765,
0.01834,-0.2737730678,0.01834,1.461721177,
0.01836,0.09165722638,0.01836,2.192581765,
0.01838,0.09165722638,0.01838,1.827151471,
0.0184,0.09165722638,0.0184,1.827151471,
0.01842,-0.2737730678,0.01842,2.192581765,
0.01844,-0.2737730678,0.01844,1.096290883,
0.01846,0.8225178147,0.01846,1.461721177,
0.01848,-0.639203362,0.01848,1.827151471,
0.0185,0.09165722638,0.0185,2.192581765,
0.01852,-0.639203362,0.01852,1.827151471,
0.01854,1.553378403,0.01854,1.461721177,
0.01856,-0.639203362,0.01856,1.827151471,
0.01858,0.8225178147,0.01858,1.461721177,
0.0186,-0.2737730678,0.0186,1.827151471,
0.01862,-0.639203362,0.01862,1.461721177,
0.01864,0.09165722638,0.01864,2.923442353,
0.01866,0.09165722638,0.01866,1.827151471,
0.01868,-0.639203362,0.01868,2.192581765,
0.0187,0.09165722638,0.0187,1.827151471,
0.01872,-0.2737730678,0.01872,1.827151471,
0.01874,-0.639203362,0.01874,0.7308605883,
0.01876,0.4570875206,0.01876,1.827151471,
0.01878,-0.2737730678,0.01878,1.096290883,
0.0188,-0.639203362,0.0188,1.827151471,
0.01882,-0.2737730678,0.01882,1.096290883,
0.01884,0.09165722638,0.01884,2.923442353,
0.01886,-0.639203362,0.01886,1.461721177,
0.01888,0.8225178147,0.01888,1.827151471,
0.0189,-0.2737730678,0.0189,1.827151471,
0.01892,-0.639203362,0.01892,1.827151471,
0.01894,0.4570875206,0.01894,2.192581765,
0.01896,1.187948109,0.01896,2.192581765,
0.01898,-0.639203362,0.01898,1.827151471,
0.019,0.4570875206,0.019,1.827151471,
0.01902,-0.2737730678,0.01902,1.827151471,
0.01904,-0.2737730678,0.01904,0.3654302942,
0.01906,1.918808697,0.01906,1.827151471,
0.01908,-0.2737730678,0.01908,1.461721177,
0.0191,-0.2737730678,0.0191,1.461721177,
0.01912,0.09165722638,0.01912,1.461721177,
0.01914,-0.639203362,0.01914,2.192581765,
0.01916,-0.639203362,0.01916,2.192581765,
0.01918,-0.2737730678,0.01918,1.461721177,
0.0192,0.4570875206,0.0192,1.096290883,
0.01922,0.4570875206,0.01922,1.461721177,
0.01924,0.4570875206,0.01924,1.096290883,
0.01926,0.4570875206,0.01926,1.461721177,
0.01928,0.09165722638,0.01928,1.827151471,
0.0193,0.8225178147,0.0193,1.461721177,
0.01932,0.09165722638,0.01932,1.096290883,
0.01934,-0.2737730678,0.01934,1.827151471,
0.01936,-0.2737730678,0.01936,1.827151471,
0.01938,0.09165722638,0.01938,1.461721177,
0.0194,0.4570875206,0.0194,1.827151471,
0.01942,0.8225178147,0.01942,1.827151471,
0.01944,0.8225178147,0.01944,2.558012059,
0.01946,0.8225178147,0.01946,1.461721177,
0.01948,0.4570875206,0.01948,1.827151471,
0.0195,0.8225178147,0.0195,1.461721177,
0.01952,0.09165722638,0.01952,1.461721177,
0.01954,0.4570875206,0.01954,2.558012059,
0.01956,0.09165722638,0.01956,1.461721177,
0.01958,0.4570875206,0.01958,1.827151471,
0.0196,-0.639203362,0.0196,1.827151471,
0.01962,-0.639203362,0.01962,1.461721177,
0.01964,-0.639203362,0.01964,1.461721177,
0.01966,1.553378403,0.01966,1.461721177,
0.01968,0.09165722638,0.01968,1.461721177,
0.0197,0.4570875206,0.0197,2.192581765,
0.01972,0.4570875206,0.01972,1.096290883,
0.01974,-0.639203362,0.01974,0.3654302942,
0.01976,0.4570875206,0.01976,1.827151471,
0.01978,-0.639203362,0.01978,1.827151471,
0.0198,0.4570875206,0.0198,1.461721177,
0.01982,0.4570875206,0.01982,1.827151471,
0.01984,-0.639203362,0.01984,2.558012059,
0.01986,-0.2737730678,0.01986,1.461721177,
0.01988,0.09165722638,0.01988,1.827151471,
0.0199,-0.639203362,0.0199,1.461721177,
0.01992,0.09165722638,0.01992,0.7308605883,
0.01994,0.4570875206,0.01994,1.827151471,
0.01996,-0.639203362,0.01996,1.827151471,
0.01998,0.09165722638,0.01998,1.096290883,
0.02,0.4570875206,0.02,1.827151471,
0.02002,-0.639203362,0.02002,1.827151471,
0.02004,0.09165722638,0.02004,0.7308605883,
0.02006,0.09165722638,0.02006,0.7308605883,
0.02008,0.09165722638,0.02008,1.461721177,
0.0201,-0.639203362,0.0201,1.461721177,
0.02012,-0.2737730678,0.02012,1.827151471,
0.02014,0.8225178147,0.02014,1.461721177,
0.02016,0.8225178147,0.02016,1.461721177,
0.02018,0.8225178147,0.02018,2.558012059,
0.0202,-0.639203362,0.0202,1.461721177,
0.02022,-0.2737730678,0.02022,1.461721177,
0.02024,0.09165722638,0.02024,2.558012059,
0.02026,-0.2737730678,0.02026,1.827151471,
0.02028,0.8225178147,0.02028,0.7308605883,
0.0203,0.09165722638,0.0203,1.827151471,
0.02032,0.4570875206,0.02032,1.827151471,
0.02034,-0.639203362,0.02034,1.461721177,
0.02036,0.09165722638,0.02036,1.827151471,
0.02038,0.09165722638,0.02038,1.827151471,
0.0204,0.09165722638,0.0204,1.096290883,
0.02042,1.187948109,0.02042,1.827151471,
0.02044,0.4570875206,0.02044,1.461721177,
0.02046,-0.639203362,0.02046,1.461721177,
0.02048,-0.2737730678,0.02048,1.461721177,
0.0205,-0.2737730678,0.0205,2.192581765,
0.02052,-0.639203362,0.02052,1.096290883,
0.02054,0.8225178147,0.02054,1.827151471,
0.02056,1.553378403,0.02056,1.827151471,
0.02058,0.09165722638,0.02058,1.096290883,
0.0206,0.4570875206,0.0206,1.827151471,
0.02062,-0.639203362,0.02062,2.192581765,
0.02064,0.09165722638,0.02064,1.461721177,
0.02066,0.8225178147,0.02066,1.827151471,
0.02068,1.187948109,0.02068,2.192581765,
0.0207,-0.2737730678,0.0207,1.461721177,
0.02072,0.09165722638,0.02072,2.192581765,
0.02074,0.8225178147,0.02074,1.461721177,
0.02076,-0.639203362,0.02076,1.096290883,
0.02078,-0.2737730678,0.02078,1.827151471,
0.0208,0.4570875206,0.0208,1.827151471,
0.02082,-0.639203362,0.02082,1.096290883,
0.02084,-0.639203362,0.02084,1.827151471,
0.02086,-0.2737730678,0.02086,1.461721177,
0.02088,0.09165722638,0.02088,1.461721177,
0.0209,-0.2737730678,0.0209,1.827151471,
0.02092,0.4570875206,0.02092,1.461721177,
0.02094,-0.639203362,0.02094,1.461721177,
0.02096,0.09165722638,0.02096,2.192581765,
0.02098,-0.2737730678,0.02098,2.558012059,
0.021,0.09165722638,0.021,2.192581765,
0.02102,-0.2737730678,0.02102,1.827151471,
0.02104,0.09165722638,0.02104,1.827151471,
0.02106,-0.2737730678,0.02106,1.827151471,
0.02108,-0.639203362,0.02108,1.827151471,
0.0211,0.4570875206,0.0211,2.192581765,
0.02112,-0.639203362,0.02112,1.827151471,
0.02114,0.4570875206,0.02114,1.827151471,
0.02116,-0.2737730678,0.02116,2.192581765,
0.02118,1.918808697,0.02118,2.192581765,
0.0212,0.09165722638,0.0212,2.192581765,
0.02122,0.09165722638,0.02122,1.461721177,
0.02124,0.09165722638,0.02124,1.827151471,
0.02126,0.4570875206,0.02126,2.192581765,
0.02128,0.4570875206,0.02128,1.461721177,
0.0213,-0.2737730678,0.0213,1.461721177,
0.02132,-0.2737730678,0.02132,2.192581765,
0.02134,-0.639203362,0.02134,2.558012059,
0.02136,-0.2737730678,0.02136,1.461721177,
0.02138,1.187948109,0.02138,1.827151471,
0.0214,0.4570875206,0.0214,2.192581765,
0.02142,-0.639203362,0.02142,1.461721177,
0.02144,2.284238991,0.02144,1.827151471,
0.02146,0.4570875206,0.02146,2.192581765,
0.02148,-0.639203362,0.02148,1.827151471,
0.0215,0.09165722638,0.0215,1.461721177,
0.02152,0.09165722638,0.02152,2.192581765,
0.02154,-0.2737730678,0.02154,1.827151471,
0.02156,0.09165722638,0.02156,1.461721177,
0.02158,-0.639203362,0.02158,2.192581765,
0.0216,0.4570875206,0.0216,1.461721177,
0.02162,-0.639203362,0.02162,1.827151471,
0.02164,0.8225178147,0.02164,2.192581765,
0.02166,0.09165722638,0.02166,1.827151471,
0.02168,-0.639203362,0.02168,1.461721177,
0.0217,0.09165722638,0.0217,2.558012059,
0.02172,-0.2737730678,0.02172,1.827151471,
0.02174,-0.639203362,0.02174,1.461721177,
0.02176,-0.639203362,0.02176,2.192581765,
0.02178,-0.639203362,0.02178,1.461721177,
0.0218,-0.639203362,0.0218,1.461721177,
0.02182,1.553378403,0.02182,1.827151471,
0.02184,-0.2737730678,0.02184,1.461721177,
0.02186,-0.639203362,0.02186,1.461721177,
0.02188,0.09165722638,0.02188,2.558012059,
0.0219,1.553378403,0.0219,1.827151471,
0.02192,-0.639203362,0.02192,1.827151471,
0.02194,0.4570875206,0.02194,2.192581765,
0.02196,0.09165722638,0.02196,2.558012059,
0.02198,-0.639203362,0.02198,1.827151471,
0.022,0.4570875206,0.022,2.558012059,
0.02202,-0.639203362,0.02202,1.827151471,
0.02204,-0.639203362,0.02204,1.827151471,
0.02206,-0.2737730678,0.02206,1.096290883,
0.02208,-0.2737730678,0.02208,1.461721177,
0.0221,-0.639203362,0.0221,1.461721177,
0.02212,0.09165722638,0.02212,2.192581765,
0.02214,-0.639203362,0.02214,1.461721177,
0.02216,-0.2737730678,0.02216,0.7308605883,
0.02218,-0.2737730678,0.02218,2.558012059,
0.0222,-0.639203362,0.0222,1.461721177,
0.02222,-0.639203362,0.02222,1.461721177,
0.02224,-0.639203362,0.02224,2.192581765,
0.02226,-0.639203362,0.02226,1.827151471,
0.02228,-0.639203362,0.02228,1.827151471,
0.0223,0.8225178147,0.0223,2.192581765,
0.02232,0.09165722638,0.02232,1.461721177,
0.02234,0.09165722638,0.02234,1.461721177,
0.02236,-0.2737730678,0.02236,2.558012059,
0.02238,-0.639203362,0.02238,1.461721177,
0.0224,0.8225178147,0.0224,1.461721177,
0.02242,-0.639203362,0.02242,1.827151471,
0.02244,-0.639203362,0.02244,1.461721177,
0.02246,0.09165722638,0.02246,0.3654302942,
0.02248,0.09165722638,0.02248,1.827151471,
0.0225,-0.2737730678,0.0225,1.461721177,
0.02252,-0.2737730678,0.02252,0.3654302942,
0.02254,0.4570875206,0.02254,1.461721177,
0.02256,0.09165722638,0.02256,2.923442353,
0.02258,-0.639203362,0.02258,1.461721177,
0.0226,0.4570875206,0.0226,2.192581765,
0.02262,-0.639203362,0.02262,2.192581765,
0.02264,-0.2737730678,0.02264,1.461721177,
0.02266,0.09165722638,0.02266,2.192581765,
0.02268,0.4570875206,0.02268,1.827151471,
0.0227,-0.639203362,0.0227,1.461721177,
0.02272,-0.2737730678,0.02272,2.558012059,
0.02274,-0.639203362,0.02274,1.827151471,
0.02276,1.187948109,0.02276,0.7308605883,
0.02278,-0.639203362,0.02278,1.827151471,
0.0228,-0.2737730678,0.0228,1.827151471,
0.02282,-0.639203362,0.02282,1.461721177,
0.02284,0.09165722638,0.02284,2.192581765,
0.02286,0.4570875206,0.02286,2.558012059,
0.02288,-0.2737730678,0.02288,1.827151471,
0.0229,-0.2737730678,0.0229,1.827151471,
0.02292,-0.639203362,0.02292,1.827151471,
0.02294,0.09165722638,0.02294,1.096290883,
0.02296,0.8225178147,0.02296,1.461721177,
0.02298,-0.639203362,0.02298,1.827151471,
0.023,0.4570875206,0.023,1.827151471,
0.02302,0.8225178147,0.02302,2.192581765,
0.02304,-0.2737730678,0.02304,1.827151471,
0.02306,0.09165722638,0.02306,1.461721177,
0.02308,-0.639203362,0.02308,2.192581765,
0.0231,-0.2737730678,0.0231,2.192581765,
0.02312,0.09165722638,0.02312,2.192581765,
0.02314,0.4570875206,0.02314,2.192581765,
0.02316,-0.639203362,0.02316,2.192581765,
0.02318,-0.2737730678,0.02318,1.827151471,
0.0232,1.187948109,0.0232,2.192581765,
0.02322,-0.639203362,0.02322,1.827151471,
0.02324,-0.639203362,0.02324,1.827151471,
0.02326,0.8225178147,0.02326,2.192581765,
0.02328,0.4570875206,0.02328,2.192581765,
0.0233,-0.639203362,0.0233,1.461721177,
0.02332,0.4570875206,0.02332,1.827151471,
0.02334,-0.639203362,0.02334,1.827151471,
0.02336,0.09165722638,0.02336,1.461721177,
0.02338,-0.639203362,0.02338,2.192581765,
0.0234,-0.639203362,0.0234,2.192581765,
0.02342,-0.639203362,0.02342,1.461721177,
0.02344,-0.639203362,0.02344,1.827151471,
0.02346,-0.2737730678,0.02346,2.192581765,
0.02348,-0.639203362,0.02348,1.461721177,
0.0235,1.918808697,0.0235,2.192581765,
0.02352,-0.2737730678,0.02352,1.827151471,
0.02354,0.8225178147,0.02354,1.827151471,
0.02356,0.09165722638,0.02356,2.192581765,
0.02358,2.284238991,0.02358,1.827151471,
0.0236,1.918808697,0.0236,1.827151471,
0.02362,0.4570875206,0.02362,1.827151471,
0.02364,-0.639203362,0.02364,2.192581765,
0.02366,-0.639203362,0.02366,1.461721177,
0.02368,-0.2737730678,0.02368,2.192581765,
0.0237,-0.2737730678,0.0237,1.827151471,
0.02372,-0.2737730678,0.02372,1.827151471,
0.02374,0.4570875206,0.02374,2.192581765,
0.02376,0.4570875206,0.02376,2.192581765,
0.02378,-0.639203362,0.02378,1.827151471,
0.0238,-0.2737730678,0.0238,2.558012059,
0.02382,-0.639203362,0.02382,1.827151471,
0.02384,-0.639203362,0.02384,2.192581765,
0.02386,-0.639203362,0.02386,2.192581765,
0.02388,-0.639203362,0.02388,1.827151471,
0.0239,0.4570875206,0.0239,1.827151471,
0.02392,0.4570875206,0.02392,2.558012059,
0.02394,-0.2737730678,0.02394,1.827151471,
0.02396,-0.639203362,0.02396,2.192581765,
0.02398,1.553378403,0.02398,1.827151471,
0.024,-0.639203362,0.024,2.192581765,
0.02402,0.09165722638,0.02402,1.827151471,
0.02404,0.09165722638,0.02404,2.192581765,
0.02406,0.09165722638,0.02406,1.827151471,
0.02408,0.4570875206,0.02408,1.461721177,
0.0241,-0.2737730678,0.0241,2.558012059,
0.02412,-0.639203362,0.02412,2.192581765,
0.02414,1.553378403,0.02414,1.827151471,
0.02416,1.187948109,0.02416,2.558012059,
0.02418,-0.2737730678,0.02418,1.827151471,
0.0242,-0.2737730678,0.0242,1.827151471,
0.02422,-0.639203362,0.02422,2.558012059,
0.02424,0.09165722638,0.02424,1.461721177,
0.02426,-0.639203362,0.02426,1.827151471,
0.02428,1.553378403,0.02428,2.192581765,
0.0243,-0.2737730678,0.0243,2.192581765,
0.02432,2.649669286,0.02432,1.827151471,
0.02434,0.4570875206,0.02434,2.192581765,
0.02436,-0.639203362,0.02436,1.827151471,
0.02438,-0.639203362,0.02438,1.827151471,
0.0244,1.918808697,0.0244,1.827151471,
0.02442,0.09165722638,0.02442,1.827151471,
0.02444,0.4570875206,0.02444,1.827151471,
0.02446,-0.2737730678,0.02446,1.827151471,
0.02448,-0.2737730678,0.02448,1.827151471,
0.0245,0.09165722638,0.0245,1.827151471,
0.02452,0.09165722638,0.02452,2.192581765,
0.02454,-0.639203362,0.02454,2.192581765,
0.02456,0.09165722638,0.02456,1.827151471,
0.02458,0.4570875206,0.02458,2.558012059,
0.0246,0.8225178147,0.0246,2.192581765,
0.02462,-0.639203362,0.02462,1.827151471,
0.02464,0.09165722638,0.02464,2.192581765,
0.02466,-0.639203362,0.02466,1.827151471,
0.02468,0.8225178147,0.02468,1.827151471,
0.0247,1.187948109,0.0247,2.192581765,
0.02472,0.8225178147,0.02472,1.827151471,
0.02474,0.09165722638,0.02474,2.192581765,
0.02476,0.4570875206,0.02476,2.192581765,
0.02478,0.8225178147,0.02478,2.192581765,
0.0248,0.09165722638,0.0248,1.461721177,
0.02482,-0.2737730678,0.02482,1.461721177,
0.02484,0.09165722638,0.02484,1.827151471,
0.02486,0.09165722638,0.02486,1.827151471,
0.02488,-0.639203362,0.02488,1.096290883,
0.0249,0.09165722638,0.0249,1.827151471,
0.02492,-0.639203362,0.02492,1.827151471,
0.02494,-0.639203362,0.02494,1.461721177,
0.02496,-0.2737730678,0.02496,1.461721177,
0.02498,0.4570875206,0.02498,1.461721177,
0.025,0.8225178147,0.025,1.461721177,
0.02502,0.8225178147,0.02502,2.192581765,
0.02504,0.4570875206,0.02504,1.827151471,
0.02506,0.4570875206,0.02506,1.461721177,
0.02508,1.187948109,0.02508,2.192581765,
0.0251,-0.2737730678,0.0251,0.7308605883,
0.02512,-0.639203362,0.02512,1.827151471,
0.02514,0.09165722638,0.02514,1.827151471,
0.02516,-0.639203362,0.02516,2.192581765,
0.02518,0.8225178147,0.02518,1.096290883,
0.0252,0.4570875206,0.0252,1.461721177,
0.02522,0.09165722638,0.02522,1.827151471,
0.02524,0.09165722638,0.02524,1.096290883,
0.02526,0.4570875206,0.02526,1.827151471,
0.02528,0.4570875206,0.02528,2.192581765,
0.0253,0.4570875206,0.0253,1.461721177,
0.02532,-0.639203362,0.02532,1.827151471,
0.02534,0.4570875206,0.02534,1.827151471,
0.02536,-0.2737730678,0.02536,1.096290883,
0.02538,-0.639203362,0.02538,2.192581765,
0.0254,0.09165722638,0.0254,1.827151471,
0.02542,0.09165722638,0.02542,0.7308605883,
0.02544,0.09165722638,0.02544,1.461721177,
0.02546,0.4570875206,0.02546,1.461721177,
0.02548,-0.639203362,0.02548,0.3654302942,
0.0255,0.4570875206,0.0255,1.827151471,
0.02552,1.187948109,0.02552,1.827151471,
0.02554,0.4570875206,0.02554,1.461721177,
0.02556,0.4570875206,0.02556,1.827151471,
0.02558,0.8225178147,0.02558,1.461721177,
0.0256,0.4570875206,0.0256,1.096290883,
0.02562,-0.2737730678,0.02562,1.827151471,
0.02564,0.4570875206,0.02564,1.461721177,
0.02566,-0.639203362,0.02566,1.461721177,
0.02568,1.553378403,0.02568,1.827151471,
0.0257,1.918808697,0.0257,2.192581765,
0.02572,-0.639203362,0.02572,1.096290883,
0.02574,0.4570875206,0.02574,1.827151471,
0.02576,0.09165722638,0.02576,1.827151471,
0.02578,0.09165722638,0.02578,2.558012059,
0.0258,-0.639203362,0.0258,1.461721177,
0.02582,0.4570875206,0.02582,1.827151471,
0.02584,-0.639203362,0.02584,1.461721177,
0.02586,0.4570875206,0.02586,1.461721177,
0.02588,-0.2737730678,0.02588,2.192581765,
0.0259,-0.2737730678,0.0259,1.461721177,
0.02592,1.187948109,0.02592,1.461721177,
0.02594,-0.639203362,0.02594,1.827151471,
0.02596,0.09165722638,0.02596,1.461721177,
0.02598,-0.639203362,0.02598,0,
0.026,0.8225178147,0.026,1.827151471,
0.02602,-0.639203362,0.02602,1.461721177,
0.02604,0.4570875206,0.02604,1.827151471,
0.02606,1.187948109,0.02606,2.192581765,
0.02608,0.09165722638,0.02608,0.7308605883,
0.0261,-0.639203362,0.0261,2.192581765,
0.02612,0.09165722638,0.02612,1.827151471,
0.02614,0.4570875206,0.02614,1.827151471,
0.02616,0.09165722638,0.02616,2.192581765,
0.02618,-0.639203362,0.02618,0.7308605883,
0.0262,-0.2737730678,0.0262,1.827151471,
0.02622,0.4570875206,0.02622,1.827151471,
0.02624,-0.2737730678,0.02624,1.461721177,
0.02626,0.4570875206,0.02626,1.827151471,
0.02628,0.09165722638,0.02628,3.288872648,
0.0263,-0.639203362,0.0263,1.827151471,
0.02632,-0.639203362,0.02632,2.192581765,
0.02634,-0.639203362,0.02634,1.827151471,
0.02636,-0.2737730678,0.02636,2.192581765,
0.02638,0.4570875206,0.02638,0,
0.0264,-0.639203362,0.0264,1.827151471,
0.02642,0.09165722638,0.02642,2.192581765,
0.02644,0.09165722638,0.02644,1.827151471,
0.02646,1.553378403,0.02646,1.827151471,
0.02648,-0.639203362,0.02648,3.288872648,
0.0265,-0.2737730678,0.0265,1.827151471,
0.02652,-0.639203362,0.02652,1.461721177,
0.02654,0.4570875206,0.02654,1.827151471,
0.02656,-0.639203362,0.02656,1.827151471,
0.02658,-0.639203362,0.02658,1.827151471,
0.0266,-0.639203362,0.0266,2.192581765,
0.02662,-0.2737730678,0.02662,1.827151471,
0.02664,-0.2737730678,0.02664,1.461721177,
0.02666,0.09165722638,0.02666,2.192581765,
0.02668,0.09165722638,0.02668,0.7308605883,
0.0267,0.09165722638,0.0267,1.827151471,
0.02672,0.8225178147,0.02672,2.192581765,
0.02674,-0.2737730678,0.02674,1.461721177,
0.02676,-0.639203362,0.02676,1.461721177,
0.02678,-0.639203362,0.02678,2.923442353,
0.0268,0.09165722638,0.0268,1.827151471,
0.02682,-0.639203362,0.02682,1.461721177,
0.02684,0.4570875206,0.02684,2.192581765,
0.02686,-0.639203362,0.02686,1.827151471,
0.02688,-0.639203362,0.02688,0.3654302942,
0.0269,-0.2737730678,0.0269,1.827151471,
0.02692,-0.639203362,0.02692,1.461721177,
0.02694,0.09165722638,0.02694,1.461721177,
0.02696,-0.639203362,0.02696,2.192581765,
0.02698,-0.639203362,0.02698,2.192581765,
0.027,-0.2737730678,0.027,1.461721177,
0.02702,-0.639203362,0.02702,2.558012059,
0.02704,-0.639203362,0.02704,1.461721177,
0.02706,-0.639203362,0.02706,1.461721177,
0.02708,1.187948109,0.02708,2.923442353,
0.0271,-0.639203362,0.0271,1.461721177,
0.02712,-0.639203362,0.02712,1.461721177,
0.02714,0.8225178147,0.02714,2.192581765,
0.02716,0.8225178147,0.02716,1.827151471,
0.02718,-0.639203362,0.02718,0.7308605883,
0.0272,-0.639203362,0.0272,2.192581765,
0.02722,-0.2737730678,0.02722,1.461721177,
0.02724,-0.639203362,0.02724,1.827151471,
0.02726,-0.2737730678,0.02726,2.558012059,
0.02728,-0.639203362,0.02728,1.827151471,
0.0273,0.09165722638,0.0273,2.192581765,
0.02732,-0.2737730678,0.02732,2.923442353,
0.02734,0.09165722638,0.02734,1.461721177,
0.02736,-0.639203362,0.02736,1.827151471,
0.02738,-0.639203362,0.02738,2.558012059,
0.0274,-0.639203362,0.0274,1.461721177,
0.02742,0.09165722638,0.02742,1.096290883,
0.02744,-0.2737730678,0.02744,2.558012059,
0.02746,-0.639203362,0.02746,1.461721177,
0.02748,-0.639203362,0.02748,1.827151471,
0.0275,0.4570875206,0.0275,2.558012059,
0.02752,-0.639203362,0.02752,1.461721177,
0.02754,0.09165722638,0.02754,1.827151471,
0.02756,-0.2737730678,0.02756,2.558012059,
0.02758,-0.2737730678,0.02758,2.192581765,
0.0276,-0.2737730678,0.0276,2.192581765,
0.02762,-0.2737730678,0.02762,1.461721177,
0.02764,-0.639203362,0.02764,2.192581765,
0.02766,0.4570875206,0.02766,1.827151471,
0.02768,-0.2737730678,0.02768,2.192581765,
0.0277,0.09165722638,0.0277,1.461721177,
0.02772,-0.2737730678,0.02772,1.096290883,
0.02774,-0.2737730678,0.02774,2.558012059,
0.02776,-0.639203362,0.02776,1.827151471,
0.02778,-0.2737730678,0.02778,1.096290883,
0.0278,-0.2737730678,0.0278,2.558012059,
0.02782,-0.2737730678,0.02782,2.192581765,
0.02784,-0.639203362,0.02784,1.827151471,
0.02786,-0.2737730678,0.02786,2.192581765,
0.02788,-0.639203362,0.02788,2.192581765,
0.0279,-0.2737730678,0.0279,1.461721177,
0.02792,0.09165722638,0.02792,2.192581765,
0.02794,0.09165722638,0.02794,1.461721177,
0.02796,-0.2737730678,0.02796,1.827151471,
0.02798,0.09165722638,0.02798,2.192581765,
0.028,0.09165722638,0.028,1.461721177,
0.02802,-0.639203362,0.02802,1.461721177,
0.02804,-0.2737730678,0.02804,2.192581765,
0.02806,-0.639203362,0.02806,1.827151471,
0.02808,0.09165722638,0.02808,1.461721177,
0.0281,-0.2737730678,0.0281,2.192581765,
0.02812,-0.639203362,0.02812,1.827151471,
0.02814,-0.639203362,0.02814,1.827151471,
0.02816,0.09165722638,0.02816,2.192581765,
0.02818,0.09165722638,0.02818,1.461721177,
0.0282,-0.2737730678,0.0282,1.461721177,
0.02822,-0.2737730678,0.02822,2.192581765,
0.02824,-0.639203362,0.02824,1.827151471,
0.02826,-0.639203362,0.02826,1.461721177,
0.02828,0.4570875206,0.02828,2.192581765,
0.0283,-0.2737730678,0.0283,1.827151471,
0.02832,0.4570875206,0.02832,1.461721177,
0.02834,0.09165722638,0.02834,2.192581765,
0.02836,-0.639203362,0.02836,1.827151471,
0.02838,0.8225178147,0.02838,1.461721177,
0.0284,-0.639203362,0.0284,2.192581765,
0.02842,-0.2737730678,0.02842,1.827151471,
0.02844,0.09165722638,0.02844,1.827151471,
0.02846,-0.2737730678,0.02846,2.192581765,
0.02848,-0.639203362,0.02848,1.827151471,
0.0285,-0.2737730678,0.0285,1.827151471,
0.02852,-0.639203362,0.02852,2.192581765,
0.02854,0.09165722638,0.02854,1.827151471,
0.02856,-0.639203362,0.02856,1.461721177,
0.02858,-0.639203362,0.02858,2.558012059,
0.0286,-0.639203362,0.0286,2.192581765,
0.02862,0.09165722638,0.02862,2.192581765,
0.02864,-0.2737730678,0.02864,2.192581765,
0.02866,-0.639203362,0.02866,2.192581765,
0.02868,0.09165722638,0.02868,1.827151471,
0.0287,0.4570875206,0.0287,2.192581765,
0.02872,-0.2737730678,0.02872,1.827151471,
0.02874,0.4570875206,0.02874,1.461721177,
0.02876,0.09165722638,0.02876,2.192581765,
0.02878,-0.639203362,0.02878,1.827151471,
0.0288,0.09165722638,0.0288,2.192581765,
0.02882,0.8225178147,0.02882,2.192581765,
0.02884,-0.2737730678,0.02884,1.461721177,
0.02886,-0.2737730678,0.02886,1.827151471,
0.02888,-0.639203362,0.02888,1.827151471,
0.0289,-0.639203362,0.0289,1.461721177,
0.02892,1.187948109,0.02892,2.192581765,
0.02894,0.09165722638,0.02894,1.827151471,
0.02896,0.09165722638,0.02896,1.827151471,
0.02898,-0.2737730678,0.02898,2.192581765,
0.029,0.4570875206,0.029,2.558012059,
0.02902,-0.639203362,0.02902,1.827151471,
0.02904,-0.2737730678,0.02904,1.827151471,
0.02906,0.09165722638,0.02906,2.558012059,
0.02908,-0.639203362,0.02908,2.192581765,
0.0291,0.4570875206,0.0291,2.558012059,
0.02912,3.01509958,0.02912,1.827151471,
0.02914,-0.639203362,0.02914,2.192581765,
0.02916,0.09165722638,0.02916,1.827151471,
0.02918,0.09165722638,0.02918,2.558012059,
0.0292,-0.639203362,0.0292,1.461721177,
0.02922,0.4570875206,0.02922,1.096290883,
0.02924,1.918808697,0.02924,2.192581765,
0.02926,0.09165722638,0.02926,2.192581765,
0.02928,-0.2737730678,0.02928,1.461721177,
0.0293,0.4570875206,0.0293,1.827151471,
0.02932,-0.639203362,0.02932,1.827151471,
0.02934,-0.2737730678,0.02934,1.827151471,
0.02936,-0.639203362,0.02936,2.192581765,
0.02938,-0.2737730678,0.02938,2.192581765,
0.0294,0.09165722638,0.0294,2.558012059,
0.02942,0.4570875206,0.02942,2.192581765,
0.02944,-0.639203362,0.02944,1.827151471,
0.02946,-0.639203362,0.02946,1.827151471,
0.02948,1.187948109,0.02948,2.192581765,
0.0295,-0.639203362,0.0295,2.192581765,
0.02952,0.09165722638,0.02952,1.827151471,
0.02954,0.09165722638,0.02954,2.192581765,
0.02956,-0.2737730678,0.02956,1.827151471,
0.02958,0.8225178147,0.02958,1.827151471,
0.0296,0.4570875206,0.0296,1.461721177,
0.02962,-0.639203362,0.02962,2.192581765,
0.02964,0.09165722638,0.02964,1.461721177,
0.02966,0.4570875206,0.02966,1.827151471,
0.02968,-0.639203362,0.02968,1.827151471,
0.0297,-0.2737730678,0.0297,0.7308605883,
0.02972,-0.639203362,0.02972,1.827151471,
0.02974,0.4570875206,0.02974,2.192581765,
0.02976,-0.639203362,0.02976,2.192581765,
0.02978,0.8225178147,0.02978,2.558012059,
0.0298,-0.2737730678,0.0298,2.558012059,
0.02982,0.4570875206,0.02982,1.827151471,
0.02984,0.8225178147,0.02984,2.558012059,
0.02986,0.4570875206,0.02986,1.827151471,
0.02988,-0.639203362,0.02988,1.827151471,
0.0299,3.380529874,0.0299,2.192581765,
0.02992,-0.639203362,0.02992,1.827151471,
0.02994,0.09165722638,0.02994,1.461721177,
0.02996,0.09165722638,0.02996,2.192581765,
0.02998,-0.639203362,0.02998,1.827151471,
0.03,0.4570875206,0.03,1.461721177,
0.03002,-0.639203362,0.03002,2.192581765,
0.03004,-0.639203362,0.03004,2.192581765,
0.03006,-0.639203362,0.03006,1.827151471,
0.03008,0.09165722638,0.03008,2.192581765,
0.0301,-0.639203362,0.0301,1.461721177,
0.03012,-0.639203362,0.03012,1.827151471,
0.03014,-0.2737730678,0.03014,1.827151471,
0.03016,-0.2737730678,0.03016,2.192581765,
0.03018,0.4570875206,0.03018,1.827151471,
0.0302,0.4570875206,0.0302,2.923442353,
0.03022,1.187948109,0.03022,1.461721177,
0.03024,-0.639203362,0.03024,1.827151471,
0.03026,-0.639203362,0.03026,2.192581765,
0.03028,-0.639203362,0.03028,2.192581765,
0.0303,-0.2737730678,0.0303,1.096290883,
0.03032,-0.2737730678,0.03032,1.827151471,
0.03034,-0.2737730678,0.03034,1.827151471,
0.03036,1.918808697,0.03036,1.827151471,
0.03038,0.09165722638,0.03038,2.192581765,
0.0304,-0.639203362,0.0304,1.827151471,
0.03042,-0.639203362,0.03042,1.827151471,
0.03044,-0.639203362,0.03044,2.192581765,
0.03046,0.09165722638,0.03046,2.192581765,
0.03048,0.4570875206,0.03048,1.827151471,
0.0305,-0.2737730678,0.0305,2.923442353,
0.03052,0.4570875206,0.03052,1.461721177,
0.03054,-0.639203362,0.03054,1.827151471,
0.03056,0.09165722638,0.03056,1.461721177,
0.03058,2.649669286,0.03058,1.827151471,
0.0306,-0.639203362,0.0306,2.192581765,
0.03062,0.09165722638,0.03062,1.461721177,
0.03064,-0.2737730678,0.03064,1.827151471,
0.03066,0.09165722638,0.03066,1.827151471,
0.03068,0.4570875206,0.03068,1.461721177,
0.0307,-0.2737730678,0.0307,1.827151471,
0.03072,0.4570875206,0.03072,1.461721177,
0.03074,-0.2737730678,0.03074,1.461721177,
0.03076,0.4570875206,0.03076,1.827151471,
0.03078,0.09165722638,0.03078,1.827151471,
0.0308,0.8225178147,0.0308,1.827151471,
0.03082,-0.2737730678,0.03082,2.192581765,
0.03084,0.8225178147,0.03084,1.827151471,
0.03086,0.8225178147,0.03086,1.827151471,
0.03088,-0.2737730678,0.03088,2.192581765,
0.0309,-0.639203362,0.0309,1.461721177,
0.03092,-0.639203362,0.03092,1.461721177,
0.03094,-0.2737730678,0.03094,1.461721177,
0.03096,-0.639203362,0.03096,1.461721177,
0.03098,-0.639203362,0.03098,1.827151471,
0.031,0.4570875206,0.031,1.827151471,
0.03102,-0.639203362,0.03102,1.827151471,
0.03104,0.09165722638,0.03104,1.827151471,
0.03106,0.4570875206,0.03106,2.192581765,
0.03108,-0.639203362,0.03108,1.461721177,
0.0311,-0.639203362,0.0311,1.096290883,
0.03112,-0.639203362,0.03112,1.827151471,
0.03114,-0.2737730678,0.03114,2.192581765,
0.03116,-0.639203362,0.03116,1.461721177,
0.03118,0.4570875206,0.03118,1.461721177,
0.0312,-0.639203362,0.0312,1.461721177,
0.03122,1.553378403,0.03122,1.461721177,
0.03124,-0.2737730678,0.03124,1.461721177,
0.03126,-0.639203362,0.03126,2.192581765,
0.03128,0.4570875206,0.03128,1.827151471,
0.0313,-0.639203362,0.0313,1.827151471,
0.03132,-0.639203362,0.03132,1.827151471,
0.03134,-0.639203362,0.03134,1.827151471,
0.03136,0.09165722638,0.03136,2.192581765,
0.03138,-0.2737730678,0.03138,1.827151471,
0.0314,-0.639203362,0.0314,1.827151471,
0.03142,-0.639203362,0.03142,1.096290883,
0.03144,0.4570875206,0.03144,1.827151471,
0.03146,0.4570875206,0.03146,1.827151471,
0.03148,0.09165722638,0.03148,1.827151471,
0.0315,0.09165722638,0.0315,2.192581765,
0.03152,0.4570875206,0.03152,1.827151471,
0.03154,-0.639203362,0.03154,1.827151471,
0.03156,0.09165722638,0.03156,1.827151471,
0.03158,-0.2737730678,0.03158,1.827151471,
0.0316,-0.2737730678,0.0316,1.827151471,
0.03162,0.09165722638,0.03162,1.827151471,
0.03164,-0.639203362,0.03164,1.827151471,
0.03166,-0.2737730678,0.03166,2.192581765,
0.03168,2.284238991,0.03168,1.827151471,
0.0317,0.09165722638,0.0317,1.827151471,
0.03172,-0.639203362,0.03172,2.192581765,
0.03174,0.8225178147,0.03174,2.192581765,
0.03176,0.09165722638,0.03176,2.192581765,
0.03178,0.09165722638,0.03178,2.192581765,
0.0318,0.09165722638,0.0318,2.558012059,
0.03182,-0.639203362,0.03182,1.827151471,
0.03184,-0.639203362,0.03184,1.827151471,
0.03186,1.187948109,0.03186,2.192581765,
0.03188,0.4570875206,0.03188,1.827151471,
0.0319,0.4570875206,0.0319,1.827151471,
0.03192,-0.639203362,0.03192,1.461721177,
0.03194,0.8225178147,0.03194,1.827151471,
0.03196,-0.639203362,0.03196,1.827151471,
0.03198,1.553378403,0.03198,1.827151471,
0.032,-0.639203362,0.032,1.827151471,
0.03202,0.8225178147,0.03202,2.192581765,
0.03204,0.4570875206,0.03204,1.461721177,
0.03206,1.918808697,0.03206,1.827151471,
0.03208,-0.639203362,0.03208,2.192581765,
0.0321,0.8225178147,0.0321,1.827151471,
0.03212,0.4570875206,0.03212,2.558012059,
0.03214,-0.2737730678,0.03214,2.192581765,
0.03216,-0.2737730678,0.03216,2.192581765,
0.03218,0.4570875206,0.03218,2.192581765,
0.0322,-0.2737730678,0.0322,1.827151471,
0.03222,-0.639203362,0.03222,1.827151471,
0.03224,0.8225178147,0.03224,1.827151471,
0.03226,-0.639203362,0.03226,2.192581765,
0.03228,1.918808697,0.03228,1.827151471,
0.0323,-0.639203362,0.0323,2.192581765,
0.03232,-0.639203362,0.03232,1.096290883,
0.03234,0.09165722638,0.03234,1.827151471,
0.03236,1.918808697,0.03236,1.827151471,
0.03238,-0.639203362,0.03238,1.827151471,
0.0324,0.09165722638,0.0324,1.827151471,
0.03242,2.284238991,0.03242,2.558012059,
0.03244,-0.639203362,0.03244,1.827151471,
0.03246,-0.639203362,0.03246,2.192581765,
0.03248,0.09165722638,0.03248,2.192581765,
0.0325,-0.2737730678,0.0325,1.827151471,
0.03252,-0.2737730678,0.03252,0.3654302942,
0.03254,0.8225178147,0.03254,2.192581765,
0.03256,0.09165722638,0.03256,2.192581765,
0.03258,-0.639203362,0.03258,1.827151471,
0.0326,0.4570875206,0.0326,1.827151471,
0.03262,-0.2737730678,0.03262,1.461721177,
0.03264,0.09165722638,0.03264,2.558012059,
0.03266,-0.2737730678,0.03266,2.192581765,
0.03268,-0.639203362,0.03268,1.827151471,
0.0327,0.4570875206,0.0327,1.827151471,
0.03272,2.284238991,0.03272,3.654302942,
0.03274,-0.639203362,0.03274,2.192581765,
0.03276,-0.2737730678,0.03276,1.461721177,
0.03278,0.8225178147,0.03278,1.827151471,
0.0328,-0.2737730678,0.0328,1.827151471,
0.03282,0.4570875206,0.03282,1.461721177,
0.03284,-0.639203362,0.03284,2.558012059,
0.03286,-0.2737730678,0.03286,2.192581765,
0.03288,0.09165722638,0.03288,1.827151471,
0.0329,-0.639203362,0.0329,2.192581765,
0.03292,-0.2737730678,0.03292,2.192581765,
0.03294,0.4570875206,0.03294,1.827151471,
0.03296,-0.639203362,0.03296,2.192581765,
0.03298,-0.2737730678,0.03298,1.827151471,
0.033,-0.2737730678,0.033,1.827151471,
0.03302,-0.2737730678,0.03302,2.558012059,
0.03304,-0.639203362,0.03304,2.192581765,
0.03306,0.4570875206,0.03306,1.461721177,
0.03308,0.4570875206,0.03308,2.192581765,
0.0331,-0.2737730678,0.0331,1.827151471,
0.03312,-0.639203362,0.03312,1.096290883,
0.03314,1.553378403,0.03314,1.827151471,
0.03316,2.649669286,0.03316,1.827151471,
0.03318,-0.639203362,0.03318,1.827151471,
0.0332,-0.2737730678,0.0332,2.192581765,
0.03322,-0.2737730678,0.03322,2.923442353,
0.03324,0.4570875206,0.03324,1.827151471,
0.03326,-0.639203362,0.03326,2.192581765,
0.03328,-0.639203362,0.03328,1.827151471,
0.0333,1.918808697,0.0333,1.461721177,
0.03332,-0.639203362,0.03332,1.827151471,
0.03334,-0.639203362,0.03334,1.827151471,
0.03336,-0.639203362,0.03336,2.192581765,
0.03338,-0.2737730678,0.03338,1.461721177,
0.0334,1.918808697,0.0334,1.461721177,
0.03342,-0.639203362,0.03342,1.096290883,
0.03344,1.187948109,0.03344,1.096290883,
0.03346,0.8225178147,0.03346,1.461721177,
0.03348,0.4570875206,0.03348,1.827151471,
0.0335,-0.639203362,0.0335,1.827151471,
0.03352,-0.639203362,0.03352,2.192581765,
0.03354,-0.639203362,0.03354,1.827151471,
0.03356,0.4570875206,0.03356,1.827151471,
0.03358,0.4570875206,0.03358,1.096290883,
0.0336,0.09165722638,0.0336,2.192581765,
0.03362,1.187948109,0.03362,1.461721177,
0.03364,-0.639203362,0.03364,1.461721177,
0.03366,0.09165722638,0.03366,1.827151471,
0.03368,-0.2737730678,0.03368,1.461721177,
0.0337,-0.2737730678,0.0337,1.827151471,
0.03372,0.8225178147,0.03372,1.827151471,
0.03374,1.187948109,0.03374,1.461721177,
0.03376,-0.2737730678,0.03376,1.461721177,
0.03378,0.09165722638,0.03378,1.461721177,
0.0338,0.4570875206,0.0338,1.827151471,
0.03382,-0.639203362,0.03382,1.461721177,
0.03384,0.09165722638,0.03384,1.827151471,
0.03386,1.187948109,0.03386,2.192581765,
0.03388,-0.639203362,0.03388,1.461721177,
0.0339,-0.639203362,0.0339,2.192581765,
0.03392,-0.639203362,0.03392,1.827151471,
0.03394,-0.2737730678,0.03394,1.461721177,
0.03396,0.09165722638,0.03396,1.827151471,
0.03398,0.09165722638,0.03398,1.461721177,
0.034,-0.639203362,0.034,1.461721177,
0.03402,-0.639203362,0.03402,1.827151471,
0.03404,-0.639203362,0.03404,1.827151471,
0.03406,0.09165722638,0.03406,1.461721177,
0.03408,2.649669286,0.03408,1.461721177,
0.0341,0.09165722638,0.0341,1.827151471,
0.03412,0.09165722638,0.03412,1.827151471,
0.03414,0.09165722638,0.03414,1.827151471,
0.03416,0.09165722638,0.03416,2.192581765,
0.03418,-0.639203362,0.03418,1.461721177,
0.0342,-0.639203362,0.0342,1.827151471,
0.03422,0.09165722638,0.03422,1.461721177,
0.03424,-0.2737730678,0.03424,1.461721177,
0.03426,0.09165722638,0.03426,1.827151471,
0.03428,1.187948109,0.03428,1.827151471,
0.0343,-0.2737730678,0.0343,1.461721177,
0.03432,-0.639203362,0.03432,1.827151471,
0.03434,1.918808697,0.03434,2.192581765,
0.03436,-0.2737730678,0.03436,1.461721177,
0.03438,-0.639203362,0.03438,1.827151471,
0.0344,0.09165722638,0.0344,1.827151471,
0.03442,-0.2737730678,0.03442,1.461721177,
0.03444,0.4570875206,0.03444,1.827151471,
0.03446,0.09165722638,0.03446,2.192581765,
0.03448,0.09165722638,0.03448,1.461721177,
0.0345,0.4570875206,0.0345,2.192581765,
0.03452,-0.639203362,0.03452,1.827151471,
0.03454,-0.2737730678,0.03454,1.096290883,
0.03456,0.4570875206,0.03456,1.827151471,
0.03458,0.4570875206,0.03458,1.827151471,
0.0346,-0.639203362,0.0346,1.827151471,
0.03462,0.4570875206,0.03462,2.192581765,
0.03464,0.4570875206,0.03464,1.827151471,
0.03466,0.8225178147,0.03466,1.461721177,
0.03468,0.4570875206,0.03468,1.827151471,
0.0347,-0.639203362,0.0347,1.827151471,
0.03472,-0.639203362,0.03472,1.461721177,
0.03474,-0.639203362,0.03474,1.827151471,
0.03476,-0.639203362,0.03476,1.827151471,
0.03478,-0.2737730678,0.03478,1.096290883,
0.0348,-0.639203362,0.0348,1.827151471,
0.03482,0.8225178147,0.03482,2.192581765,
0.03484,-0.639203362,0.03484,1.461721177,
0.03486,-0.2737730678,0.03486,1.827151471,
0.03488,1.553378403,0.03488,1.827151471,
0.0349,0.09165722638,0.0349,1.461721177,
0.03492,-0.639203362,0.03492,1.461721177,
0.03494,0.09165722638,0.03494,1.827151471,
0.03496,0.09165722638,0.03496,1.827151471,
0.03498,1.187948109,0.03498,1.461721177,
0.035,-0.2737730678,0.035,1.827151471,
0.03502,-0.639203362,0.03502,1.827151471,
0.03504,0.09165722638,0.03504,2.192581765,
0.03506,-0.639203362,0.03506,1.827151471,
0.03508,-0.639203362,0.03508,1.096290883,
0.0351,1.553378403,0.0351,1.461721177,
0.03512,-0.2737730678,0.03512,2.192581765,
0.03514,-0.639203362,0.03514,1.461721177,
0.03516,0.09165722638,0.03516,2.192581765,
0.03518,0.4570875206,0.03518,1.827151471,
0.0352,-0.639203362,0.0352,1.461721177,
0.03522,0.8225178147,0.03522,1.827151471,
0.03524,0.09165722638,0.03524,1.096290883,
0.03526,-0.639203362,0.03526,1.827151471,
0.03528,1.187948109,0.03528,2.192581765,
0.0353,-0.639203362,0.0353,1.827151471,
0.03532,0.09165722638,0.03532,2.558012059,
0.03534,0.8225178147,0.03534,2.192581765,
0.03536,1.187948109,0.03536,1.461721177,
0.03538,-0.639203362,0.03538,2.192581765,
0.0354,-0.2737730678,0.0354,1.827151471,
0.03542,-0.2737730678,0.03542,1.827151471,
0.03544,-0.2737730678,0.03544,2.192581765,
0.03546,-0.639203362,0.03546,1.827151471,
0.03548,0.09165722638,0.03548,1.461721177,
0.0355,-0.639203362,0.0355,1.827151471,
0.03552,0.09165722638,0.03552,1.461721177,
0.03554,-0.639203362,0.03554,1.096290883,
0.03556,0.4570875206,0.03556,2.192581765,
0.03558,-0.2737730678,0.03558,1.827151471,
0.0356,0.09165722638,0.0356,1.827151471,
0.03562,-0.2737730678,0.03562,2.192581765,
0.03564,-0.2737730678,0.03564,2.923442353,
0.03566,3.01509958,0.03566,1.827151471,
0.03568,0.09165722638,0.03568,2.192581765,
0.0357,-0.639203362,0.0357,1.827151471,
0.03572,-0.639203362,0.03572,1.827151471,
0.03574,0.09165722638,0.03574,3.288872648,
0.03576,0.09165722638,0.03576,1.461721177,
0.03578,0.4570875206,0.03578,1.827151471,
0.0358,0.09165722638,0.0358,1.827151471,
0.03582,-0.2737730678,0.03582,1.096290883,
0.03584,-0.2737730678,0.03584,0.7308605883,
0.03586,0.09165722638,0.03586,2.558012059,
0.03588,-0.639203362,0.03588,1.827151471,
0.0359,0.4570875206,0.0359,1.461721177,
0.03592,0.09165722638,0.03592,2.192581765,
0.03594,-0.639203362,0.03594,1.827151471,
0.03596,-0.2737730678,0.03596,2.192581765,
0.03598,1.918808697,0.03598,2.192581765,
0.036,-0.639203362,0.036,1.827151471,
0.03602,-0.639203362,0.03602,1.461721177,
0.03604,0.09165722638,0.03604,2.923442353,
0.03606,-0.2737730678,0.03606,1.827151471,
0.03608,0.09165722638,0.03608,1.461721177,
0.0361,0.8225178147,0.0361,1.827151471,
0.03612,-0.639203362,0.03612,1.827151471,
0.03614,-0.639203362,0.03614,1.461721177,
0.03616,0.09165722638,0.03616,2.192581765,
0.03618,-0.639203362,0.03618,1.827151471,
0.0362,-0.639203362,0.0362,1.461721177,
0.03622,0.4570875206,0.03622,2.558012059,
0.03624,-0.639203362,0.03624,0.7308605883,
0.03626,-0.639203362,0.03626,1.461721177,
0.03628,-0.639203362,0.03628,2.192581765,
0.0363,0.4570875206,0.0363,1.461721177,
0.03632,0.09165722638,0.03632,2.192581765,
0.03634,0.4570875206,0.03634,2.558012059,
0.03636,1.553378403,0.03636,1.827151471,
0.03638,-0.639203362,0.03638,2.192581765,
0.0364,0.09165722638,0.0364,3.288872648,
0.03642,0.4570875206,0.03642,1.461721177,
0.03644,-0.2737730678,0.03644,1.096290883,
0.03646,-0.2737730678,0.03646,1.827151471,
0.03648,0.09165722638,0.03648,2.192581765,
0.0365,-0.639203362,0.0365,2.192581765,
0.03652,0.09165722638,0.03652,1.827151471,
0.03654,-0.639203362,0.03654,0.7308605883,
0.03656,-0.639203362,0.03656,1.827151471,
0.03658,-0.639203362,0.03658,2.192581765,
0.0366,0.4570875206,0.0366,1.461721177,
0.03662,0.09165722638,0.03662,1.827151471,
0.03664,-0.639203362,0.03664,1.827151471,
0.03666,0.4570875206,0.03666,1.096290883,
0.03668,-0.639203362,0.03668,1.827151471,
0.0367,0.09165722638,0.0367,2.192581765,
0.03672,-0.639203362,0.03672,2.192581765,
0.03674,-0.639203362,0.03674,1.096290883,
0.03676,-0.639203362,0.03676,2.192581765,
0.03678,-0.2737730678,0.03678,1.827151471,
0.0368,-0.639203362,0.0368,1.461721177,
0.03682,0.09165722638,0.03682,2.192581765,
0.03684,-0.639203362,0.03684,1.827151471,
0.03686,0.4570875206,0.03686,1.461721177,
0.03688,-0.639203362,0.03688,2.192581765,
0.0369,-0.2737730678,0.0369,1.827151471,
0.03692,0.09165722638,0.03692,1.461721177,
0.03694,0.09165722638,0.03694,2.192581765,
0.03696,0.4570875206,0.03696,1.827151471,
0.03698,0.09165722638,0.03698,1.461721177,
0.037,0.09165722638,0.037,2.192581765,
0.03702,-0.639203362,0.03702,1.461721177,
0.03704,-0.639203362,0.03704,1.461721177,
0.03706,-0.639203362,0.03706,2.192581765,
0.03708,-0.639203362,0.03708,1.827151471,
0.0371,-0.2737730678,0.0371,1.827151471,
0.03712,-0.2737730678,0.03712,2.192581765,
0.03714,-0.639203362,0.03714,1.827151471,
0.03716,-0.639203362,0.03716,1.827151471,
0.03718,-0.2737730678,0.03718,1.827151471,
0.0372,0.4570875206,0.0372,1.827151471,
0.03722,1.187948109,0.03722,2.192581765,
0.03724,-0.2737730678,0.03724,2.192581765,
0.03726,-0.639203362,0.03726,1.827151471,
0.03728,0.4570875206,0.03728,2.192581765,
0.0373,-0.2737730678,0.0373,1.461721177,
0.03732,-0.2737730678,0.03732,1.827151471,
0.03734,0.09165722638,0.03734,2.192581765,
0.03736,0.4570875206,0.03736,1.827151471,
0.03738,0.4570875206,0.03738,1.827151471,
0.0374,0.8225178147,0.0374,2.192581765,
0.03742,-0.2737730678,0.03742,1.827151471,
0.03744,0.4570875206,0.03744,1.827151471,
0.03746,-0.639203362,0.03746,2.192581765,
0.03748,1.918808697,0.03748,2.192581765,
0.0375,-0.639203362,0.0375,2.192581765,
0.03752,0.09165722638,0.03752,2.192581765,
0.03754,-0.2737730678,0.03754,1.827151471,
0.03756,-0.2737730678,0.03756,1.827151471,
0.03758,0.09165722638,0.03758,2.192581765,
0.0376,0.09165722638,0.0376,2.192581765,
0.03762,0.4570875206,0.03762,1.827151471,
0.03764,2.284238991,0.03764,2.192581765,
0.03766,-0.639203362,0.03766,1.461721177,
0.03768,0.4570875206,0.03768,2.192581765,
0.0377,1.187948109,0.0377,2.192581765,
0.03772,-0.2737730678,0.03772,1.827151471,
0.03774,0.4570875206,0.03774,2.192581765,
0.03776,-0.639203362,0.03776,2.192581765,
0.03778,-0.639203362,0.03778,1.827151471,
0.0378,0.4570875206,0.0378,2.192581765,
0.03782,-0.639203362,0.03782,2.192581765,
0.03784,-0.639203362,0.03784,1.827151471,
0.03786,0.4570875206,0.03786,1.827151471,
0.03788,0.09165722638,0.03788,2.192581765,
0.0379,-0.2737730678,0.0379,1.827151471,
0.03792,-0.639203362,0.03792,2.192581765,
0.03794,-0.2737730678,0.03794,2.558012059,
0.03796,-0.639203362,0.03796,1.827151471,
0.03798,0.8225178147,0.03798,1.827151471,
0.038,-0.2737730678,0.038,2.192581765,
0.03802,-0.2737730678,0.03802,1.827151471,
0.03804,-0.2737730678,0.03804,1.827151471,
0.03806,0.09165722638,0.03806,2.192581765,
0.03808,-0.639203362,0.03808,1.827151471,
0.0381,-0.639203362,0.0381,1.827151471,
0.03812,1.187948109,0.03812,2.192581765,
0.03814,0.09165722638,0.03814,1.827151471,
0.03816,0.4570875206,0.03816,1.827151471,
0.03818,-0.2737730678,0.03818,1.827151471,
0.0382,-0.639203362,0.0382,1.827151471,
0.03822,-0.639203362,0.03822,1.461721177,
0.03824,-0.2737730678,0.03824,2.558012059,
0.03826,0.8225178147,0.03826,1.827151471,
0.03828,-0.2737730678,0.03828,1.461721177,
0.0383,0.09165722638,0.0383,2.192581765,
0.03832,-0.639203362,0.03832,1.827151471,
0.03834,-0.2737730678,0.03834,1.827151471,
0.03836,0.4570875206,0.03836,1.827151471,
0.03838,-0.2737730678,0.03838,1.461721177,
0.0384,0.4570875206,0.0384,1.827151471,
0.03842,-0.639203362,0.03842,2.558012059,
0.03844,-0.639203362,0.03844,2.192581765,
0.03846,1.187948109,0.03846,2.192581765,
0.03848,0.09165722638,0.03848,1.827151471,
0.0385,0.09165722638,0.0385,2.192581765,
0.03852,0.09165722638,0.03852,1.827151471,
0.03854,0.09165722638,0.03854,2.192581765,
0.03856,-0.639203362,0.03856,2.192581765,
0.03858,0.4570875206,0.03858,1.827151471,
0.0386,-0.2737730678,0.0386,2.192581765,
0.03862,0.09165722638,0.03862,2.192581765,
0.03864,-0.639203362,0.03864,2.192581765,
0.03866,-0.639203362,0.03866,1.827151471,
0.03868,-0.639203362,0.03868,1.827151471,
0.0387,0.4570875206,0.0387,1.827151471,
0.03872,0.09165722638,0.03872,2.192581765,
0.03874,-0.639203362,0.03874,1.827151471,
0.03876,0.8225178147,0.03876,3.288872648,
0.03878,-0.2737730678,0.03878,1.827151471,
0.0388,0.09165722638,0.0388,2.192581765,
0.03882,1.553378403,0.03882,2.192581765,
0.03884,0.09165722638,0.03884,2.192581765,
0.03886,-0.639203362,0.03886,1.096290883,
0.03888,0.09165722638,0.03888,2.192581765,
0.0389,0.4570875206,0.0389,2.192581765,
0.03892,-0.639203362,0.03892,1.827151471,
0.03894,1.918808697,0.03894,1.827151471,
0.03896,-0.639203362,0.03896,1.096290883,
0.03898,-0.639203362,0.03898,2.192581765,
0.039,0.09165722638,0.039,1.827151471,
0.03902,-0.639203362,0.03902,1.827151471,
0.03904,1.187948109,0.03904,1.827151471,
0.03906,0.4570875206,0.03906,3.288872648,
0.03908,0.4570875206,0.03908,1.461721177,
0.0391,0.09165722638,0.0391,1.827151471,
0.03912,0.09165722638,0.03912,1.827151471,
0.03914,-0.639203362,0.03914,1.461721177,
0.03916,1.187948109,0.03916,0.7308605883,
0.03918,1.553378403,0.03918,1.827151471,
0.0392,0.09165722638,0.0392,1.461721177,
0.03922,-0.639203362,0.03922,1.461721177,
0.03924,1.187948109,0.03924,2.192581765,
0.03926,-0.2737730678,0.03926,2.923442353,
0.03928,-0.639203362,0.03928,1.827151471,
0.0393,0.4570875206,0.0393,1.461721177,
0.03932,-0.2737730678,0.03932,1.461721177,
0.03934,2.284238991,0.03934,1.827151471,
0.03936,-0.639203362,0.03936,0.3654302942,
0.03938,0.4570875206,0.03938,1.096290883,
0.0394,0.09165722638,0.0394,2.192581765,
0.03942,-0.2737730678,0.03942,1.461721177,
0.03944,-0.2737730678,0.03944,1.827151471,
0.03946,1.553378403,0.03946,2.558012059,
0.03948,0.09165722638,0.03948,1.827151471,
0.0395,-0.639203362,0.0395,1.096290883,
0.03952,0.09165722638,0.03952,1.827151471,
0.03954,0.4570875206,0.03954,1.827151471,
0.03956,-0.2737730678,0.03956,1.461721177,
0.03958,-0.639203362,0.03958,1.461721177,
0.0396,0.8225178147,0.0396,1.096290883,
0.03962,-0.2737730678,0.03962,1.461721177,
0.03964,0.4570875206,0.03964,2.192581765,
0.03966,-0.639203362,0.03966,1.461721177,
0.03968,0.4570875206,0.03968,1.461721177,
0.0397,0.09165722638,0.0397,1.827151471,
0.03972,1.553378403,0.03972,2.192581765,
0.03974,0.4570875206,0.03974,1.461721177,
0.03976,-0.639203362,0.03976,2.558012059,
0.03978,-0.639203362,0.03978,1.461721177,
0.0398,-0.639203362,0.0398,1.461721177,
0.03982,0.09165722638,0.03982,1.461721177,
0.03984,0.8225178147,0.03984,1.827151471,
0.03986,-0.639203362,0.03986,0.7308605883,
0.03988,-0.639203362,0.03988,2.192581765,
0.0399,0.4570875206,0.0399,1.827151471,
0.03992,-0.639203362,0.03992,1.096290883,
0.03994,0.4570875206,0.03994,1.827151471,
0.03996,0.09165722638,0.03996,1.461721177,
0.03998,0.8225178147,0.03998,1.827151471,
0.04,0.4570875206,0.04,1.827151471,
0.04002,0.8225178147,0.04002,1.461721177,
0.04004,0.4570875206,0.04004,1.461721177,
0.04006,-0.639203362,0.04006,2.192581765,
0.04008,2.284238991,0.04008,1.461721177,
0.0401,0.4570875206,0.0401,1.461721177,
0.04012,-0.2737730678,0.04012,1.827151471,
0.04014,0.4570875206,0.04014,1.461721177,
0.04016,-0.639203362,0.04016,0.7308605883,
0.04018,-0.2737730678,0.04018,2.192581765,
0.0402,0.09165722638,0.0402,1.096290883,
0.04022,0.09165722638,0.04022,1.096290883,
0.04024,-0.639203362,0.04024,1.461721177,
0.04026,-0.639203362,0.04026,1.461721177,
0.04028,0.8225178147,0.04028,1.096290883,
0.0403,-0.2737730678,0.0403,2.192581765,
0.04032,0.4570875206,0.04032,1.461721177,
0.04034,-0.639203362,0.04034,0.7308605883,
0.04036,-0.2737730678,0.04036,1.827151471,
0.04038,0.4570875206,0.04038,1.827151471,
0.0404,0.09165722638,0.0404,1.096290883,
0.04042,0.4570875206,0.04042,1.827151471,
0.04044,-0.639203362,0.04044,1.461721177,
0.04046,-0.639203362,0.04046,0.7308605883,
0.04048,0.8225178147,0.04048,1.827151471,
0.0405,0.09165722638,0.0405,1.827151471,
0.04052,0.09165722638,0.04052,0.7308605883,
0.04054,-0.2737730678,0.04054,1.827151471,
0.04056,0.4570875206,0.04056,2.192581765,
0.04058,-0.2737730678,0.04058,1.096290883,
0.0406,0.09165722638,0.0406,1.827151471,
0.04062,-0.639203362,0.04062,1.827151471,
0.04064,0.09165722638,0.04064,1.461721177,
0.04066,0.09165722638,0.04066,1.827151471,
0.04068,-0.2737730678,0.04068,1.827151471,
0.0407,1.187948109,0.0407,1.461721177,
0.04072,-0.2737730678,0.04072,1.827151471,
0.04074,-0.2737730678,0.04074,1.461721177,
0.04076,-0.2737730678,0.04076,1.461721177,
0.04078,0.09165722638,0.04078,1.827151471,
0.0408,-0.2737730678,0.0408,1.827151471,
0.04082,-0.2737730678,0.04082,1.461721177,
0.04084,0.4570875206,0.04084,1.827151471,
0.04086,0.8225178147,0.04086,1.461721177,
0.04088,-0.639203362,0.04088,1.461721177,
0.0409,0.09165722638,0.0409,1.827151471,
0.04092,-0.639203362,0.04092,1.827151471,
0.04094,-0.639203362,0.04094,1.096290883,
0.04096,-0.639203362,0.04096,2.558012059,
0.04098,-0.2737730678,0.04098,1.827151471,
0.041,0.09165722638,0.041,2.558012059,
0.04102,-0.2737730678,0.04102,1.827151471,
0.04104,1.187948109,0.04104,1.827151471,
0.04106,-0.639203362,0.04106,1.827151471,
0.04108,0.09165722638,0.04108,1.827151471,
0.0411,-0.639203362,0.0411,1.827151471,
0.04112,0.09165722638,0.04112,2.192581765,
0.04114,-0.2737730678,0.04114,1.461721177,
0.04116,-0.639203362,0.04116,1.461721177,
0.04118,-0.2737730678,0.04118,2.558012059,
0.0412,-0.2737730678,0.0412,1.827151471,
0.04122,-0.639203362,0.04122,1.827151471,
0.04124,0.4570875206,0.04124,2.558012059,
0.04126,-0.2737730678,0.04126,1.827151471,
0.04128,-0.639203362,0.04128,1.096290883,
0.0413,0.4570875206,0.0413,2.192581765,
0.04132,-0.639203362,0.04132,2.192581765,
0.04134,-0.639203362,0.04134,1.461721177,
0.04136,-0.2737730678,0.04136,2.558012059,
0.04138,-0.2737730678,0.04138,2.192581765,
0.0414,0.8225178147,0.0414,1.827151471,
0.04142,0.09165722638,0.04142,1.461721177,
0.04144,-0.639203362,0.04144,1.827151471,
0.04146,-0.639203362,0.04146,2.192581765,
0.04148,-0.2737730678,0.04148,1.096290883,
0.0415,-0.639203362,0.0415,1.461721177,
0.04152,0.09165722638,0.04152,1.827151471,
0.04154,-0.639203362,0.04154,1.827151471,
0.04156,-0.639203362,0.04156,1.827151471,
0.04158,-0.639203362,0.04158,1.461721177,
0.0416,-0.639203362,0.0416,2.192581765,
0.04162,-0.2737730678,0.04162,1.827151471,
0.04164,-0.639203362,0.04164,2.192581765,
0.04166,-0.2737730678,0.04166,1.827151471,
0.04168,0.4570875206,0.04168,2.923442353,
0.0417,-0.2737730678,0.0417,1.827151471,
0.04172,-0.639203362,0.04172,2.192581765,
0.04174,-0.2737730678,0.04174,1.827151471,
0.04176,-0.2737730678,0.04176,1.827151471,
0.04178,0.09165722638,0.04178,3.288872648,
0.0418,-0.639203362,0.0418,1.827151471,
0.04182,1.553378403,0.04182,1.461721177,
0.04184,0.09165722638,0.04184,2.192581765,
0.04186,-0.639203362,0.04186,1.827151471,
0.04188,0.09165722638,0.04188,1.096290883,
0.0419,1.187948109,0.0419,1.827151471,
0.04192,-0.639203362,0.04192,2.192581765,
0.04194,0.09165722638,0.04194,2.192581765,
0.04196,-0.639203362,0.04196,1.827151471,
0.04198,0.09165722638,0.04198,1.461721177,
0.042,-0.2737730678,0.042,2.192581765,
0.04202,-0.639203362,0.04202,1.827151471,
0.04204,-0.2737730678,0.04204,1.461721177,
0.04206,1.187948109,0.04206,1.827151471,
0.04208,0.09165722638,0.04208,2.192581765,
0.0421,-0.2737730678,0.0421,1.827151471,
0.04212,0.8225178147,0.04212,1.461721177,
0.04214,-0.2737730678,0.04214,1.461721177,
0.04216,-0.2737730678,0.04216,1.827151471,
0.04218,0.09165722638,0.04218,1.096290883,
0.0422,-0.639203362,0.0422,1.827151471,
0.04222,0.4570875206,0.04222,1.827151471,
0.04224,-0.639203362,0.04224,1.827151471,
0.04226,-0.2737730678,0.04226,1.827151471,
0.04228,-0.639203362,0.04228,0.7308605883,
0.0423,-0.639203362,0.0423,1.461721177,
0.04232,-0.2737730678,0.04232,1.461721177,
0.04234,-0.2737730678,0.04234,1.461721177,
0.04236,0.09165722638,0.04236,1.827151471,
0.04238,0.09165722638,0.04238,2.558012059,
0.0424,0.8225178147,0.0424,1.461721177,
0.04242,0.4570875206,0.04242,1.827151471,
0.04244,0.4570875206,0.04244,2.192581765,
0.04246,-0.2737730678,0.04246,1.461721177,
0.04248,0.4570875206,0.04248,2.192581765,
0.0425,1.187948109,0.0425,1.827151471,
0.04252,-0.639203362,0.04252,1.096290883,
0.04254,-0.2737730678,0.04254,1.827151471,
0.04256,0.4570875206,0.04256,1.827151471,
0.04258,-0.2737730678,0.04258,0.7308605883,
0.0426,-0.639203362,0.0426,1.827151471,
0.04262,-0.2737730678,0.04262,1.827151471,
0.04264,-0.639203362,0.04264,1.096290883,
0.04266,0.4570875206,0.04266,1.827151471,
0.04268,-0.2737730678,0.04268,2.192581765,
0.0427,-0.639203362,0.0427,0.7308605883,
0.04272,-0.639203362,0.04272,1.827151471,
0.04274,0.4570875206,0.04274,1.827151471,
0.04276,-0.2737730678,0.04276,1.096290883,
0.04278,-0.639203362,0.04278,1.827151471,
0.0428,1.187948109,0.0428,2.192581765,
0.04282,-0.639203362,0.04282,1.461721177,
0.04284,0.8225178147,0.04284,1.827151471,
0.04286,0.8225178147,0.04286,1.461721177,
0.04288,0.09165722638,0.04288,1.461721177,
0.0429,1.553378403,0.0429,2.192581765,
0.04292,0.8225178147,0.04292,1.827151471,
0.04294,1.187948109,0.04294,1.461721177,
0.04296,0.4570875206,0.04296,1.461721177,
0.04298,-0.639203362,0.04298,1.096290883,
0.043,-0.639203362,0.043,1.461721177,
0.04302,0.09165722638,0.04302,2.192581765,
0.04304,0.09165722638,0.04304,1.827151471,
0.04306,0.4570875206,0.04306,1.096290883,
0.04308,-0.2737730678,0.04308,1.827151471,
0.0431,1.187948109,0.0431,1.827151471,
0.04312,-0.639203362,0.04312,1.461721177,
0.04314,-0.2737730678,0.04314,2.192581765,
0.04316,0.4570875206,0.04316,1.461721177,
0.04318,1.918808697,0.04318,1.461721177,
0.0432,1.918808697,0.0432,1.827151471,
0.04322,0.4570875206,0.04322,1.827151471,
0.04324,-0.639203362,0.04324,1.096290883,
0.04326,1.187948109,0.04326,1.827151471,
0.04328,-0.639203362,0.04328,1.461721177,
0.0433,0.8225178147,0.0433,0.7308605883,
0.04332,-0.639203362,0.04332,1.827151471,
0.04334,1.187948109,0.04334,1.827151471,
0.04336,-0.639203362,0.04336,1.461721177,
0.04338,-0.2737730678,0.04338,1.827151471,
0.0434,-0.639203362,0.0434,1.827151471,
0.04342,-0.639203362,0.04342,1.461721177,
0.04344,2.649669286,0.04344,1.827151471,
0.04346,-0.639203362,0.04346,1.827151471,
0.04348,-0.639203362,0.04348,1.461721177,
0.0435,-0.639203362,0.0435,1.827151471,
0.04352,0.09165722638,0.04352,1.461721177,
0.04354,-0.2737730678,0.04354,1.096290883,
0.04356,1.553378403,0.04356,2.192581765,
0.04358,0.8225178147,0.04358,1.827151471,
0.0436,-0.639203362,0.0436,1.461721177,
0.04362,0.09165722638,0.04362,1.461721177,
0.04364,0.8225178147,0.04364,1.827151471,
0.04366,-0.639203362,0.04366,1.461721177,
0.04368,0.4570875206,0.04368,1.827151471,
0.0437,0.8225178147,0.0437,1.461721177,
0.04372,-0.2737730678,0.04372,1.096290883,
0.04374,0.09165722638,0.04374,1.461721177,
0.04376,-0.639203362,0.04376,2.192581765,
0.04378,0.09165722638,0.04378,1.461721177,
0.0438,1.187948109,0.0438,1.827151471,
0.04382,-0.639203362,0.04382,1.827151471,
0.04384,-0.639203362,0.04384,1.461721177,
0.04386,-0.2737730678,0.04386,1.461721177,
0.04388,-0.2737730678,0.04388,1.827151471,
0.0439,-0.639203362,0.0439,2.192581765,
0.04392,-0.639203362,0.04392,2.192581765,
0.04394,-0.2737730678,0.04394,1.461721177,
0.04396,-0.639203362,0.04396,1.096290883,
0.04398,0.09165722638,0.04398,1.827151471,
0.044,0.4570875206,0.044,0.7308605883,
0.04402,-0.639203362,0.04402,2.558012059,
0.04404,-0.639203362,0.04404,1.827151471,
0.04406,-0.639203362,0.04406,1.461721177,
0.04408,0.4570875206,0.04408,2.192581765,
0.0441,-0.639203362,0.0441,1.827151471,
0.04412,-0.639203362,0.04412,1.461721177,
0.04414,-0.639203362,0.04414,2.192581765,
0.04416,-0.639203362,0.04416,1.827151471,
0.04418,0.09165722638,0.04418,1.461721177,
0.0442,1.553378403,0.0442,2.558012059,
0.04422,-0.2737730678,0.04422,1.827151471,
0.04424,-0.2737730678,0.04424,1.827151471,
0.04426,0.4570875206,0.04426,1.827151471,
0.04428,-0.639203362,0.04428,1.461721177,
0.0443,-0.2737730678,0.0443,1.827151471,
0.04432,0.4570875206,0.04432,2.192581765,
0.04434,-0.639203362,0.04434,1.461721177,
0.04436,-0.639203362,0.04436,1.461721177,
0.04438,-0.639203362,0.04438,2.192581765,
0.0444,-0.639203362,0.0444,1.827151471,
0.04442,-0.639203362,0.04442,1.827151471,
0.04444,0.09165722638,0.04444,2.192581765,
0.04446,-0.639203362,0.04446,1.827151471,
0.04448,-0.639203362,0.04448,1.827151471,
0.0445,0.4570875206,0.0445,2.192581765,
0.04452,-0.2737730678,0.04452,1.827151471,
0.04454,-0.639203362,0.04454,1.827151471,
0.04456,0.09165722638,0.04456,1.827151471,
0.04458,-0.2737730678,0.04458,1.461721177,
0.0446,-0.639203362,0.0446,1.461721177,
0.04462,1.187948109,0.04462,1.827151471,
0.04464,-0.639203362,0.04464,1.461721177,
0.04466,1.187948109,0.04466,1.461721177,
0.04468,-0.2737730678,0.04468,2.192581765,
0.0447,0.8225178147,0.0447,1.461721177,
0.04472,-0.639203362,0.04472,1.461721177,
0.04474,0.09165722638,0.04474,2.558012059,
0.04476,-0.2737730678,0.04476,1.827151471,
0.04478,0.4570875206,0.04478,1.827151471,
0.0448,0.09165722638,0.0448,1.827151471,
0.04482,-0.639203362,0.04482,1.461721177,
0.04484,-0.2737730678,0.04484,1.827151471,
0.04486,0.4570875206,0.04486,2.558012059,
0.04488,-0.639203362,0.04488,1.827151471,
0.0449,-0.639203362,0.0449,2.192581765,
0.04492,-0.2737730678,0.04492,2.192581765,
0.04494,0.09165722638,0.04494,1.461721177,
0.04496,-0.2737730678,0.04496,1.827151471,
0.04498,0.4570875206,0.04498,2.558012059,
0.045,-0.639203362,0.045,1.096290883,
0.04502,0.4570875206,0.04502,1.461721177,
0.04504,-0.639203362,0.04504,2.192581765,
0.04506,-0.2737730678,0.04506,1.461721177,
0.04508,0.09165722638,0.04508,1.461721177,
0.0451,1.553378403,0.0451,2.558012059,
0.04512,0.4570875206,0.04512,1.827151471,
0.04514,-0.639203362,0.04514,1.461721177,
0.04516,-0.639203362,0.04516,2.192581765,
0.04518,-0.639203362,0.04518,1.827151471,
0.0452,0.09165722638,0.0452,1.461721177,
0.04522,1.187948109,0.04522,2.192581765,
0.04524,-0.639203362,0.04524,1.096290883,
0.04526,-0.2737730678,0.04526,2.558012059,
0.04528,-0.2737730678,0.04528,2.192581765,
0.0453,-0.639203362,0.0453,0.3654302942,
0.04532,-0.639203362,0.04532,1.096290883,
0.04534,-0.2737730678,0.04534,2.192581765,
0.04536,-0.2737730678,0.04536,1.461721177,
0.04538,-0.639203362,0.04538,1.827151471,
0.0454,-0.639203362,0.0454,1.827151471,
0.04542,0.4570875206,0.04542,1.827151471,
0.04544,0.8225178147,0.04544,1.827151471,
0.04546,-0.639203362,0.04546,2.192581765,
0.04548,-0.2737730678,0.04548,1.827151471,
0.0455,-0.2737730678,0.0455,3.288872648,
0.04552,0.4570875206,0.04552,2.558012059,
0.04554,-0.2737730678,0.04554,1.827151471,
0.04556,-0.639203362,0.04556,1.827151471,
0.04558,-0.639203362,0.04558,2.192581765,
0.0456,0.09165722638,0.0456,0.3654302942,
0.04562,0.09165722638,0.04562,1.461721177,
0.04564,-0.2737730678,0.04564,2.558012059,
0.04566,-0.2737730678,0.04566,1.461721177,
0.04568,-0.2737730678,0.04568,1.827151471,
0.0457,0.09165722638,0.0457,3.288872648,
0.04572,1.187948109,0.04572,1.461721177,
0.04574,-0.639203362,0.04574,1.827151471,
0.04576,-0.2737730678,0.04576,1.827151471,
0.04578,-0.2737730678,0.04578,1.461721177,
0.0458,-0.639203362,0.0458,3.288872648,
0.04582,0.4570875206,0.04582,1.827151471,
0.04584,-0.2737730678,0.04584,1.827151471,
0.04586,0.09165722638,0.04586,2.558012059,
0.04588,-0.639203362,0.04588,1.827151471,
0.0459,-0.639203362,0.0459,1.827151471,
0.04592,-0.639203362,0.04592,2.558012059,
0.04594,-0.639203362,0.04594,2.558012059,
0.04596,0.4570875206,0.04596,2.192581765,
0.04598,-0.2737730678,0.04598,2.192581765,
0.046,-0.2737730678,0.046,1.096290883,
0.04602,0.4570875206,0.04602,1.827151471,
0.04604,0.09165722638,0.04604,2.192581765,
0.04606,2.284238991,0.04606,2.192581765,
0.04608,-0.2737730678,0.04608,1.461721177,
0.0461,1.187948109,0.0461,2.558012059,
0.04612,-0.639203362,0.04612,1.827151471,
0.04614,-0.2737730678,0.04614,2.192581765,
0.04616,0.09165722638,0.04616,2.192581765,
0.04618,2.284238991,0.04618,1.827151471,
0.0462,0.09165722638,0.0462,2.923442353,
0.04622,-0.2737730678,0.04622,1.827151471,
0.04624,-0.639203362,0.04624,2.192581765,
0.04626,-0.2737730678,0.04626,1.461721177,
0.04628,-0.639203362,0.04628,2.192581765,
0.0463,-0.639203362,0.0463,0.7308605883,
0.04632,1.187948109,0.04632,1.827151471,
0.04634,-0.639203362,0.04634,1.827151471,
0.04636,-0.2737730678,0.04636,1.827151471,
0.04638,1.918808697,0.04638,1.827151471,
0.0464,-0.639203362,0.0464,2.923442353,
0.04642,-0.639203362,0.04642,1.827151471,
0.04644,0.4570875206,0.04644,1.827151471,
0.04646,-0.2737730678,0.04646,1.827151471,
0.04648,-0.639203362,0.04648,1.827151471,
0.0465,0.4570875206,0.0465,0.3654302942,
0.04652,0.09165722638,0.04652,1.827151471,
0.04654,-0.639203362,0.04654,2.192581765,
0.04656,1.553378403,0.04656,1.461721177,
0.04658,0.09165722638,0.04658,1.461721177,
0.0466,0.8225178147,0.0466,1.461721177,
0.04662,1.187948109,0.04662,1.827151471,
0.04664,-0.639203362,0.04664,1.827151471,
0.04666,0.09165722638,0.04666,1.827151471,
0.04668,0.09165722638,0.04668,2.192581765,
0.0467,0.8225178147,0.0467,2.192581765,
0.04672,-0.639203362,0.04672,1.461721177,
0.04674,-0.2737730678,0.04674,1.461721177,
0.04676,0.8225178147,0.04676,1.461721177,
0.04678,2.284238991,0.04678,1.461721177,
0.0468,-0.639203362,0.0468,1.461721177,
0.04682,-0.639203362,0.04682,1.827151471,
0.04684,0.8225178147,0.04684,1.827151471,
0.04686,-0.639203362,0.04686,1.827151471,
0.04688,0.09165722638,0.04688,1.827151471,
0.0469,0.09165722638,0.0469,1.827151471,
0.04692,0.09165722638,0.04692,1.461721177,
0.04694,0.4570875206,0.04694,1.827151471,
0.04696,0.09165722638,0.04696,1.827151471,
0.04698,-0.639203362,0.04698,1.461721177,
0.047,2.649669286,0.047,2.192581765,
0.04702,1.187948109,0.04702,1.827151471,
0.04704,1.187948109,0.04704,1.461721177,
0.04706,-0.639203362,0.04706,1.827151471,
0.04708,1.553378403,0.04708,1.461721177,
0.0471,0.09165722638,0.0471,1.461721177,
0.04712,0.09165722638,0.04712,1.827151471,
0.04714,0.4570875206,0.04714,2.192581765,
0.04716,-0.639203362,0.04716,1.096290883,
0.04718,0.09165722638,0.04718,1.827151471,
0.0472,-0.2737730678,0.0472,1.827151471,
0.04722,3.380529874,0.04722,1.096290883,
0.04724,0.4570875206,0.04724,2.192581765,
0.04726,-0.639203362,0.04726,1.827151471,
0.04728,0.4570875206,0.04728,1.461721177,
0.0473,-0.2737730678,0.0473,1.827151471,
0.04732,0.09165722638,0.04732,1.827151471,
0.04734,-0.639203362,0.04734,1.096290883,
0.04736,0.4570875206,0.04736,1.827151471,
0.04738,2.649669286,0.04738,1.827151471,
0.0474,-0.639203362,0.0474,1.461721177,
0.04742,0.8225178147,0.04742,1.827151471,
0.04744,0.09165722638,0.04744,2.192581765,
0.04746,-0.639203362,0.04746,1.461721177,
0.04748,-0.2737730678,0.04748,1.827151471,
0.0475,-0.639203362,0.0475,1.827151471,
0.04752,0.8225178147,0.04752,1.461721177,
0.04754,1.553378403,0.04754,2.192581765,
0.04756,1.187948109,0.04756,1.827151471,
0.04758,-0.2737730678,0.04758,1.461721177,
0.0476,-0.639203362,0.0476,1.827151471,
0.04762,-0.2737730678,0.04762,1.827151471,
0.04764,1.918808697,0.04764,2.192581765,
0.04766,-0.639203362,0.04766,1.096290883,
0.04768,0.09165722638,0.04768,1.461721177,
0.0477,-0.2737730678,0.0477,1.461721177,
0.04772,-0.639203362,0.04772,1.096290883,
0.04774,0.4570875206,0.04774,1.461721177,
0.04776,-0.639203362,0.04776,1.096290883,
0.04778,0.4570875206,0.04778,1.461721177,
0.0478,0.4570875206,0.0478,1.827151471,
0.04782,-0.2737730678,0.04782,1.827151471,
0.04784,0.4570875206,0.04784,1.827151471,
0.04786,1.553378403,0.04786,1.461721177,
0.04788,-0.639203362,0.04788,1.096290883,
0.0479,0.4570875206,0.0479,1.827151471,
0.04792,0.4570875206,0.04792,1.096290883,
0.04794,0.09165722638,0.04794,1.096290883,
0.04796,-0.639203362,0.04796,1.461721177,
0.04798,0.09165722638,0.04798,1.461721177,
0.048,0.09165722638,0.048,1.461721177,
0.04802,0.8225178147,0.04802,1.827151471,
0.04804,0.09165722638,0.04804,1.461721177,
0.04806,1.187948109,0.04806,1.461721177,
0.04808,-0.639203362,0.04808,1.461721177,
0.0481,0.4570875206,0.0481,1.461721177,
0.04812,-0.2737730678,0.04812,0.7308605883,
0.04814,-0.639203362,0.04814,1.461721177,
0.04816,-0.2737730678,0.04816,1.827151471,
0.04818,-0.2737730678,0.04818,1.461721177,
0.0482,0.4570875206,0.0482,1.827151471,
0.04822,1.918808697,0.04822,2.192581765,
0.04824,-0.639203362,0.04824,1.096290883,
0.04826,0.09165722638,0.04826,1.827151471,
0.04828,2.284238991,0.04828,1.461721177,
0.0483,-0.2737730678,0.0483,1.461721177,
0.04832,-0.2737730678,0.04832,1.827151471,
0.04834,0.09165722638,0.04834,1.827151471,
0.04836,-0.639203362,0.04836,1.461721177,
0.04838,0.4570875206,0.04838,2.192581765,
0.0484,1.187948109,0.0484,1.827151471,
0.04842,-0.639203362,0.04842,0.7308605883,
0.04844,0.4570875206,0.04844,1.461721177,
0.04846,0.8225178147,0.04846,1.827151471,
0.04848,-0.639203362,0.04848,1.461721177,
0.0485,0.09165722638,0.0485,2.192581765,
0.04852,-0.639203362,0.04852,1.461721177,
0.04854,-0.2737730678,0.04854,1.461721177,
0.04856,-0.2737730678,0.04856,1.461721177,
0.04858,-0.2737730678,0.04858,1.461721177,
0.0486,-0.639203362,0.0486,1.461721177,
0.04862,0.4570875206,0.04862,2.558012059,
0.04864,-0.2737730678,0.04864,1.827151471,
0.04866,-0.639203362,0.04866,1.461721177,
0.04868,0.4570875206,0.04868,2.192581765,
0.0487,-0.639203362,0.0487,1.827151471,
0.04872,0.09165722638,0.04872,1.096290883,
0.04874,-0.639203362,0.04874,2.192581765,
0.04876,0.09165722638,0.04876,1.827151471,
0.04878,-0.639203362,0.04878,1.461721177,
0.0488,-0.2737730678,0.0488,1.827151471,
0.04882,0.4570875206,0.04882,0.7308605883,
0.04884,0.09165722638,0.04884,1.461721177,
0.04886,-0.639203362,0.04886,2.192581765,
0.04888,-0.2737730678,0.04888,1.461721177,
0.0489,0.09165722638,0.0489,1.827151471,
0.04892,0.4570875206,0.04892,3.654302942,
0.04894,0.4570875206,0.04894,1.827151471,
0.04896,-0.2737730678,0.04896,1.461721177,
0.04898,-0.2737730678,0.04898,1.827151471,
0.049,0.4570875206,0.049,2.192581765,
0.04902,0.09165722638,0.04902,1.461721177,
0.04904,2.649669286,0.04904,2.192581765,
0.04906,0.09165722638,0.04906,1.827151471,
0.04908,-0.2737730678,0.04908,1.461721177,
0.0491,0.09165722638,0.0491,1.827151471,
0.04912,0.09165722638,0.04912,1.096290883,
0.04914,-0.639203362,0.04914,1.096290883,
0.04916,-0.2737730678,0.04916,1.827151471,
0.04918,0.4570875206,0.04918,1.827151471,
0.0492,0.09165722638,0.0492,1.461721177,
0.04922,1.187948109,0.04922,0.7308605883,
0.04924,0.8225178147,0.04924,1.827151471,
0.04926,0.09165722638,0.04926,1.096290883,
0.04928,-0.2737730678,0.04928,1.827151471,
0.0493,-0.2737730678,0.0493,1.827151471,
0.04932,0.09165722638,0.04932,1.827151471,
0.04934,-0.2737730678,0.04934,1.827151471,
0.04936,-0.639203362,0.04936,1.827151471,
0.04938,0.4570875206,0.04938,1.096290883,
0.0494,0.09165722638,0.0494,1.827151471,
0.04942,-0.2737730678,0.04942,2.923442353,
0.04944,0.4570875206,0.04944,1.096290883,
0.04946,-0.2737730678,0.04946,1.827151471,
0.04948,-0.639203362,0.04948,1.461721177,
0.0495,0.09165722638,0.0495,1.461721177,
0.04952,-0.2737730678,0.04952,1.096290883,
0.04954,-0.639203362,0.04954,1.827151471,
0.04956,-0.639203362,0.04956,1.461721177,
0.04958,-0.639203362,0.04958,2.192581765,
0.0496,-0.639203362,0.0496,1.827151471,
0.04962,-0.639203362,0.04962,2.558012059,
0.04964,-0.639203362,0.04964,2.192581765,
0.04966,-0.639203362,0.04966,1.827151471,
0.04968,-0.2737730678,0.04968,1.461721177,
0.0497,-0.639203362,0.0497,2.192581765,
0.04972,-0.2737730678,0.04972,1.827151471,
0.04974,0.8225178147,0.04974,1.827151471,
0.04976,0.4570875206,0.04976,2.192581765,
0.04978,-0.639203362,0.04978,1.827151471,
0.0498,-0.639203362,0.0498,1.461721177,
0.04982,-0.2737730678,0.04982,2.192581765,
0.04984,-0.639203362,0.04984,1.461721177,
0.04986,2.649669286,0.04986,1.827151471,
0.04988,0.4570875206,0.04988,2.192581765,
0.0499,-0.639203362,0.0499,1.827151471,
0.04992,1.553378403,0.04992,2.192581765,
0.04994,1.553378403,0.04994,2.192581765,
0.04996,-0.639203362,0.04996,1.096290883,
0.04998,-0.639203362,0.04998,1.461721177,
0.05,0.4570875206,0.05,2.192581765,
0.05002,-0.639203362,0.05002,1.827151471,
0.05004,0.09165722638,0.05004,1.827151471,
0.05006,0.09165722638,0.05006,2.192581765,
0.05008,-0.2737730678,0.05008,1.827151471,
0.0501,0.09165722638,0.0501,1.461721177,
0.05012,0.8225178147,0.05012,1.827151471,
0.05014,0.09165722638,0.05014,1.827151471,
0.05016,-0.2737730678,0.05016,1.461721177,
0.05018,-0.2737730678,0.05018,2.192581765,
0.0502,-0.2737730678,0.0502,1.827151471,
0.05022,-0.639203362,0.05022,1.827151471,
0.05024,1.918808697,0.05024,2.558012059,
0.05026,-0.639203362,0.05026,1.461721177,
0.05028,1.553378403,0.05028,3.288872648,
0.0503,0.4570875206,0.0503,2.558012059,
0.05032,1.553378403,0.05032,1.461721177,
0.05034,-0.639203362,0.05034,1.461721177,
0.05036,-0.2737730678,0.05036,2.558012059,
0.05038,-0.2737730678,0.05038,1.827151471,
0.0504,0.09165722638,0.0504,1.461721177,
0.05042,0.8225178147,0.05042,2.192581765,
0.05044,-0.639203362,0.05044,1.827151471,
0.05046,-0.2737730678,0.05046,1.827151471,
0.05048,-0.2737730678,0.05048,2.192581765,
0.0505,-0.639203362,0.0505,1.827151471,
0.05052,0.09165722638,0.05052,1.827151471,
0.05054,3.745960168,0.05054,2.558012059,
0.05056,-0.639203362,0.05056,1.827151471,
0.05058,0.8225178147,0.05058,1.461721177,
0.0506,-0.2737730678,0.0506,2.192581765,
0.05062,-0.639203362,0.05062,1.827151471,
0.05064,-0.2737730678,0.05064,2.192581765,
0.05066,0.09165722638,0.05066,2.558012059,
0.05068,-0.639203362,0.05068,1.827151471,
0.0507,0.4570875206,0.0507,1.461721177,
0.05072,0.4570875206,0.05072,2.192581765,
0.05074,2.649669286,0.05074,1.827151471,
0.05076,0.4570875206,0.05076,1.461721177,
0.05078,-0.639203362,0.05078,2.192581765,
0.0508,0.09165722638,0.0508,1.827151471,
0.05082,0.09165722638,0.05082,1.461721177,
0.05084,-0.2737730678,0.05084,2.192581765,
0.05086,-0.639203362,0.05086,1.461721177,
0.05088,-0.639203362,0.05088,1.461721177,
0.0509,0.09165722638,0.0509,2.192581765,
0.05092,-0.639203362,0.05092,1.827151471,
0.05094,2.284238991,0.05094,1.461721177,
0.05096,0.09165722638,0.05096,2.192581765,
0.05098,-0.2737730678,0.05098,1.827151471,
0.051,-0.639203362,0.051,1.461721177,
0.05102,0.09165722638,0.05102,2.558012059,
0.05104,0.4570875206,0.05104,1.827151471,
0.05106,-0.2737730678,0.05106,1.461721177,
0.05108,0.4570875206,0.05108,2.558012059,
0.0511,-0.2737730678,0.0511,1.827151471,
0.05112,3.01509958,0.05112,1.461721177,
0.05114,0.09165722638,0.05114,2.192581765,
0.05116,-0.639203362,0.05116,1.461721177,
0.05118,-0.639203362,0.05118,1.827151471,
0.0512,0.09165722638,0.0512,2.192581765,
0.05122,-0.639203362,0.05122,1.461721177,
0.05124,-0.639203362,0.05124,1.096290883,
0.05126,-0.2737730678,0.05126,1.461721177,
0.05128,-0.639203362,0.05128,2.192581765,
0.0513,-0.639203362,0.0513,1.461721177,
0.05132,-0.639203362,0.05132,2.192581765,
0.05134,-0.2737730678,0.05134,1.827151471,
0.05136,0.09165722638,0.05136,1.827151471,
0.05138,0.4570875206,0.05138,2.558012059,
0.0514,-0.2737730678,0.0514,1.461721177,
0.05142,-0.639203362,0.05142,2.192581765,
0.05144,0.8225178147,0.05144,2.192581765,
0.05146,0.09165722638,0.05146,1.827151471,
0.05148,1.187948109,0.05148,2.192581765,
0.0515,-0.639203362,0.0515,1.827151471,
0.05152,0.8225178147,0.05152,1.461721177,
0.05154,-0.2737730678,0.05154,2.192581765,
0.05156,-0.2737730678,0.05156,1.827151471,
0.05158,-0.639203362,0.05158,1.827151471,
0.0516,1.187948109,0.0516,2.192581765,
0.05162,0.09165722638,0.05162,1.827151471,
0.05164,0.09165722638,0.05164,1.827151471,
0.05166,0.09165722638,0.05166,2.192581765,
0.05168,0.4570875206,0.05168,1.827151471,
0.0517,1.187948109,0.0517,1.461721177,
0.05172,1.187948109,0.05172,2.192581765,
0.05174,-0.639203362,0.05174,2.558012059,
0.05176,0.09165722638,0.05176,1.461721177,
0.05178,0.09165722638,0.05178,1.827151471,
0.0518,0.09165722638,0.0518,1.827151471,
0.05182,-0.2737730678,0.05182,2.192581765,
0.05184,0.09165722638,0.05184,1.827151471,
0.05186,0.8225178147,0.05186,1.827151471,
0.05188,1.187948109,0.05188,2.192581765,
0.0519,-0.2737730678,0.0519,1.827151471,
0.05192,-0.2737730678,0.05192,1.827151471,
0.05194,0.4570875206,0.05194,1.827151471,
0.05196,0.4570875206,0.05196,2.192581765,
0.05198,-0.2737730678,0.05198,1.827151471,
0.052,0.4570875206,0.052,1.461721177,
0.05202,0.09165722638,0.05202,1.827151471,
0.05204,-0.2737730678,0.05204,2.558012059,
0.05206,-0.639203362,0.05206,2.558012059,
0.05208,0.09165722638,0.05208,1.827151471,
0.0521,-0.639203362,0.0521,1.461721177,
0.05212,-0.2737730678,0.05212,2.192581765,
0.05214,0.09165722638,0.05214,0.7308605883,
0.05216,1.553378403,0.05216,1.461721177,
0.05218,0.4570875206,0.05218,2.192581765,
0.0522,-0.639203362,0.0522,1.827151471,
0.05222,-0.639203362,0.05222,1.461721177,
0.05224,-0.639203362,0.05224,1.827151471,
0.05226,-0.2737730678,0.05226,1.461721177,
0.05228,-0.2737730678,0.05228,1.827151471,
0.0523,-0.2737730678,0.0523,2.558012059,
0.05232,0.4570875206,0.05232,1.827151471,
0.05234,0.09165722638,0.05234,3.654302942,
0.05236,-0.2737730678,0.05236,2.192581765,
0.05238,-0.639203362,0.05238,1.827151471,
0.0524,0.09165722638,0.0524,1.461721177,
0.05242,0.09165722638,0.05242,1.827151471,
0.05244,1.187948109,0.05244,1.096290883,
0.05246,-0.639203362,0.05246,2.558012059,
0.05248,0.4570875206,0.05248,1.827151471,
0.0525,-0.639203362,0.0525,1.827151471,
0.05252,0.4570875206,0.05252,2.558012059,
0.05254,0.4570875206,0.05254,0,
0.05256,0.8225178147,0.05256,1.827151471,
0.05258,0.09165722638,0.05258,2.558012059,
0.0526,1.553378403,0.0526,1.827151471,
0.05262,-0.2737730678,0.05262,1.461721177,
0.05264,0.8225178147,0.05264,3.654302942,
0.05266,-0.2737730678,0.05266,1.827151471,
0.05268,0.09165722638,0.05268,1.827151471,
0.0527,0.4570875206,0.0527,2.192581765,
0.05272,-0.2737730678,0.05272,1.827151471,
0.05274,-0.639203362,0.05274,1.096290883,
0.05276,-0.639203362,0.05276,2.558012059,
0.05278,-0.639203362,0.05278,1.827151471,
0.0528,-0.2737730678,0.0528,1.827151471,
0.05282,0.09165722638,0.05282,2.192581765,
0.05284,-0.639203362,0.05284,1.096290883,
0.05286,1.553378403,0.05286,1.461721177,
0.05288,-0.639203362,0.05288,2.192581765,
0.0529,-0.639203362,0.0529,2.192581765,
0.05292,-0.639203362,0.05292,1.461721177,
0.05294,0.8225178147,0.05294,3.288872648,
0.05296,-0.639203362,0.05296,2.192581765,
0.05298,-0.639203362,0.05298,1.461721177,
0.053,0.09165722638,0.053,2.558012059,
0.05302,-0.639203362,0.05302,1.827151471,
0.05304,0.09165722638,0.05304,1.827151471,
0.05306,-0.639203362,0.05306,2.192581765,
0.05308,-0.639203362,0.05308,1.827151471,
0.0531,0.4570875206,0.0531,1.461721177,
0.05312,0.4570875206,0.05312,2.558012059,
0.05314,-0.2737730678,0.05314,0.7308605883,
0.05316,0.09165722638,0.05316,1.827151471,
0.05318,0.4570875206,0.05318,2.558012059,
0.0532,-0.2737730678,0.0532,1.827151471,
0.05322,-0.639203362,0.05322,1.827151471,
0.05324,-0.2737730678,0.05324,1.827151471,
0.05326,0.09165722638,0.05326,1.827151471,
0.05328,0.09165722638,0.05328,1.827151471,
0.0533,0.09165722638,0.0533,2.558012059,
0.05332,-0.639203362,0.05332,1.827151471,
0.05334,-0.639203362,0.05334,2.192581765,
0.05336,-0.639203362,0.05336,2.192581765,
0.05338,-0.639203362,0.05338,1.827151471,
0.0534,-0.2737730678,0.0534,1.827151471,
0.05342,0.09165722638,0.05342,1.827151471,
0.05344,-0.639203362,0.05344,2.192581765,
0.05346,0.09165722638,0.05346,1.827151471,
0.05348,-0.2737730678,0.05348,2.192581765,
0.0535,-0.639203362,0.0535,1.827151471,
0.05352,1.187948109,0.05352,1.461721177,
0.05354,0.8225178147,0.05354,1.827151471,
0.05356,-0.639203362,0.05356,1.827151471,
0.05358,-0.2737730678,0.05358,1.827151471,
0.0536,-0.2737730678,0.0536,2.192581765,
0.05362,-0.639203362,0.05362,2.192581765,
0.05364,-0.639203362,0.05364,1.461721177,
0.05366,-0.2737730678,0.05366,2.192581765,
0.05368,-0.2737730678,0.05368,1.827151471,
0.0537,0.09165722638,0.0537,1.461721177,
0.05372,-0.2737730678,0.05372,2.558012059,
0.05374,-0.639203362,0.05374,1.827151471,
0.05376,-0.2737730678,0.05376,1.827151471,
0.05378,-0.2737730678,0.05378,2.558012059,
0.0538,-0.639203362,0.0538,1.827151471,
0.05382,0.4570875206,0.05382,1.461721177,
0.05384,-0.2737730678,0.05384,2.192581765,
0.05386,-0.639203362,0.05386,1.827151471,
0.05388,-0.2737730678,0.05388,1.827151471,
0.0539,0.4570875206,0.0539,2.558012059,
0.05392,-0.639203362,0.05392,1.461721177,
0.05394,0.09165722638,0.05394,1.461721177,
0.05396,0.8225178147,0.05396,2.192581765,
0.05398,-0.2737730678,0.05398,1.827151471,
0.054,-0.639203362,0.054,1.096290883,
0.05402,-0.639203362,0.05402,2.192581765,
0.05404,-0.639203362,0.05404,1.827151471,
0.05406,0.4570875206,0.05406,0.7308605883,
0.05408,-0.639203362,0.05408,2.192581765,
0.0541,-0.2737730678,0.0541,1.461721177,
0.05412,0.09165722638,0.05412,1.461721177,
0.05414,1.187948109,0.05414,2.192581765,
0.05416,-0.639203362,0.05416,1.461721177,
0.05418,-0.639203362,0.05418,1.461721177,
0.0542,0.4570875206,0.0542,2.558012059,
0.05422,-0.2737730678,0.05422,2.192581765,
0.05424,-0.639203362,0.05424,1.461721177,
0.05426,-0.2737730678,0.05426,2.192581765,
0.05428,-0.639203362,0.05428,1.827151471,
0.0543,-0.2737730678,0.0543,1.461721177,
0.05432,-0.639203362,0.05432,2.558012059,
0.05434,-0.639203362,0.05434,2.192581765,
0.05436,0.4570875206,0.05436,1.461721177,
0.05438,0.09165722638,0.05438,2.192581765,
0.0544,0.09165722638,0.0544,2.192581765,
0.05442,0.4570875206,0.05442,1.461721177,
0.05444,-0.639203362,0.05444,2.558012059,
0.05446,-0.2737730678,0.05446,1.827151471,
0.05448,-0.2737730678,0.05448,1.461721177,
0.0545,0.09165722638,0.0545,2.192581765,
0.05452,-0.639203362,0.05452,2.192581765,
0.05454,0.4570875206,0.05454,1.461721177,
0.05456,-0.639203362,0.05456,2.192581765,
0.05458,-0.639203362,0.05458,2.192581765,
0.0546,-0.639203362,0.0546,1.461721177,
0.05462,0.4570875206,0.05462,2.192581765,
0.05464,-0.639203362,0.05464,1.827151471,
0.05466,0.4570875206,0.05466,1.827151471,
0.05468,1.187948109,0.05468,1.827151471,
0.0547,-0.639203362,0.0547,1.827151471,
0.05472,0.4570875206,0.05472,1.827151471,
0.05474,0.09165722638,0.05474,1.827151471,
0.05476,-0.2737730678,0.05476,1.827151471,
0.05478,-0.639203362,0.05478,1.461721177,
0.0548,0.4570875206,0.0548,1.827151471,
0.05482,-0.639203362,0.05482,1.827151471,
0.05484,0.4570875206,0.05484,2.192581765,
0.05486,0.4570875206,0.05486,1.827151471,
0.05488,-0.2737730678,0.05488,1.827151471,
0.0549,-0.2737730678,0.0549,1.461721177,
0.05492,1.553378403,0.05492,1.461721177,
0.05494,-0.639203362,0.05494,2.192581765,
0.05496,0.4570875206,0.05496,1.827151471,
0.05498,0.09165722638,0.05498,1.827151471,
0.055,-0.639203362,0.055,1.827151471,
0.05502,0.8225178147,0.05502,1.827151471,
0.05504,-0.2737730678,0.05504,2.192581765,
0.05506,-0.2737730678,0.05506,1.827151471,
0.05508,-0.639203362,0.05508,1.827151471,
0.0551,-0.639203362,0.0551,1.827151471,
0.05512,-0.2737730678,0.05512,1.827151471,
0.05514,0.09165722638,0.05514,1.461721177,
0.05516,1.553378403,0.05516,2.192581765,
0.05518,0.09165722638,0.05518,1.827151471,
0.0552,-0.2737730678,0.0552,1.827151471,
0.05522,0.09165722638,0.05522,1.827151471,
0.05524,-0.639203362,0.05524,1.827151471,
0.05526,0.09165722638,0.05526,1.461721177,
0.05528,-0.639203362,0.05528,2.192581765,
0.0553,-0.2737730678,0.0553,2.192581765,
0.05532,0.8225178147,0.05532,1.461721177,
0.05534,0.4570875206,0.05534,1.461721177,
0.05536,0.09165722638,0.05536,1.461721177,
0.05538,0.09165722638,0.05538,1.461721177,
0.0554,0.8225178147,0.0554,1.827151471,
0.05542,-0.639203362,0.05542,2.558012059,
0.05544,0.09165722638,0.05544,1.827151471,
0.05546,0.09165722638,0.05546,2.558012059,
0.05548,-0.2737730678,0.05548,2.192581765,
0.0555,-0.639203362,0.0555,1.827151471,
0.05552,-0.639203362,0.05552,1.827151471,
0.05554,-0.639203362,0.05554,1.827151471,
0.05556,0.09165722638,0.05556,0.7308605883,
0.05558,-0.2737730678,0.05558,1.827151471,
0.0556,-0.2737730678,0.0556,2.192581765,
0.05562,0.4570875206,0.05562,1.827151471,
0.05564,-0.639203362,0.05564,2.192581765,
0.05566,-0.639203362,0.05566,1.461721177,
0.05568,-0.2737730678,0.05568,1.827151471,
0.0557,-0.2737730678,0.0557,2.192581765,
0.05572,0.8225178147,0.05572,1.827151471,
0.05574,0.09165722638,0.05574,1.827151471,
0.05576,-0.639203362,0.05576,2.923442353,
0.05578,-0.2737730678,0.05578,1.461721177,
0.0558,1.553378403,0.0558,1.461721177,
0.05582,-0.639203362,0.05582,2.192581765,
0.05584,-0.639203362,0.05584,2.192581765,
0.05586,-0.639203362,0.05586,1.827151471,
0.05588,1.918808697,0.05588,2.192581765,
0.0559,-0.639203362,0.0559,1.827151471,
0.05592,3.01509958,0.05592,1.827151471,
0.05594,1.553378403,0.05594,2.192581765,
0.05596,-0.639203362,0.05596,1.096290883,
0.05598,0.4570875206,0.05598,1.827151471,
0.056,-0.2737730678,0.056,2.558012059,
0.05602,-0.639203362,0.05602,2.192581765,
0.05604,0.09165722638,0.05604,1.461721177,
0.05606,0.09165722638,0.05606,2.192581765,
0.05608,0.09165722638,0.05608,2.192581765,
0.0561,0.8225178147,0.0561,1.827151471,
0.05612,0.8225178147,0.05612,2.192581765,
0.05614,-0.2737730678,0.05614,2.192581765,
0.05616,0.8225178147,0.05616,1.096290883,
0.05618,-0.639203362,0.05618,2.192581765,
0.0562,0.4570875206,0.0562,1.827151471,
0.05622,0.09165722638,0.05622,1.461721177,
0.05624,0.4570875206,0.05624,1.461721177,
0.05626,0.09165722638,0.05626,1.827151471,
0.05628,-0.639203362,0.05628,1.827151471,
0.0563,-0.2737730678,0.0563,1.096290883,
0.05632,-0.2737730678,0.05632,2.192581765,
0.05634,0.4570875206,0.05634,2.192581765,
0.05636,-0.2737730678,0.05636,2.192581765,
0.05638,1.553378403,0.05638,1.827151471,
0.0564,0.09165722638,0.0564,1.827151471,
0.05642,0.09165722638,0.05642,1.461721177,
0.05644,-0.2737730678,0.05644,2.192581765,
0.05646,0.4570875206,0.05646,1.096290883,
0.05648,-0.639203362,0.05648,1.096290883,
0.0565,-0.2737730678,0.0565,1.827151471,
0.05652,-0.2737730678,0.05652,1.827151471,
0.05654,-0.2737730678,0.05654,1.461721177,
0.05656,0.09165722638,0.05656,1.461721177,
0.05658,0.09165722638,0.05658,2.923442353,
0.0566,-0.2737730678,0.0566,1.827151471,
0.05662,1.187948109,0.05662,1.461721177,
0.05664,0.09165722638,0.05664,1.827151471,
0.05666,0.4570875206,0.05666,1.461721177,
0.05668,0.4570875206,0.05668,2.192581765,
0.0567,-0.639203362,0.0567,1.827151471,
0.05672,0.09165722638,0.05672,1.461721177,
0.05674,0.09165722638,0.05674,1.827151471,
0.05676,1.187948109,0.05676,1.461721177,
0.05678,0.09165722638,0.05678,1.461721177,
0.0568,-0.639203362,0.0568,2.192581765,
0.05682,-0.639203362,0.05682,2.192581765,
0.05684,1.187948109,0.05684,2.192581765,
0.05686,-0.639203362,0.05686,2.192581765,
0.05688,2.649669286,0.05688,2.192581765,
0.0569,-0.2737730678,0.0569,1.461721177,
0.05692,-0.639203362,0.05692,1.461721177,
0.05694,-0.2737730678,0.05694,1.827151471,
0.05696,-0.2737730678,0.05696,1.461721177,
0.05698,-0.639203362,0.05698,1.827151471,
0.057,0.4570875206,0.057,1.827151471,
0.05702,0.09165722638,0.05702,1.827151471,
0.05704,0.4570875206,0.05704,1.827151471,
0.05706,0.09165722638,0.05706,1.827151471,
0.05708,0.8225178147,0.05708,2.192581765,
0.0571,0.09165722638,0.0571,1.827151471,
0.05712,-0.2737730678,0.05712,2.192581765,
0.05714,0.4570875206,0.05714,2.192581765,
0.05716,1.187948109,0.05716,1.461721177,
0.05718,0.8225178147,0.05718,2.192581765,
0.0572,-0.639203362,0.0572,1.827151471,
0.05722,-0.639203362,0.05722,1.827151471,
0.05724,0.09165722638,0.05724,1.827151471,
0.05726,0.4570875206,0.05726,2.192581765,
