"A0_accX_x","A0_accX_y","A1_rmsX_x","A1_rmsX_y"
0,-4.830593824,0,4.38516353,
2e-05,-2.272581765,2e-05,4.38516353,
4e-05,-4.099733236,4e-05,4.750593824,
6e-05,-1.541721177,6e-05,3.654302942,
8e-05,-3.368872648,8e-05,4.750593824,
0.0001,-3.734302942,0.0001,5.116024118,
0.00012,-4.099733236,0.00012,4.019733236,
0.00014,-4.099733236,0.00014,4.750593824,
0.00016,-3.368872648,0.00016,4.38516353,
0.00018,-1.907151471,0.00018,4.38516353,
0.0002,1.747151471,0.0002,4.019733236,
0.00022,-0.4454302942,0.00022,4.38516353,
0.00024,-1.176290883,0.00024,4.38516353,
0.00026,-0.8108605883,0.00026,5.116024118,
0.00028,-1.541721177,0.00028,4.750593824,
0.0003,1.016290883,0.0003,4.019733236,
0.00032,0.2854302942,0.00032,4.38516353,
0.00034,-0.08,0.00034,4.019733236,
0.00036,1.381721177,0.00036,4.38516353,
0.00038,3.939733236,0.00038,4.750593824,
0.0004,1.381721177,0.0004,4.019733236,
0.00042,1.381721177,0.00042,4.019733236,
0.00044,2.843442353,0.00044,4.750593824,
0.00046,2.843442353,0.00046,4.38516353,
0.00048,3.208872648,0.00048,4.019733236,
0.0005,1.747151471,0.0005,4.019733236,
0.00052,5.036024118,0.00052,4.019733236,
0.00054,3.208872648,0.00054,4.38516353,
0.00056,4.30516353,0.00056,4.019733236,
0.00058,4.30516353,0.00058,4.38516353,
0.0006,4.670593824,0.0006,4.38516353,
0.00062,3.574302942,0.00062,3.654302942,
0.00064,3.574302942,0.00064,4.019733236,
0.00066,2.112581765,0.00066,4.019733236,
0.00068,2.843442353,0.00068,4.38516353,
0.0007,3.208872648,0.0007,3.654302942,
0.00072,-0.4454302942,0.00072,4.019733236,
0.00074,1.381721177,0.00074,4.019733236,
0.00076,1.381721177,0.00076,4.38516353,
0.00078,0.6508605883,0.00078,4.019733236,
0.0008,-1.176290883,0.0008,3.654302942,
0.00082,-1.176290883,0.00082,4.019733236,
0.00084,-0.8108605883,0.00084,4.019733236,
0.00086,-1.541721177,0.00086,4.019733236,
0.00088,-0.8108605883,0.00088,4.019733236,
0.0009,-0.8108605883,0.0009,4.019733236,
0.00092,-2.638012059,0.00092,3.654302942,
0.00094,-2.638012059,0.00094,4.38516353,
0.00096,-3.003442353,0.00096,4.019733236,
0.00098,-3.003442353,0.00098,4.019733236,
0.001,-3.003442353,0.001,4.38516353,
0.00102,-3.368872648,0.00102,4.38516353,
0.00104,-1.907151471,0.00104,3.654302942,
0.00106,-4.099733236,0.00106,4.019733236,
0.00108,-2.272581765,0.00108,4.019733236,
0.0011,-3.368872648,0.0011,4.38516353,
0.00112,-2.638012059,0.00112,4.38516353,
0.00114,-1.907151471,0.00114,4.019733236,
0.00116,-2.272581765,0.00116,3.654302942,
0.00118,-1.176290883,0.00118,4.38516353,
0.0012,-1.541721177,0.0012,4.38516353,
0.00122,-1.541721177,0.00122,4.019733236,
0.00124,0.6508605883,0.00124,4.38516353,
0.00126,-0.08,0.00126,4.019733236,
0.00128,-1.907151471,0.00128,3.654302942,
0.0013,1.747151471,0.0013,4.750593824,
0.00132,1.016290883,0.00132,4.019733236,
0.00134,1.381721177,0.00134,4.019733236,
0.00136,1.747151471,0.00136,4.750593824,
0.00138,3.208872648,0.00138,4.38516353,
0.0014,2.478012059,0.0014,3.654302942,
0.00142,3.574302942,0.00142,4.019733236,
0.00144,2.843442353,0.00144,4.750593824,
0.00146,3.939733236,0.00146,4.019733236,
0.00148,3.574302942,0.00148,4.38516353,
0.0015,3.574302942,0.0015,4.019733236,
0.00152,3.208872648,0.00152,4.38516353,
0.00154,2.478012059,0.00154,4.38516353,
0.00156,4.30516353,0.00156,4.38516353,
0.00158,2.112581765,0.00158,4.019733236,
0.0016,2.843442353,0.0016,4.38516353,
0.00162,2.112581765,0.00162,4.019733236,
0.00164,1.016290883,0.00164,3.654302942,
0.00166,1.381721177,0.00166,4.38516353,
0.00168,1.016290883,0.00168,4.019733236,
0.0017,-0.8108605883,0.0017,4.019733236,
0.00172,0.2854302942,0.00172,4.750593824,
0.00174,-0.08,0.00174,4.38516353,
0.00176,-1.907151471,0.00176,4.38516353,
0.00178,-0.8108605883,0.00178,4.750593824,
0.0018,-0.4454302942,0.0018,4.38516353,
0.00182,-1.541721177,0.00182,5.116024118,
0.00184,-2.272581765,0.00184,4.38516353,
0.00186,-3.003442353,0.00186,4.38516353,
0.00188,-3.003442353,0.00188,4.38516353,
0.0019,-3.368872648,0.0019,5.116024118,
0.00192,-3.734302942,0.00192,3.654302942,
0.00194,-2.638012059,0.00194,4.38516353,
0.00196,-3.368872648,0.00196,4.38516353,
0.00198,-3.734302942,0.00198,4.750593824,
0.002,-3.368872648,0.002,4.38516353,
0.00202,-2.638012059,0.00202,4.750593824,
0.00204,-3.734302942,0.00204,4.38516353,
0.00206,-4.099733236,0.00206,4.38516353,
0.00208,-1.541721177,0.00208,4.019733236,
0.0021,-2.272581765,0.0021,5.116024118,
0.00212,-1.907151471,0.00212,5.116024118,
0.00214,-0.8108605883,0.00214,4.019733236,
0.00216,-0.08,0.00216,4.750593824,
0.00218,-0.08,0.00218,4.019733236,
0.0022,0.2854302942,0.0022,4.019733236,
0.00222,-0.08,0.00222,3.654302942,
0.00224,0.6508605883,0.00224,4.38516353,
0.00226,-1.541721177,0.00226,4.019733236,
0.00228,1.747151471,0.00228,5.116024118,
0.0023,2.112581765,0.0023,4.750593824,
0.00232,2.843442353,0.00232,4.750593824,
0.00234,3.574302942,0.00234,4.750593824,
0.00236,2.478012059,0.00236,4.750593824,
0.00238,4.30516353,0.00238,4.38516353,
0.0024,4.30516353,0.0024,5.116024118,
0.00242,3.208872648,0.00242,4.750593824,
0.00244,3.574302942,0.00244,4.019733236,
0.00246,4.670593824,0.00246,4.750593824,
0.00248,3.208872648,0.00248,4.750593824,
0.0025,1.747151471,0.0025,4.019733236,
0.00252,2.478012059,0.00252,4.019733236,
0.00254,1.016290883,0.00254,3.654302942,
0.00256,2.112581765,0.00256,4.019733236,
0.00258,2.112581765,0.00258,4.750593824,
0.0026,0.2854302942,0.0026,4.019733236,
0.00262,-0.08,0.00262,4.019733236,
0.00264,-1.176290883,0.00264,4.38516353,
0.00266,-0.4454302942,0.00266,4.38516353,
0.00268,-0.4454302942,0.00268,4.38516353,
0.0027,-1.176290883,0.0027,4.750593824,
0.00272,-1.907151471,0.00272,4.750593824,
0.00274,-0.08,0.00274,4.019733236,
0.00276,-3.003442353,0.00276,4.750593824,
0.00278,-2.638012059,0.00278,4.38516353,
0.0028,-2.272581765,0.0028,4.019733236,
0.00282,-4.46516353,0.00282,4.019733236,
0.00284,-5.196024118,0.00284,4.38516353,
0.00286,-3.368872648,0.00286,4.019733236,
0.00288,-3.003442353,0.00288,4.38516353,
0.0029,-1.176290883,0.0029,4.38516353,
0.00292,-3.003442353,0.00292,4.38516353,
0.00294,-3.734302942,0.00294,4.750593824,
0.00296,-3.368872648,0.00296,4.750593824,
0.00298,-3.003442353,0.00298,4.019733236,
0.003,-1.541721177,0.003,4.750593824,
0.00302,-2.638012059,0.00302,4.38516353,
0.00304,-4.46516353,0.00304,4.019733236,
0.00306,-1.176290883,0.00306,4.750593824,
0.00308,-1.907151471,0.00308,4.019733236,
0.0031,-0.4454302942,0.0031,4.019733236,
0.00312,-1.176290883,0.00312,4.750593824,
0.00314,2.843442353,0.00314,3.288872648,
0.00316,0.6508605883,0.00316,4.019733236,
0.00318,1.016290883,0.00318,4.750593824,
0.0032,1.381721177,0.0032,4.38516353,
0.00322,2.112581765,0.00322,3.288872648,
0.00324,3.939733236,0.00324,4.38516353,
0.00326,2.478012059,0.00326,4.019733236,
0.00328,2.843442353,0.00328,4.019733236,
0.0033,2.478012059,0.0033,4.750593824,
0.00332,2.843442353,0.00332,4.38516353,
0.00334,1.016290883,0.00334,4.019733236,
0.00336,3.939733236,0.00336,4.750593824,
0.00338,4.30516353,0.00338,4.38516353,
0.0034,3.574302942,0.0034,4.019733236,
0.00342,3.939733236,0.00342,4.750593824,
0.00344,2.112581765,0.00344,4.019733236,
0.00346,3.574302942,0.00346,4.38516353,
0.00348,2.843442353,0.00348,4.750593824,
0.0035,2.843442353,0.0035,4.019733236,
0.00352,2.112581765,0.00352,4.019733236,
0.00354,3.574302942,0.00354,5.116024118,
0.00356,0.2854302942,0.00356,4.019733236,
0.00358,1.016290883,0.00358,4.019733236,
0.0036,1.381721177,0.0036,4.750593824,
0.00362,-1.176290883,0.00362,4.019733236,
0.00364,-1.907151471,0.00364,4.019733236,
0.00366,-0.4454302942,0.00366,4.750593824,
0.00368,-2.638012059,0.00368,4.38516353,
0.0037,-0.4454302942,0.0037,4.019733236,
0.00372,-3.368872648,0.00372,4.750593824,
0.00374,-3.734302942,0.00374,4.38516353,
0.00376,-3.368872648,0.00376,4.019733236,
0.00378,-3.003442353,0.00378,4.750593824,
0.0038,-4.099733236,0.0038,4.019733236,
0.00382,-3.003442353,0.00382,4.019733236,
0.00384,-3.734302942,0.00384,4.750593824,
0.00386,-3.003442353,0.00386,4.019733236,
0.00388,-3.368872648,0.00388,3.654302942,
0.0039,-3.368872648,0.0039,4.750593824,
0.00392,-3.003442353,0.00392,4.38516353,
0.00394,-2.638012059,0.00394,4.019733236,
0.00396,-1.907151471,0.00396,5.116024118,
0.00398,-0.8108605883,0.00398,4.38516353,
0.004,-1.541721177,0.004,3.654302942,
0.00402,-1.176290883,0.00402,4.750593824,
0.00404,-0.08,0.00404,4.38516353,
0.00406,0.2854302942,0.00406,3.654302942,
0.00408,0.6508605883,0.00408,4.38516353,
0.0041,1.747151471,0.0041,4.019733236,
0.00412,1.016290883,0.00412,4.019733236,
0.00414,2.478012059,0.00414,4.38516353,
0.00416,2.112581765,0.00416,4.38516353,
0.00418,2.112581765,0.00418,4.019733236,
0.0042,2.478012059,0.0042,4.750593824,
0.00422,3.208872648,0.00422,4.38516353,
0.00424,2.843442353,0.00424,4.019733236,
0.00426,4.30516353,0.00426,4.38516353,
0.00428,3.208872648,0.00428,4.38516353,
0.0043,5.036024118,0.0043,4.38516353,
0.00432,3.939733236,0.00432,4.38516353,
0.00434,-0.08,0.00434,4.019733236,
0.00436,3.939733236,0.00436,4.019733236,
0.00438,3.208872648,0.00438,4.750593824,
0.0044,2.478012059,0.0044,4.38516353,
0.00442,2.478012059,0.00442,4.750593824,
0.00444,1.747151471,0.00444,5.481454413,
0.00446,-0.8108605883,0.00446,4.38516353,
0.00448,0.6508605883,0.00448,4.019733236,
0.0045,1.381721177,0.0045,4.750593824,
0.00452,-0.08,0.00452,4.38516353,
0.00454,0.2854302942,0.00454,4.38516353,
0.00456,-0.4454302942,0.00456,4.750593824,
0.00458,-2.272581765,0.00458,4.38516353,
0.0046,-2.272581765,0.0046,4.019733236,
0.00462,-2.638012059,0.00462,4.38516353,
0.00464,-2.272581765,0.00464,4.019733236,
0.00466,-2.272581765,0.00466,4.38516353,
0.00468,-3.003442353,0.00468,4.38516353,
0.0047,-4.46516353,0.0047,4.38516353,
0.00472,-3.003442353,0.00472,4.019733236,
0.00474,-5.926884707,0.00474,4.750593824,
0.00476,-3.734302942,0.00476,4.38516353,
0.00478,-4.46516353,0.00478,4.38516353,
0.0048,-3.368872648,0.0048,4.38516353,
0.00482,-3.368872648,0.00482,4.38516353,
0.00484,-3.368872648,0.00484,4.38516353,
0.00486,-3.003442353,0.00486,4.750593824,
0.00488,-2.638012059,0.00488,4.750593824,
0.0049,-1.907151471,0.0049,4.38516353,
0.00492,-2.638012059,0.00492,4.38516353,
0.00494,-1.176290883,0.00494,3.654302942,
0.00496,-0.08,0.00496,4.38516353,
0.00498,-0.4454302942,0.00498,4.38516353,
0.005,-0.08,0.005,4.750593824,
0.00502,0.6508605883,0.00502,4.750593824,
0.00504,1.381721177,0.00504,3.654302942,
0.00506,1.747151471,0.00506,4.38516353,
0.00508,2.112581765,0.00508,4.019733236,
0.0051,2.843442353,0.0051,4.750593824,
0.00512,2.112581765,0.00512,4.38516353,
0.00514,5.401454413,0.00514,5.846884707,
0.00516,3.208872648,0.00516,4.750593824,
0.00518,3.208872648,0.00518,4.750593824,
0.0052,3.574302942,0.0052,4.38516353,
0.00522,3.208872648,0.00522,5.116024118,
0.00524,5.036024118,0.00524,4.750593824,
0.00526,5.401454413,0.00526,4.019733236,
0.00528,4.670593824,0.00528,4.38516353,
0.0053,3.939733236,0.0053,4.38516353,
0.00532,3.208872648,0.00532,4.38516353,
0.00534,1.381721177,0.00534,4.38516353,
0.00536,1.747151471,0.00536,4.38516353,
0.00538,1.747151471,0.00538,4.38516353,
0.0054,1.016290883,0.0054,4.38516353,
0.00542,0.6508605883,0.00542,4.750593824,
0.00544,0.6508605883,0.00544,4.38516353,
0.00546,-0.8108605883,0.00546,5.116024118,
0.00548,-1.176290883,0.00548,4.38516353,
0.0055,-2.638012059,0.0055,4.38516353,
0.00552,-1.176290883,0.00552,4.38516353,
0.00554,-2.272581765,0.00554,3.654302942,
0.00556,-1.907151471,0.00556,4.38516353,
0.00558,-2.272581765,0.00558,4.750593824,
0.0056,-5.926884707,0.0056,4.38516353,
0.00562,-3.003442353,0.00562,4.38516353,
0.00564,-3.734302942,0.00564,5.846884707,
0.00566,-4.830593824,0.00566,4.019733236,
0.00568,-3.003442353,0.00568,4.750593824,
0.0057,-2.638012059,0.0057,4.019733236,
0.00572,-4.46516353,0.00572,4.38516353,
0.00574,-3.003442353,0.00574,2.923442353,
0.00576,-3.003442353,0.00576,4.38516353,
0.00578,-2.638012059,0.00578,4.38516353,
0.0058,-2.638012059,0.0058,4.38516353,
0.00582,-2.272581765,0.00582,4.750593824,
0.00584,-0.8108605883,0.00584,4.750593824,
0.00586,-1.541721177,0.00586,4.38516353,
0.00588,-0.8108605883,0.00588,4.750593824,
0.0059,-1.907151471,0.0059,4.38516353,
0.00592,0.6508605883,0.00592,4.38516353,
0.00594,1.016290883,0.00594,5.846884707,
0.00596,0.2854302942,0.00596,4.750593824,
0.00598,0.2854302942,0.00598,4.38516353,
0.006,2.478012059,0.006,4.38516353,
0.00602,1.016290883,0.00602,4.019733236,
0.00604,3.208872648,0.00604,4.019733236,
0.00606,2.843442353,0.00606,4.750593824,
0.00608,3.574302942,0.00608,4.38516353,
0.0061,3.939733236,0.0061,4.38516353,
0.00612,3.939733236,0.00612,4.38516353,
0.00614,2.843442353,0.00614,4.38516353,
0.00616,4.30516353,0.00616,4.019733236,
0.00618,3.939733236,0.00618,4.750593824,
0.0062,4.30516353,0.0062,4.019733236,
0.00622,3.574302942,0.00622,4.38516353,
0.00624,2.112581765,0.00624,4.750593824,
0.00626,2.843442353,0.00626,4.38516353,
0.00628,3.208872648,0.00628,4.38516353,
0.0063,1.747151471,0.0063,4.019733236,
0.00632,1.016290883,0.00632,4.38516353,
0.00634,1.381721177,0.00634,4.38516353,
0.00636,-1.176290883,0.00636,3.654302942,
0.00638,0.6508605883,0.00638,4.019733236,
0.0064,0.6508605883,0.0064,4.38516353,
0.00642,-0.4454302942,0.00642,4.019733236,
0.00644,-0.8108605883,0.00644,4.019733236,
0.00646,-0.4454302942,0.00646,4.38516353,
0.00648,-1.907151471,0.00648,3.654302942,
0.0065,-1.541721177,0.0065,4.750593824,
0.00652,-1.907151471,0.00652,4.38516353,
0.00654,-4.099733236,0.00654,4.019733236,
0.00656,-3.003442353,0.00656,4.38516353,
0.00658,-3.003442353,0.00658,4.38516353,
0.0066,-4.830593824,0.0066,3.654302942,
0.00662,-3.003442353,0.00662,4.38516353,
0.00664,-3.734302942,0.00664,4.019733236,
0.00666,-5.196024118,0.00666,4.019733236,
0.00668,-3.734302942,0.00668,4.38516353,
0.0067,-2.638012059,0.0067,4.38516353,
0.00672,-2.638012059,0.00672,3.654302942,
0.00674,-1.907151471,0.00674,4.38516353,
0.00676,-1.541721177,0.00676,4.38516353,
0.00678,-1.176290883,0.00678,4.019733236,
0.0068,-2.272581765,0.0068,4.38516353,
0.00682,-0.4454302942,0.00682,4.38516353,
0.00684,0.2854302942,0.00684,4.019733236,
0.00686,0.2854302942,0.00686,4.38516353,
0.00688,0.6508605883,0.00688,4.38516353,
0.0069,1.381721177,0.0069,4.019733236,
0.00692,1.381721177,0.00692,4.019733236,
0.00694,1.747151471,0.00694,4.38516353,
0.00696,1.381721177,0.00696,4.38516353,
0.00698,1.016290883,0.00698,4.38516353,
0.007,3.939733236,0.007,5.116024118,
0.00702,4.30516353,0.00702,4.750593824,
0.00704,2.478012059,0.00704,4.38516353,
0.00706,3.939733236,0.00706,4.38516353,
0.00708,4.30516353,0.00708,4.38516353,
0.0071,3.574302942,0.0071,4.019733236,
0.00712,5.401454413,0.00712,4.019733236,
0.00714,3.574302942,0.00714,3.654302942,
0.00716,3.208872648,0.00716,4.019733236,
0.00718,1.016290883,0.00718,4.750593824,
0.0072,2.843442353,0.0072,4.38516353,
0.00722,1.016290883,0.00722,4.019733236,
0.00724,2.843442353,0.00724,4.750593824,
0.00726,1.381721177,0.00726,4.750593824,
0.00728,0.6508605883,0.00728,4.38516353,
0.0073,0.6508605883,0.0073,4.019733236,
0.00732,0.2854302942,0.00732,4.38516353,
0.00734,-1.541721177,0.00734,4.38516353,
0.00736,0.6508605883,0.00736,4.019733236,
0.00738,-1.907151471,0.00738,4.38516353,
0.0074,-2.272581765,0.0074,4.38516353,
0.00742,-0.4454302942,0.00742,4.38516353,
0.00744,-2.272581765,0.00744,4.750593824,
0.00746,-3.368872648,0.00746,4.38516353,
0.00748,-3.003442353,0.00748,4.019733236,
0.0075,-3.734302942,0.0075,4.750593824,
0.00752,-4.099733236,0.00752,4.750593824,
0.00754,-2.638012059,0.00754,4.38516353,
0.00756,-3.003442353,0.00756,5.116024118,
0.00758,-4.46516353,0.00758,4.38516353,
0.0076,-3.368872648,0.0076,4.019733236,
0.00762,-3.003442353,0.00762,4.750593824,
0.00764,-3.003442353,0.00764,4.38516353,
0.00766,-2.272581765,0.00766,4.019733236,
0.00768,0.6508605883,0.00768,4.750593824,
0.0077,-2.638012059,0.0077,4.019733236,
0.00772,-1.541721177,0.00772,4.019733236,
0.00774,-1.176290883,0.00774,4.750593824,
0.00776,-1.541721177,0.00776,4.38516353,
0.00778,-0.8108605883,0.00778,4.38516353,
0.0078,-0.08,0.0078,4.38516353,
0.00782,-1.176290883,0.00782,4.38516353,
0.00784,1.747151471,0.00784,4.38516353,
0.00786,1.381721177,0.00786,4.750593824,
0.00788,1.747151471,0.00788,4.38516353,
0.0079,3.208872648,0.0079,4.38516353,
0.00792,2.843442353,0.00792,4.38516353,
0.00794,2.843442353,0.00794,4.38516353,
0.00796,4.670593824,0.00796,3.654302942,
0.00798,3.208872648,0.00798,4.019733236,
0.008,3.208872648,0.008,4.38516353,
0.00802,4.30516353,0.00802,4.019733236,
0.00804,4.30516353,0.00804,4.750593824,
0.00806,4.670593824,0.00806,5.481454413,
0.00808,4.670593824,0.00808,4.38516353,
0.0081,4.670593824,0.0081,4.750593824,
0.00812,2.112581765,0.00812,4.38516353,
0.00814,2.478012059,0.00814,4.019733236,
0.00816,2.112581765,0.00816,5.116024118,
0.00818,1.381721177,0.00818,4.750593824,
0.0082,0.6508605883,0.0082,4.38516353,
0.00822,1.016290883,0.00822,4.019733236,
0.00824,1.747151471,0.00824,5.116024118,
0.00826,0.2854302942,0.00826,3.288872648,
0.00828,-1.176290883,0.00828,4.750593824,
0.0083,-1.541721177,0.0083,4.38516353,
0.00832,-2.272581765,0.00832,4.38516353,
0.00834,-2.272581765,0.00834,4.750593824,
0.00836,-5.561454413,0.00836,3.654302942,
0.00838,-2.272581765,0.00838,4.750593824,
0.0084,-2.638012059,0.0084,4.750593824,
0.00842,-3.003442353,0.00842,4.38516353,
0.00844,-3.368872648,0.00844,4.38516353,
0.00846,-3.368872648,0.00846,5.481454413,
0.00848,-4.099733236,0.00848,4.750593824,
0.0085,-5.196024118,0.0085,4.38516353,
0.00852,-3.368872648,0.00852,4.38516353,
0.00854,-3.368872648,0.00854,4.38516353,
0.00856,-3.368872648,0.00856,3.288872648,
0.00858,-3.003442353,0.00858,4.38516353,
0.0086,-3.368872648,0.0086,4.38516353,
0.00862,-1.541721177,0.00862,4.019733236,
0.00864,-1.176290883,0.00864,4.750593824,
0.00866,-1.907151471,0.00866,4.38516353,
0.00868,-0.4454302942,0.00868,4.019733236,
0.0087,-0.08,0.0087,4.38516353,
0.00872,-0.08,0.00872,4.38516353,
0.00874,1.016290883,0.00874,4.750593824,
0.00876,1.016290883,0.00876,5.481454413,
0.00878,1.016290883,0.00878,4.38516353,
0.0088,1.747151471,0.0088,4.38516353,
0.00882,3.208872648,0.00882,4.38516353,
0.00884,2.112581765,0.00884,4.38516353,
0.00886,2.112581765,0.00886,4.019733236,
0.00888,3.574302942,0.00888,4.38516353,
0.0089,2.843442353,0.0089,4.750593824,
0.00892,3.939733236,0.00892,4.019733236,
0.00894,3.208872648,0.00894,4.750593824,
0.00896,3.574302942,0.00896,3.654302942,
0.00898,4.30516353,0.00898,4.38516353,
0.009,3.574302942,0.009,4.750593824,
0.00902,3.208872648,0.00902,4.38516353,
0.00904,2.843442353,0.00904,4.019733236,
0.00906,3.208872648,0.00906,5.481454413,
0.00908,1.747151471,0.00908,3.654302942,
0.0091,1.747151471,0.0091,4.38516353,
0.00912,1.381721177,0.00912,4.750593824,
0.00914,0.6508605883,0.00914,3.654302942,
0.00916,1.016290883,0.00916,4.38516353,
0.00918,2.112581765,0.00918,4.38516353,
0.0092,-1.176290883,0.0092,3.654302942,
0.00922,-0.4454302942,0.00922,4.019733236,
0.00924,-1.907151471,0.00924,4.38516353,
0.00926,-1.907151471,0.00926,3.654302942,
0.00928,-3.003442353,0.00928,4.38516353,
0.0093,-2.638012059,0.0093,4.38516353,
0.00932,-3.368872648,0.00932,4.019733236,
0.00934,-3.003442353,0.00934,4.38516353,
0.00936,-3.003442353,0.00936,4.019733236,
0.00938,-4.46516353,0.00938,3.654302942,
0.0094,-2.272581765,0.0094,4.38516353,
0.00942,-3.003442353,0.00942,4.38516353,
0.00944,-4.099733236,0.00944,4.019733236,
0.00946,-2.638012059,0.00946,4.750593824,
0.00948,-3.003442353,0.00948,4.38516353,
0.0095,-2.638012059,0.0095,4.019733236,
0.00952,-3.003442353,0.00952,4.019733236,
0.00954,-1.907151471,0.00954,4.019733236,
0.00956,-2.638012059,0.00956,4.38516353,
0.00958,-0.4454302942,0.00958,4.38516353,
0.0096,-0.8108605883,0.0096,4.38516353,
0.00962,-0.8108605883,0.00962,4.019733236,
0.00964,-1.176290883,0.00964,4.019733236,
0.00966,-0.08,0.00966,4.019733236,
0.00968,0.2854302942,0.00968,4.019733236,
0.0097,0.6508605883,0.0097,4.38516353,
0.00972,1.747151471,0.00972,4.019733236,
0.00974,2.478012059,0.00974,4.38516353,
0.00976,3.208872648,0.00976,4.750593824,
0.00978,4.30516353,0.00978,4.019733236,
0.0098,3.574302942,0.0098,3.654302942,
0.00982,3.208872648,0.00982,5.116024118,
0.00984,2.112581765,0.00984,4.019733236,
0.00986,2.843442353,0.00986,4.019733236,
0.00988,2.843442353,0.00988,4.38516353,
0.0099,2.843442353,0.0099,4.019733236,
0.00992,3.208872648,0.00992,4.019733236,
0.00994,3.208872648,0.00994,4.38516353,
0.00996,3.939733236,0.00996,4.019733236,
0.00998,2.112581765,0.00998,4.019733236,
0.01,2.478012059,0.01,4.750593824,
0.01002,2.112581765,0.01002,4.750593824,
0.01004,1.747151471,0.01004,3.654302942,
0.01006,2.112581765,0.01006,4.38516353,
0.01008,2.478012059,0.01008,4.019733236,
0.0101,0.2854302942,0.0101,4.019733236,
0.01012,-0.8108605883,0.01012,4.38516353,
0.01014,-1.541721177,0.01014,4.019733236,
0.01016,1.747151471,0.01016,4.019733236,
0.01018,-2.638012059,0.01018,4.38516353,
0.0102,-1.541721177,0.0102,4.38516353,
0.01022,-3.003442353,0.01022,3.654302942,
0.01024,-3.003442353,0.01024,4.38516353,
0.01026,-2.638012059,0.01026,4.019733236,
0.01028,-4.46516353,0.01028,3.654302942,
0.0103,-3.734302942,0.0103,4.38516353,
0.01032,-4.46516353,0.01032,4.38516353,
0.01034,-3.003442353,0.01034,4.019733236,
0.01036,-3.734302942,0.01036,4.38516353,
0.01038,-4.46516353,0.01038,4.750593824,
0.0104,-3.734302942,0.0104,4.019733236,
0.01042,-1.907151471,0.01042,4.38516353,
0.01044,-3.368872648,0.01044,4.38516353,
0.01046,-3.734302942,0.01046,4.019733236,
0.01048,-2.638012059,0.01048,4.38516353,
0.0105,-2.638012059,0.0105,4.38516353,
0.01052,-1.907151471,0.01052,3.654302942,
0.01054,-0.4454302942,0.01054,4.38516353,
0.01056,-2.638012059,0.01056,4.019733236,
0.01058,-0.08,0.01058,3.654302942,
0.0106,0.2854302942,0.0106,4.38516353,
0.01062,1.016290883,0.01062,4.019733236,
0.01064,1.016290883,0.01064,3.654302942,
0.01066,1.747151471,0.01066,4.38516353,
0.01068,1.381721177,0.01068,4.38516353,
0.0107,2.843442353,0.0107,3.288872648,
0.01072,2.478012059,0.01072,4.38516353,
0.01074,4.30516353,0.01074,4.38516353,
0.01076,4.30516353,0.01076,4.019733236,
0.01078,3.574302942,0.01078,5.116024118,
0.0108,3.939733236,0.0108,4.019733236,
0.01082,1.381721177,0.01082,4.019733236,
0.01084,3.574302942,0.01084,4.38516353,
0.01086,4.30516353,0.01086,4.019733236,
0.01088,3.208872648,0.01088,3.654302942,
0.0109,2.843442353,0.0109,4.750593824,
0.01092,3.208872648,0.01092,4.38516353,
0.01094,3.208872648,0.01094,4.38516353,
0.01096,1.747151471,0.01096,4.38516353,
0.01098,1.747151471,0.01098,4.019733236,
0.011,2.478012059,0.011,4.750593824,
0.01102,-0.08,0.01102,4.019733236,
0.01104,-0.08,0.01104,4.019733236,
0.01106,-0.08,0.01106,4.750593824,
0.01108,-0.4454302942,0.01108,4.38516353,
0.0111,-1.541721177,0.0111,4.019733236,
0.01112,-1.176290883,0.01112,5.116024118,
0.01114,-3.003442353,0.01114,4.019733236,
0.01116,0.6508605883,0.01116,4.019733236,
0.01118,-4.46516353,0.01118,4.750593824,
0.0112,-3.368872648,0.0112,4.38516353,
0.01122,-3.734302942,0.01122,4.019733236,
0.01124,-2.638012059,0.01124,4.38516353,
0.01126,-3.734302942,0.01126,4.019733236,
0.01128,-3.734302942,0.01128,3.288872648,
0.0113,-3.368872648,0.0113,4.38516353,
0.01132,-3.734302942,0.01132,4.38516353,
0.01134,-3.003442353,0.01134,4.38516353,
0.01136,-3.734302942,0.01136,4.38516353,
0.01138,-1.907151471,0.01138,4.750593824,
0.0114,-2.272581765,0.0114,4.019733236,
0.01142,-2.638012059,0.01142,4.750593824,
0.01144,-2.272581765,0.01144,4.38516353,
0.01146,-2.272581765,0.01146,4.019733236,
0.01148,-1.176290883,0.01148,5.846884707,
0.0115,-1.176290883,0.0115,4.019733236,
0.01152,-1.176290883,0.01152,4.019733236,
0.01154,1.016290883,0.01154,4.750593824,
0.01156,0.6508605883,0.01156,4.38516353,
0.01158,0.6508605883,0.01158,3.654302942,
0.0116,1.381721177,0.0116,4.750593824,
0.01162,1.747151471,0.01162,4.38516353,
0.01164,2.478012059,0.01164,4.38516353,
0.01166,2.843442353,0.01166,4.750593824,
0.01168,2.478012059,0.01168,2.558012059,
0.0117,3.208872648,0.0117,4.019733236,
0.01172,3.208872648,0.01172,4.750593824,
0.01174,3.208872648,0.01174,4.019733236,
0.01176,2.478012059,0.01176,4.38516353,
0.01178,4.30516353,0.01178,6.577745295,
0.0118,3.208872648,0.0118,4.019733236,
0.01182,2.843442353,0.01182,3.654302942,
0.01184,3.208872648,0.01184,4.750593824,
0.01186,1.747151471,0.01186,4.38516353,
0.01188,3.208872648,0.01188,2.558012059,
0.0119,1.381721177,0.0119,4.38516353,
0.01192,1.016290883,0.01192,4.38516353,
0.01194,-0.4454302942,0.01194,4.750593824,
0.01196,1.381721177,0.01196,4.750593824,
0.01198,-0.08,0.01198,5.116024118,
0.012,-0.08,0.012,4.019733236,
0.01202,-1.541721177,0.01202,4.38516353,
0.01204,-1.176290883,0.01204,4.019733236,
0.01206,-2.638012059,0.01206,4.38516353,
0.01208,-1.907151471,0.01208,5.481454413,
0.0121,-2.638012059,0.0121,4.38516353,
0.01212,-2.638012059,0.01212,4.38516353,
0.01214,-4.46516353,0.01214,4.38516353,
0.01216,-3.734302942,0.01216,4.38516353,
0.01218,-2.638012059,0.01218,3.654302942,
0.0122,-3.368872648,0.0122,4.38516353,
0.01222,-3.368872648,0.01222,4.750593824,
0.01224,-3.003442353,0.01224,4.38516353,
0.01226,-3.734302942,0.01226,4.019733236,
0.01228,-3.003442353,0.01228,5.116024118,
0.0123,-1.907151471,0.0123,4.750593824,
0.01232,-2.272581765,0.01232,4.38516353,
0.01234,-1.176290883,0.01234,4.38516353,
0.01236,-1.907151471,0.01236,4.019733236,
0.01238,-1.907151471,0.01238,5.846884707,
0.0124,-1.541721177,0.0124,4.38516353,
0.01242,-0.8108605883,0.01242,4.019733236,
0.01244,0.6508605883,0.01244,4.750593824,
0.01246,-0.4454302942,0.01246,4.019733236,
0.01248,-3.003442353,0.01248,2.923442353,
0.0125,1.381721177,0.0125,4.750593824,
0.01252,1.016290883,0.01252,4.019733236,
0.01254,1.747151471,0.01254,4.019733236,
0.01256,2.478012059,0.01256,4.750593824,
0.01258,1.747151471,0.01258,4.38516353,
0.0126,3.208872648,0.0126,4.38516353,
0.01262,3.208872648,0.01262,4.750593824,
0.01264,2.112581765,0.01264,4.38516353,
0.01266,2.112581765,0.01266,4.019733236,
0.01268,2.112581765,0.01268,5.846884707,
0.0127,2.478012059,0.0127,4.38516353,
0.01272,3.208872648,0.01272,4.38516353,
0.01274,3.574302942,0.01274,4.38516353,
0.01276,2.843442353,0.01276,4.38516353,
0.01278,5.766884707,0.01278,4.019733236,
0.0128,2.843442353,0.0128,4.38516353,
0.01282,2.478012059,0.01282,4.38516353,
0.01284,3.208872648,0.01284,4.38516353,
0.01286,0.6508605883,0.01286,4.750593824,
0.01288,2.112581765,0.01288,4.38516353,
0.0129,0.6508605883,0.0129,4.750593824,
0.01292,-0.8108605883,0.01292,4.38516353,
0.01294,0.6508605883,0.01294,4.38516353,
0.01296,-1.176290883,0.01296,4.750593824,
0.01298,-1.907151471,0.01298,4.750593824,
0.013,-2.638012059,0.013,4.38516353,
0.01302,-1.907151471,0.01302,4.750593824,
0.01304,-1.541721177,0.01304,4.750593824,
0.01306,-1.541721177,0.01306,4.38516353,
0.01308,-2.638012059,0.01308,4.750593824,
0.0131,-4.099733236,0.0131,4.750593824,
0.01312,-3.368872648,0.01312,4.38516353,
0.01314,-5.196024118,0.01314,4.750593824,
0.01316,-4.099733236,0.01316,4.750593824,
0.01318,-4.099733236,0.01318,4.38516353,
0.0132,-2.272581765,0.0132,4.750593824,
0.01322,-3.734302942,0.01322,4.38516353,
0.01324,-1.907151471,0.01324,4.38516353,
0.01326,-3.368872648,0.01326,4.38516353,
0.01328,-1.541721177,0.01328,4.38516353,
0.0133,-3.734302942,0.0133,4.019733236,
0.01332,-1.541721177,0.01332,5.481454413,
0.01334,-3.368872648,0.01334,4.750593824,
0.01336,-0.4454302942,0.01336,4.019733236,
0.01338,0.2854302942,0.01338,4.019733236,
0.0134,-0.08,0.0134,4.750593824,
0.01342,1.381721177,0.01342,4.38516353,
0.01344,2.112581765,0.01344,4.38516353,
0.01346,0.6508605883,0.01346,4.38516353,
0.01348,2.478012059,0.01348,4.38516353,
0.0135,2.843442353,0.0135,4.750593824,
0.01352,2.112581765,0.01352,4.38516353,
0.01354,4.30516353,0.01354,4.38516353,
0.01356,4.30516353,0.01356,4.38516353,
0.01358,2.843442353,0.01358,4.38516353,
0.0136,3.939733236,0.0136,4.38516353,
0.01362,3.939733236,0.01362,4.019733236,
0.01364,2.478012059,0.01364,4.38516353,
0.01366,3.574302942,0.01366,4.38516353,
0.01368,3.939733236,0.01368,4.750593824,
0.0137,2.843442353,0.0137,4.750593824,
0.01372,3.574302942,0.01372,4.019733236,
0.01374,2.478012059,0.01374,4.750593824,
0.01376,1.016290883,0.01376,4.38516353,
0.01378,2.478012059,0.01378,4.38516353,
0.0138,1.747151471,0.0138,4.750593824,
0.01382,1.381721177,0.01382,4.019733236,
0.01384,1.016290883,0.01384,4.38516353,
0.01386,0.2854302942,0.01386,4.38516353,
0.01388,0.6508605883,0.01388,4.750593824,
0.0139,-0.8108605883,0.0139,4.38516353,
0.01392,-3.368872648,0.01392,4.750593824,
0.01394,-2.272581765,0.01394,4.38516353,
0.01396,-2.638012059,0.01396,4.019733236,
0.01398,-2.638012059,0.01398,4.750593824,
0.014,-4.46516353,0.014,4.750593824,
0.01402,-2.638012059,0.01402,4.019733236,
0.01404,-3.368872648,0.01404,4.38516353,
0.01406,-4.099733236,0.01406,4.750593824,
0.01408,-3.368872648,0.01408,4.019733236,
0.0141,-3.003442353,0.0141,5.116024118,
0.01412,-4.46516353,0.01412,4.38516353,
0.01414,-3.368872648,0.01414,4.019733236,
0.01416,-1.541721177,0.01416,4.38516353,
0.01418,-2.638012059,0.01418,4.38516353,
0.0142,-4.830593824,0.0142,4.38516353,
0.01422,-2.272581765,0.01422,4.38516353,
0.01424,-2.272581765,0.01424,4.750593824,
0.01426,-0.08,0.01426,4.38516353,
0.01428,-0.08,0.01428,4.750593824,
0.0143,-0.4454302942,0.0143,4.38516353,
0.01432,1.016290883,0.01432,4.019733236,
0.01434,0.6508605883,0.01434,4.750593824,
0.01436,0.6508605883,0.01436,4.38516353,
0.01438,2.112581765,0.01438,4.019733236,
0.0144,2.112581765,0.0144,4.019733236,
0.01442,1.747151471,0.01442,4.019733236,
0.01444,3.574302942,0.01444,4.38516353,
0.01446,3.574302942,0.01446,4.750593824,
0.01448,4.30516353,0.01448,4.38516353,
0.0145,3.574302942,0.0145,5.481454413,
0.01452,4.30516353,0.01452,4.38516353,
0.01454,3.574302942,0.01454,4.750593824,
0.01456,3.208872648,0.01456,4.019733236,
0.01458,3.939733236,0.01458,4.019733236,
0.0146,5.766884707,0.0146,4.38516353,
0.01462,3.208872648,0.01462,3.654302942,
0.01464,2.843442353,0.01464,4.38516353,
0.01466,1.747151471,0.01466,4.750593824,
0.01468,3.208872648,0.01468,4.019733236,
0.0147,2.843442353,0.0147,4.38516353,
0.01472,2.843442353,0.01472,4.750593824,
0.01474,2.112581765,0.01474,4.019733236,
0.01476,-0.8108605883,0.01476,4.019733236,
0.01478,0.6508605883,0.01478,4.750593824,
0.0148,-0.4454302942,0.0148,5.481454413,
0.01482,-1.907151471,0.01482,4.019733236,
0.01484,-2.638012059,0.01484,4.38516353,
0.01486,-0.08,0.01486,4.019733236,
0.01488,-1.907151471,0.01488,4.019733236,
0.0149,-1.541721177,0.0149,3.654302942,
0.01492,-2.272581765,0.01492,4.019733236,
0.01494,-4.099733236,0.01494,3.654302942,
0.01496,-3.734302942,0.01496,4.38516353,
0.01498,-4.46516353,0.01498,4.019733236,
0.015,-4.099733236,0.015,3.288872648,
0.01502,-3.368872648,0.01502,4.38516353,
0.01504,-3.003442353,0.01504,4.38516353,
0.01506,-3.003442353,0.01506,4.019733236,
0.01508,-3.003442353,0.01508,4.38516353,
0.0151,-2.272581765,0.0151,4.750593824,
0.01512,-1.907151471,0.01512,3.654302942,
0.01514,-2.638012059,0.01514,4.38516353,
0.01516,-2.638012059,0.01516,4.38516353,
0.01518,-1.907151471,0.01518,3.654302942,
0.0152,-3.003442353,0.0152,5.116024118,
0.01522,0.2854302942,0.01522,4.38516353,
0.01524,0.2854302942,0.01524,3.654302942,
0.01526,0.6508605883,0.01526,4.019733236,
0.01528,0.6508605883,0.01528,4.019733236,
0.0153,1.747151471,0.0153,2.558012059,
0.01532,1.381721177,0.01532,4.38516353,
0.01534,2.112581765,0.01534,4.38516353,
0.01536,3.574302942,0.01536,4.38516353,
0.01538,4.30516353,0.01538,4.38516353,
0.0154,3.574302942,0.0154,5.481454413,
0.01542,4.670593824,0.01542,4.019733236,
0.01544,3.574302942,0.01544,4.750593824,
0.01546,3.939733236,0.01546,4.019733236,
0.01548,3.208872648,0.01548,4.019733236,
0.0155,3.574302942,0.0155,3.654302942,
0.01552,5.766884707,0.01552,4.38516353,
0.01554,2.478012059,0.01554,3.654302942,
0.01556,3.208872648,0.01556,4.38516353,
0.01558,5.401454413,0.01558,4.019733236,
0.0156,3.208872648,0.0156,4.019733236,
0.01562,1.747151471,0.01562,4.38516353,
0.01564,2.112581765,0.01564,4.38516353,
0.01566,1.381721177,0.01566,3.654302942,
0.01568,1.381721177,0.01568,4.38516353,
0.0157,-0.08,0.0157,4.38516353,
0.01572,0.6508605883,0.01572,4.019733236,
0.01574,-0.08,0.01574,4.38516353,
0.01576,-1.176290883,0.01576,4.38516353,
0.01578,-1.907151471,0.01578,4.019733236,
0.0158,-0.8108605883,0.0158,4.38516353,
0.01582,-0.4454302942,0.01582,4.38516353,
0.01584,-3.003442353,0.01584,4.750593824,
0.01586,-3.003442353,0.01586,4.38516353,
0.01588,-2.638012059,0.01588,4.750593824,
0.0159,-7.754036178,0.0159,4.019733236,
0.01592,-1.541721177,0.01592,4.38516353,
0.01594,-3.003442353,0.01594,4.38516353,
0.01596,-3.368872648,0.01596,4.019733236,
0.01598,-3.734302942,0.01598,4.38516353,
0.016,-2.638012059,0.016,4.019733236,
0.01602,-4.099733236,0.01602,4.019733236,
0.01604,-3.003442353,0.01604,4.750593824,
0.01606,-2.272581765,0.01606,4.750593824,
0.01608,-0.8108605883,0.01608,4.019733236,
0.0161,-0.8108605883,0.0161,4.38516353,
0.01612,-1.176290883,0.01612,4.38516353,
0.01614,-0.08,0.01614,4.019733236,
0.01616,-3.003442353,0.01616,4.38516353,
0.01618,1.381721177,0.01618,4.019733236,
0.0162,-0.4454302942,0.0162,4.019733236,
0.01622,2.112581765,0.01622,4.019733236,
0.01624,1.016290883,0.01624,4.38516353,
0.01626,1.381721177,0.01626,4.38516353,
0.01628,2.112581765,0.01628,4.38516353,
0.0163,2.843442353,0.0163,4.38516353,
0.01632,1.747151471,0.01632,4.019733236,
0.01634,2.478012059,0.01634,4.019733236,
0.01636,3.208872648,0.01636,4.019733236,
0.01638,2.478012059,0.01638,4.38516353,
0.0164,5.401454413,0.0164,4.019733236,
0.01642,3.574302942,0.01642,3.654302942,
0.01644,2.478012059,0.01644,4.019733236,
0.01646,3.574302942,0.01646,4.38516353,
0.01648,3.574302942,0.01648,4.38516353,
0.0165,1.381721177,0.0165,4.019733236,
0.01652,3.939733236,0.01652,4.38516353,
0.01654,3.574302942,0.01654,4.38516353,
0.01656,1.381721177,0.01656,4.019733236,
0.01658,2.478012059,0.01658,4.38516353,
0.0166,1.381721177,0.0166,4.38516353,
0.01662,1.016290883,0.01662,4.019733236,
0.01664,0.2854302942,0.01664,4.750593824,
0.01666,-1.907151471,0.01666,3.654302942,
0.01668,-0.8108605883,0.01668,4.38516353,
0.0167,-0.8108605883,0.0167,4.750593824,
0.01672,-2.272581765,0.01672,4.019733236,
0.01674,-0.8108605883,0.01674,4.750593824,
0.01676,-2.272581765,0.01676,4.38516353,
0.01678,-2.638012059,0.01678,4.019733236,
0.0168,-3.003442353,0.0168,5.116024118,
0.01682,-5.196024118,0.01682,4.38516353,
0.01684,-3.368872648,0.01684,4.019733236,
0.01686,-3.734302942,0.01686,4.750593824,
0.01688,-3.368872648,0.01688,4.019733236,
0.0169,-4.46516353,0.0169,4.019733236,
0.01692,-3.003442353,0.01692,5.116024118,
0.01694,-3.734302942,0.01694,4.019733236,
0.01696,-3.003442353,0.01696,4.38516353,
0.01698,-2.638012059,0.01698,4.750593824,
0.017,-2.638012059,0.017,4.38516353,
0.01702,-2.638012059,0.01702,4.019733236,
0.01704,-2.638012059,0.01704,5.481454413,
0.01706,-1.541721177,0.01706,4.38516353,
0.01708,-0.8108605883,0.01708,4.38516353,
0.0171,0.2854302942,0.0171,4.38516353,
0.01712,-0.8108605883,0.01712,3.288872648,
0.01714,0.6508605883,0.01714,4.019733236,
0.01716,0.6508605883,0.01716,4.019733236,
0.01718,2.478012059,0.01718,4.38516353,
0.0172,2.478012059,0.0172,4.38516353,
0.01722,2.478012059,0.01722,3.654302942,
0.01724,3.574302942,0.01724,4.38516353,
0.01726,3.574302942,0.01726,4.38516353,
0.01728,1.016290883,0.01728,4.38516353,
0.0173,4.30516353,0.0173,4.019733236,
0.01732,4.30516353,0.01732,5.481454413,
0.01734,4.30516353,0.01734,4.38516353,
0.01736,3.574302942,0.01736,4.750593824,
0.01738,3.939733236,0.01738,4.38516353,
0.0174,3.939733236,0.0174,4.38516353,
0.01742,3.574302942,0.01742,2.558012059,
0.01744,3.208872648,0.01744,4.38516353,
0.01746,3.208872648,0.01746,4.38516353,
0.01748,1.747151471,0.01748,4.38516353,
0.0175,2.843442353,0.0175,4.38516353,
0.01752,1.381721177,0.01752,5.846884707,
0.01754,0.6508605883,0.01754,4.750593824,
0.01756,-0.08,0.01756,4.019733236,
0.01758,0.6508605883,0.01758,4.750593824,
0.0176,-0.4454302942,0.0176,4.750593824,
0.01762,-0.8108605883,0.01762,4.750593824,
0.01764,-1.176290883,0.01764,4.38516353,
0.01766,-1.907151471,0.01766,3.654302942,
0.01768,-3.003442353,0.01768,4.38516353,
0.0177,-4.830593824,0.0177,4.750593824,
0.01772,-2.638012059,0.01772,2.192581765,
0.01774,-1.907151471,0.01774,4.019733236,
0.01776,-1.176290883,0.01776,4.38516353,
0.01778,-1.907151471,0.01778,4.019733236,
0.0178,-2.638012059,0.0178,4.38516353,
0.01782,-3.368872648,0.01782,5.846884707,
0.01784,-2.272581765,0.01784,3.654302942,
0.01786,-4.099733236,0.01786,4.750593824,
0.01788,-4.099733236,0.01788,4.38516353,
0.0179,-3.003442353,0.0179,3.654302942,
0.01792,-1.176290883,0.01792,3.288872648,
0.01794,-2.272581765,0.01794,4.38516353,
0.01796,-1.907151471,0.01796,3.654302942,
0.01798,-3.003442353,0.01798,4.019733236,
0.018,-2.638012059,0.018,4.38516353,
0.01802,0.2854302942,0.01802,5.116024118,
0.01804,-0.4454302942,0.01804,4.750593824,
0.01806,1.016290883,0.01806,4.019733236,
0.01808,0.6508605883,0.01808,4.019733236,
0.0181,1.381721177,0.0181,4.38516353,
0.01812,1.381721177,0.01812,3.654302942,
0.01814,1.016290883,0.01814,4.019733236,
0.01816,2.843442353,0.01816,4.019733236,
0.01818,3.574302942,0.01818,4.38516353,
0.0182,2.843442353,0.0182,3.654302942,
0.01822,2.478012059,0.01822,3.654302942,
0.01824,3.574302942,0.01824,4.38516353,
0.01826,3.939733236,0.01826,3.288872648,
0.01828,4.30516353,0.01828,4.019733236,
0.0183,5.036024118,0.0183,4.38516353,
0.01832,3.574302942,0.01832,4.38516353,
0.01834,2.843442353,0.01834,4.019733236,
0.01836,4.670593824,0.01836,4.019733236,
0.01838,2.843442353,0.01838,4.750593824,
0.0184,2.112581765,0.0184,4.019733236,
0.01842,2.843442353,0.01842,3.654302942,
0.01844,2.478012059,0.01844,4.019733236,
0.01846,1.381721177,0.01846,4.38516353,
0.01848,1.747151471,0.01848,4.38516353,
0.0185,0.2854302942,0.0185,4.019733236,
0.01852,-0.8108605883,0.01852,4.750593824,
0.01854,-1.176290883,0.01854,4.019733236,
0.01856,-1.541721177,0.01856,3.654302942,
0.01858,-1.176290883,0.01858,4.750593824,
0.0186,-1.541721177,0.0186,4.38516353,
0.01862,-4.099733236,0.01862,3.654302942,
0.01864,-1.907151471,0.01864,4.750593824,
0.01866,-2.638012059,0.01866,4.38516353,
0.01868,-3.368872648,0.01868,3.654302942,
0.0187,-2.638012059,0.0187,4.019733236,
0.01872,-3.368872648,0.01872,4.38516353,
0.01874,-3.368872648,0.01874,4.019733236,
0.01876,-5.926884707,0.01876,4.019733236,
0.01878,-2.638012059,0.01878,4.38516353,
0.0188,-3.734302942,0.0188,4.019733236,
0.01882,-3.003442353,0.01882,4.019733236,
0.01884,-2.272581765,0.01884,4.750593824,
0.01886,-3.003442353,0.01886,3.654302942,
0.01888,-3.368872648,0.01888,4.019733236,
0.0189,-1.541721177,0.0189,4.019733236,
0.01892,-1.541721177,0.01892,3.654302942,
0.01894,-0.08,0.01894,4.019733236,
0.01896,-0.08,0.01896,3.654302942,
0.01898,-1.541721177,0.01898,4.019733236,
0.019,-0.4454302942,0.019,4.38516353,
0.01902,1.381721177,0.01902,4.38516353,
0.01904,1.381721177,0.01904,3.654302942,
0.01906,1.381721177,0.01906,4.019733236,
0.01908,1.381721177,0.01908,4.38516353,
0.0191,4.30516353,0.0191,3.654302942,
0.01912,2.843442353,0.01912,4.38516353,
0.01914,3.208872648,0.01914,4.38516353,
0.01916,3.208872648,0.01916,4.019733236,
0.01918,4.30516353,0.01918,4.38516353,
0.0192,4.30516353,0.0192,4.38516353,
0.01922,3.574302942,0.01922,4.019733236,
0.01924,5.401454413,0.01924,4.38516353,
0.01926,3.574302942,0.01926,4.019733236,
0.01928,3.574302942,0.01928,4.019733236,
0.0193,2.843442353,0.0193,4.750593824,
0.01932,1.381721177,0.01932,4.38516353,
0.01934,3.208872648,0.01934,3.654302942,
0.01936,2.112581765,0.01936,4.750593824,
0.01938,2.112581765,0.01938,4.019733236,
0.0194,0.2854302942,0.0194,4.019733236,
0.01942,1.747151471,0.01942,4.38516353,
0.01944,-0.08,0.01944,4.38516353,
0.01946,-0.08,0.01946,4.38516353,
0.01948,-0.4454302942,0.01948,4.750593824,
0.0195,-0.8108605883,0.0195,4.38516353,
0.01952,-1.541721177,0.01952,3.654302942,
0.01954,-4.099733236,0.01954,4.38516353,
0.01956,-5.196024118,0.01956,3.654302942,
0.01958,-3.003442353,0.01958,4.750593824,
0.0196,-3.368872648,0.0196,4.019733236,
0.01962,-4.46516353,0.01962,3.654302942,
0.01964,-2.638012059,0.01964,5.481454413,
0.01966,-3.734302942,0.01966,4.38516353,
0.01968,-3.368872648,0.01968,4.019733236,
0.0197,-4.830593824,0.0197,4.750593824,
0.01972,-5.561454413,0.01972,4.38516353,
0.01974,-3.003442353,0.01974,3.654302942,
0.01976,-2.638012059,0.01976,4.750593824,
0.01978,-3.003442353,0.01978,4.019733236,
0.0198,-2.638012059,0.0198,4.38516353,
0.01982,-4.099733236,0.01982,4.750593824,
0.01984,-1.907151471,0.01984,3.288872648,
0.01986,-4.099733236,0.01986,3.654302942,
0.01988,-1.541721177,0.01988,4.38516353,
0.0199,-1.176290883,0.0199,4.019733236,
0.01992,-0.4454302942,0.01992,4.38516353,
0.01994,1.016290883,0.01994,5.116024118,
0.01996,1.016290883,0.01996,4.38516353,
0.01998,-0.8108605883,0.01998,4.38516353,
0.02,2.843442353,0.02,5.116024118,
0.02002,1.747151471,0.02002,4.38516353,
0.02004,0.2854302942,0.02004,4.38516353,
0.02006,1.016290883,0.02006,4.750593824,
0.02008,2.478012059,0.02008,4.38516353,
0.0201,2.843442353,0.0201,4.019733236,
0.02012,2.843442353,0.02012,4.750593824,
0.02014,2.843442353,0.02014,3.288872648,
0.02016,3.208872648,0.02016,4.019733236,
0.02018,3.574302942,0.02018,5.116024118,
0.0202,2.843442353,0.0202,4.38516353,
0.02022,3.208872648,0.02022,4.38516353,
0.02024,2.843442353,0.02024,6.577745295,
0.02026,1.016290883,0.02026,4.019733236,
0.02028,1.747151471,0.02028,4.019733236,
0.0203,1.381721177,0.0203,4.750593824,
0.02032,1.747151471,0.02032,4.019733236,
0.02034,-0.8108605883,0.02034,2.923442353,
0.02036,-0.4454302942,0.02036,4.750593824,
0.02038,-0.8108605883,0.02038,4.38516353,
0.0204,-0.8108605883,0.0204,4.019733236,
0.02042,-0.4454302942,0.02042,5.116024118,
0.02044,-1.541721177,0.02044,5.481454413,
0.02046,-1.907151471,0.02046,4.019733236,
0.02048,-2.272581765,0.02048,4.750593824,
0.0205,-3.368872648,0.0205,4.38516353,
0.02052,-3.003442353,0.02052,4.38516353,
0.02054,-3.368872648,0.02054,4.019733236,
0.02056,-4.099733236,0.02056,4.38516353,
0.02058,-3.368872648,0.02058,4.019733236,
0.0206,-3.003442353,0.0206,4.38516353,
0.02062,-4.830593824,0.02062,4.38516353,
0.02064,-3.368872648,0.02064,4.019733236,
0.02066,-6.657745295,0.02066,4.38516353,
0.02068,-3.368872648,0.02068,4.38516353,
0.0207,-2.638012059,0.0207,4.019733236,
0.02072,-2.272581765,0.02072,4.750593824,
0.02074,-5.196024118,0.02074,5.481454413,
0.02076,-1.541721177,0.02076,4.019733236,
0.02078,-1.176290883,0.02078,4.38516353,
0.0208,-1.176290883,0.0208,4.019733236,
0.02082,-0.4454302942,0.02082,4.019733236,
0.02084,1.381721177,0.02084,5.116024118,
0.02086,1.381721177,0.02086,4.38516353,
0.02088,-0.08,0.02088,4.38516353,
0.0209,1.381721177,0.0209,4.750593824,
0.02092,1.381721177,0.02092,3.654302942,
0.02094,2.112581765,0.02094,3.654302942,
0.02096,2.843442353,0.02096,5.116024118,
0.02098,2.843442353,0.02098,4.019733236,
0.021,2.843442353,0.021,4.019733236,
0.02102,4.30516353,0.02102,4.750593824,
0.02104,2.843442353,0.02104,4.750593824,
0.02106,3.574302942,0.02106,4.019733236,
0.02108,7.959466472,0.02108,5.116024118,
0.0211,3.939733236,0.0211,4.750593824,
0.02112,3.208872648,0.02112,4.019733236,
0.02114,3.574302942,0.02114,4.750593824,
0.02116,2.843442353,0.02116,4.019733236,
0.02118,2.478012059,0.02118,4.019733236,
0.0212,1.747151471,0.0212,4.750593824,
0.02122,2.478012059,0.02122,4.38516353,
0.02124,1.016290883,0.02124,3.654302942,
0.02126,1.016290883,0.02126,4.750593824,
0.02128,2.843442353,0.02128,4.019733236,
0.0213,-0.4454302942,0.0213,4.38516353,
0.02132,0.6508605883,0.02132,5.116024118,
0.02134,-1.907151471,0.02134,4.750593824,
0.02136,-0.4454302942,0.02136,4.38516353,
0.02138,-1.176290883,0.02138,4.750593824,
0.0214,-1.907151471,0.0214,4.019733236,
0.02142,-1.907151471,0.02142,4.38516353,
0.02144,-1.176290883,0.02144,4.38516353,
0.02146,-1.907151471,0.02146,3.654302942,
0.02148,-1.907151471,0.02148,4.38516353,
0.0215,-4.099733236,0.0215,4.019733236,
0.02152,-3.368872648,0.02152,4.019733236,
0.02154,-3.734302942,0.02154,4.750593824,
0.02156,-3.003442353,0.02156,4.019733236,
0.02158,-4.46516353,0.02158,4.38516353,
0.0216,-3.368872648,0.0216,4.750593824,
0.02162,-3.734302942,0.02162,4.38516353,
0.02164,-0.8108605883,0.02164,4.38516353,
0.02166,-3.003442353,0.02166,4.750593824,
0.02168,-2.638012059,0.02168,4.38516353,
0.0217,-2.272581765,0.0217,4.019733236,
0.02172,-1.907151471,0.02172,4.750593824,
0.02174,-1.541721177,0.02174,4.750593824,
0.02176,1.016290883,0.02176,4.019733236,
0.02178,0.6508605883,0.02178,4.750593824,
0.0218,-1.541721177,0.0218,4.38516353,
0.02182,0.6508605883,0.02182,4.019733236,
0.02184,1.381721177,0.02184,4.750593824,
0.02186,2.843442353,0.02186,4.38516353,
0.02188,2.478012059,0.02188,4.019733236,
0.0219,2.112581765,0.0219,4.38516353,
0.02192,2.478012059,0.02192,4.019733236,
0.02194,2.843442353,0.02194,4.019733236,
0.02196,3.208872648,0.02196,4.38516353,
0.02198,3.574302942,0.02198,4.38516353,
0.022,4.30516353,0.022,4.019733236,
0.02202,3.574302942,0.02202,4.38516353,
0.02204,3.939733236,0.02204,4.38516353,
0.02206,2.843442353,0.02206,4.38516353,
0.02208,3.939733236,0.02208,5.116024118,
0.0221,2.843442353,0.0221,4.38516353,
0.02212,3.574302942,0.02212,4.019733236,
0.02214,3.574302942,0.02214,4.38516353,
0.02216,0.6508605883,0.02216,4.750593824,
0.02218,3.574302942,0.02218,4.019733236,
0.0222,-0.4454302942,0.0222,4.750593824,
0.02222,0.2854302942,0.02222,4.38516353,
0.02224,0.2854302942,0.02224,4.019733236,
0.02226,-0.08,0.02226,3.654302942,
0.02228,-1.907151471,0.02228,4.019733236,
0.0223,-1.541721177,0.0223,4.019733236,
0.02232,-1.907151471,0.02232,4.019733236,
0.02234,-1.541721177,0.02234,4.38516353,
0.02236,-2.638012059,0.02236,4.38516353,
0.02238,-3.368872648,0.02238,4.38516353,
0.0224,-3.734302942,0.0224,4.38516353,
0.02242,-3.368872648,0.02242,4.38516353,
0.02244,-3.734302942,0.02244,4.38516353,
0.02246,-3.003442353,0.02246,4.38516353,
0.02248,-3.368872648,0.02248,4.38516353,
0.0225,-5.196024118,0.0225,4.750593824,
0.02252,-5.926884707,0.02252,4.38516353,
0.02254,-3.003442353,0.02254,4.750593824,
0.02256,-3.003442353,0.02256,4.019733236,
0.02258,-2.638012059,0.02258,4.019733236,
0.0226,-2.272581765,0.0226,4.019733236,
0.02262,-2.272581765,0.02262,4.38516353,
0.02264,-2.638012059,0.02264,4.38516353,
0.02266,-1.907151471,0.02266,4.019733236,
0.02268,-1.541721177,0.02268,4.38516353,
0.0227,1.747151471,0.0227,4.38516353,
0.02272,-0.08,0.02272,3.654302942,
0.02274,1.016290883,0.02274,4.019733236,
0.02276,2.843442353,0.02276,4.38516353,
0.02278,1.381721177,0.02278,4.019733236,
0.0228,0.2854302942,0.0228,4.019733236,
0.02282,4.30516353,0.02282,4.019733236,
0.02284,2.112581765,0.02284,4.019733236,
0.02286,3.939733236,0.02286,4.38516353,
0.02288,3.939733236,0.02288,4.019733236,
0.0229,1.747151471,0.0229,3.654302942,
0.02292,4.670593824,0.02292,4.019733236,
0.02294,4.670593824,0.02294,4.38516353,
0.02296,4.30516353,0.02296,4.019733236,
0.02298,3.939733236,0.02298,4.38516353,
0.023,3.208872648,0.023,4.38516353,
0.02302,6.497745295,0.02302,3.654302942,
0.02304,3.939733236,0.02304,4.750593824,
0.02306,1.381721177,0.02306,4.38516353,
0.02308,2.843442353,0.02308,4.019733236,
0.0231,2.112581765,0.0231,4.38516353,
0.02312,2.478012059,0.02312,4.019733236,
0.02314,0.6508605883,0.02314,4.019733236,
0.02316,-0.4454302942,0.02316,4.38516353,
0.02318,1.381721177,0.02318,4.38516353,
0.0232,-0.4454302942,0.0232,4.019733236,
0.02322,-0.4454302942,0.02322,4.019733236,
0.02324,-1.541721177,0.02324,4.38516353,
0.02326,-0.4454302942,0.02326,3.654302942,
0.02328,-2.272581765,0.02328,4.38516353,
0.0233,-2.272581765,0.0233,4.019733236,
0.02332,-4.46516353,0.02332,4.750593824,
0.02334,-1.907151471,0.02334,4.38516353,
0.02336,-2.272581765,0.02336,5.116024118,
0.02338,-3.734302942,0.02338,4.019733236,
0.0234,-1.541721177,0.0234,4.750593824,
0.02342,-4.099733236,0.02342,4.38516353,
0.02344,-3.003442353,0.02344,2.923442353,
0.02346,-3.368872648,0.02346,4.38516353,
0.02348,-4.830593824,0.02348,5.116024118,
0.0235,-2.638012059,0.0235,4.019733236,
0.02352,-2.638012059,0.02352,4.38516353,
0.02354,-1.907151471,0.02354,4.019733236,
0.02356,-2.638012059,0.02356,2.192581765,
0.02358,-2.638012059,0.02358,4.019733236,
0.0236,-0.8108605883,0.0236,4.750593824,
0.02362,-0.4454302942,0.02362,3.654302942,
0.02364,-0.08,0.02364,4.38516353,
0.02366,0.2854302942,0.02366,4.750593824,
0.02368,-0.08,0.02368,3.654302942,
0.0237,1.747151471,0.0237,4.019733236,
0.02372,1.381721177,0.02372,4.38516353,
0.02374,1.747151471,0.02374,4.019733236,
0.02376,2.843442353,0.02376,5.116024118,
0.02378,4.30516353,0.02378,4.019733236,
0.0238,2.843442353,0.0238,3.654302942,
0.02382,3.208872648,0.02382,4.38516353,
0.02384,3.208872648,0.02384,4.38516353,
0.02386,4.30516353,0.02386,2.558012059,
0.02388,3.939733236,0.02388,4.019733236,
0.0239,4.30516353,0.0239,4.38516353,
0.02392,2.843442353,0.02392,3.654302942,
0.02394,3.939733236,0.02394,4.38516353,
0.02396,2.478012059,0.02396,2.923442353,
0.02398,2.478012059,0.02398,4.019733236,
0.024,2.478012059,0.024,4.38516353,
0.02402,0.6508605883,0.02402,4.38516353,
0.02404,1.747151471,0.02404,4.019733236,
0.02406,1.747151471,0.02406,4.750593824,
0.02408,2.478012059,0.02408,4.38516353,
0.0241,0.2854302942,0.0241,4.38516353,
0.02412,0.2854302942,0.02412,4.38516353,
0.02414,-0.4454302942,0.02414,4.38516353,
0.02416,-3.003442353,0.02416,5.846884707,
0.02418,-1.176290883,0.02418,4.38516353,
0.0242,-1.176290883,0.0242,4.38516353,
0.02422,-3.003442353,0.02422,4.38516353,
0.02424,-2.638012059,0.02424,4.38516353,
0.02426,-2.638012059,0.02426,4.750593824,
0.02428,-4.830593824,0.02428,3.654302942,
0.0243,-3.368872648,0.0243,4.38516353,
0.02432,-3.734302942,0.02432,4.019733236,
0.02434,-5.196024118,0.02434,4.019733236,
0.02436,-4.099733236,0.02436,3.654302942,
0.02438,-2.272581765,0.02438,4.019733236,
0.0244,-4.46516353,0.0244,3.654302942,
0.02442,-2.638012059,0.02442,4.019733236,
0.02444,-2.272581765,0.02444,4.38516353,
0.02446,-1.907151471,0.02446,4.750593824,
0.02448,-2.638012059,0.02448,4.019733236,
0.0245,-1.176290883,0.0245,4.019733236,
0.02452,-1.541721177,0.02452,4.019733236,
0.02454,0.6508605883,0.02454,4.019733236,
0.02456,-0.08,0.02456,3.288872648,
0.02458,0.6508605883,0.02458,4.019733236,
0.0246,1.016290883,0.0246,4.38516353,
0.02462,1.381721177,0.02462,4.38516353,
0.02464,1.381721177,0.02464,4.019733236,
0.02466,2.843442353,0.02466,4.750593824,
0.02468,2.112581765,0.02468,4.38516353,
0.0247,2.478012059,0.0247,4.019733236,
0.02472,2.478012059,0.02472,4.019733236,
0.02474,3.574302942,0.02474,4.019733236,
0.02476,4.670593824,0.02476,3.288872648,
0.02478,2.112581765,0.02478,4.38516353,
0.0248,3.574302942,0.0248,4.38516353,
0.02482,3.574302942,0.02482,3.654302942,
0.02484,5.401454413,0.02484,4.38516353,
0.02486,3.574302942,0.02486,3.654302942,
0.02488,5.036024118,0.02488,3.654302942,
0.0249,3.939733236,0.0249,4.019733236,
0.02492,2.478012059,0.02492,4.019733236,
0.02494,2.112581765,0.02494,3.654302942,
0.02496,1.747151471,0.02496,4.750593824,
0.02498,2.112581765,0.02498,4.019733236,
0.025,0.6508605883,0.025,3.654302942,
0.02502,0.6508605883,0.02502,4.38516353,
0.02504,1.016290883,0.02504,4.019733236,
0.02506,0.2854302942,0.02506,4.019733236,
0.02508,-1.176290883,0.02508,4.019733236,
0.0251,-1.176290883,0.0251,4.38516353,
0.02512,-3.368872648,0.02512,3.654302942,
0.02514,-1.907151471,0.02514,4.38516353,
0.02516,-2.272581765,0.02516,3.654302942,
0.02518,-1.907151471,0.02518,3.654302942,
0.0252,-4.46516353,0.0252,4.38516353,
0.02522,-1.541721177,0.02522,4.38516353,
0.02524,-4.099733236,0.02524,4.38516353,
0.02526,-3.734302942,0.02526,4.750593824,
0.02528,-4.46516353,0.02528,4.38516353,
0.0253,-3.368872648,0.0253,4.38516353,
0.02532,-3.368872648,0.02532,4.750593824,
0.02534,-3.368872648,0.02534,4.38516353,
0.02536,-2.638012059,0.02536,4.38516353,
0.02538,-2.272581765,0.02538,4.38516353,
0.0254,-2.272581765,0.0254,4.38516353,
0.02542,-2.272581765,0.02542,4.38516353,
0.02544,-1.176290883,0.02544,4.750593824,
0.02546,-1.541721177,0.02546,4.019733236,
0.02548,-1.541721177,0.02548,4.019733236,
0.0255,-0.8108605883,0.0255,4.750593824,
0.02552,-0.08,0.02552,4.38516353,
0.02554,1.747151471,0.02554,4.38516353,
0.02556,1.016290883,0.02556,5.116024118,
0.02558,1.381721177,0.02558,4.019733236,
0.0256,0.2854302942,0.0256,4.38516353,
0.02562,2.478012059,0.02562,4.38516353,
0.02564,1.016290883,0.02564,4.38516353,
0.02566,2.843442353,0.02566,4.38516353,
0.02568,3.208872648,0.02568,4.750593824,
0.0257,3.574302942,0.0257,4.750593824,
0.02572,2.843442353,0.02572,4.019733236,
0.02574,3.939733236,0.02574,4.750593824,
0.02576,3.574302942,0.02576,4.38516353,
0.02578,3.208872648,0.02578,4.38516353,
0.0258,5.401454413,0.0258,4.750593824,
0.02582,3.574302942,0.02582,4.38516353,
0.02584,1.747151471,0.02584,4.38516353,
0.02586,2.843442353,0.02586,4.750593824,
0.02588,1.747151471,0.02588,4.38516353,
0.0259,1.747151471,0.0259,4.019733236,
0.02592,1.747151471,0.02592,4.750593824,
0.02594,2.112581765,0.02594,4.38516353,
0.02596,0.6508605883,0.02596,3.654302942,
0.02598,-1.541721177,0.02598,4.750593824,
0.026,-0.4454302942,0.026,3.654302942,
0.02602,-1.541721177,0.02602,4.019733236,
0.02604,-1.907151471,0.02604,4.750593824,
0.02606,-2.272581765,0.02606,4.38516353,
0.02608,-2.638012059,0.02608,4.38516353,
0.0261,-2.272581765,0.0261,5.116024118,
0.02612,-3.734302942,0.02612,4.38516353,
0.02614,-1.541721177,0.02614,4.019733236,
0.02616,-3.003442353,0.02616,4.38516353,
0.02618,-3.734302942,0.02618,4.019733236,
0.0262,-3.368872648,0.0262,4.019733236,
0.02622,-4.099733236,0.02622,4.750593824,
0.02624,-1.907151471,0.02624,4.38516353,
0.02626,-3.003442353,0.02626,4.38516353,
0.02628,-2.272581765,0.02628,4.38516353,
0.0263,-3.003442353,0.0263,4.38516353,
0.02632,-2.638012059,0.02632,4.019733236,
0.02634,-1.907151471,0.02634,5.116024118,
0.02636,-2.272581765,0.02636,4.019733236,
0.02638,-1.541721177,0.02638,4.019733236,
0.0264,0.2854302942,0.0264,4.750593824,
0.02642,-3.003442353,0.02642,4.019733236,
0.02644,-0.8108605883,0.02644,4.38516353,
0.02646,0.2854302942,0.02646,5.116024118,
0.02648,0.2854302942,0.02648,4.750593824,
0.0265,1.016290883,0.0265,4.019733236,
0.02652,1.747151471,0.02652,4.38516353,
0.02654,0.6508605883,0.02654,4.38516353,
0.02656,2.478012059,0.02656,4.38516353,
0.02658,2.843442353,0.02658,4.38516353,
0.0266,2.478012059,0.0266,4.38516353,
0.02662,1.747151471,0.02662,4.750593824,
0.02664,3.574302942,0.02664,4.750593824,
0.02666,3.574302942,0.02666,4.38516353,
0.02668,3.939733236,0.02668,2.923442353,
0.0267,3.939733236,0.0267,4.750593824,
0.02672,3.208872648,0.02672,4.38516353,
0.02674,3.574302942,0.02674,4.019733236,
0.02676,3.939733236,0.02676,5.116024118,
0.02678,1.747151471,0.02678,4.750593824,
0.0268,1.747151471,0.0268,4.38516353,
0.02682,1.016290883,0.02682,4.750593824,
0.02684,0.2854302942,0.02684,4.019733236,
0.02686,1.747151471,0.02686,4.38516353,
0.02688,1.016290883,0.02688,5.116024118,
0.0269,1.016290883,0.0269,4.38516353,
0.02692,-0.8108605883,0.02692,4.019733236,
0.02694,-0.8108605883,0.02694,4.750593824,
0.02696,-1.541721177,0.02696,4.019733236,
0.02698,-3.003442353,0.02698,3.288872648,
0.027,-1.907151471,0.027,4.38516353,
0.02702,-3.734302942,0.02702,4.019733236,
0.02704,-2.638012059,0.02704,4.019733236,
0.02706,-3.003442353,0.02706,5.116024118,
0.02708,-4.46516353,0.02708,5.846884707,
0.0271,-3.003442353,0.0271,4.019733236,
0.02712,-3.734302942,0.02712,5.116024118,
0.02714,-3.734302942,0.02714,4.750593824,
0.02716,-3.003442353,0.02716,5.116024118,
0.02718,-3.368872648,0.02718,4.019733236,
0.0272,-3.003442353,0.0272,4.38516353,
0.02722,-2.638012059,0.02722,4.38516353,
0.02724,-4.099733236,0.02724,4.750593824,
0.02726,-2.638012059,0.02726,5.116024118,
0.02728,-2.272581765,0.02728,4.38516353,
0.0273,-3.003442353,0.0273,4.38516353,
0.02732,-0.8108605883,0.02732,4.38516353,
0.02734,-2.638012059,0.02734,4.750593824,
0.02736,-0.08,0.02736,4.750593824,
0.02738,0.2854302942,0.02738,5.846884707,
0.0274,-0.08,0.0274,4.38516353,
0.02742,0.6508605883,0.02742,4.38516353,
0.02744,1.381721177,0.02744,5.116024118,
0.02746,2.478012059,0.02746,4.38516353,
0.02748,2.843442353,0.02748,4.750593824,
0.0275,2.843442353,0.0275,4.38516353,
0.02752,3.208872648,0.02752,4.38516353,
0.02754,3.939733236,0.02754,4.750593824,
0.02756,1.747151471,0.02756,4.38516353,
0.02758,5.036024118,0.02758,4.019733236,
0.0276,4.670593824,0.0276,4.38516353,
0.02762,3.574302942,0.02762,4.38516353,
0.02764,3.939733236,0.02764,4.38516353,
0.02766,4.30516353,0.02766,4.38516353,
0.02768,3.574302942,0.02768,4.019733236,
0.0277,1.381721177,0.0277,4.38516353,
0.02772,2.478012059,0.02772,4.38516353,
0.02774,1.381721177,0.02774,4.38516353,
0.02776,2.112581765,0.02776,4.38516353,
0.02778,1.381721177,0.02778,4.750593824,
0.0278,3.939733236,0.0278,4.750593824,
0.02782,0.2854302942,0.02782,4.38516353,
0.02784,-0.08,0.02784,4.019733236,
0.02786,-0.08,0.02786,4.750593824,
0.02788,-2.272581765,0.02788,4.019733236,
0.0279,-3.003442353,0.0279,4.019733236,
0.02792,-1.907151471,0.02792,5.116024118,
0.02794,-2.272581765,0.02794,4.38516353,
0.02796,-3.368872648,0.02796,3.288872648,
0.02798,-3.734302942,0.02798,5.481454413,
0.028,-2.638012059,0.028,4.019733236,
0.02802,-3.734302942,0.02802,4.38516353,
0.02804,-3.368872648,0.02804,5.481454413,
0.02806,-4.830593824,0.02806,4.38516353,
0.02808,-3.003442353,0.02808,4.019733236,
0.0281,-4.46516353,0.0281,4.38516353,
0.02812,-3.734302942,0.02812,4.019733236,
0.02814,-3.368872648,0.02814,4.750593824,
0.02816,-2.272581765,0.02816,4.38516353,
0.02818,-3.003442353,0.02818,4.019733236,
0.0282,-4.099733236,0.0282,4.38516353,
0.02822,-2.272581765,0.02822,4.38516353,
0.02824,-1.541721177,0.02824,4.019733236,
0.02826,-2.272581765,0.02826,4.750593824,
0.02828,-0.8108605883,0.02828,4.750593824,
0.0283,1.747151471,0.0283,4.38516353,
0.02832,-0.4454302942,0.02832,4.750593824,
0.02834,0.2854302942,0.02834,4.750593824,
0.02836,1.016290883,0.02836,3.654302942,
0.02838,2.112581765,0.02838,4.750593824,
0.0284,1.016290883,0.0284,4.019733236,
0.02842,2.843442353,0.02842,3.654302942,
0.02844,2.112581765,0.02844,4.750593824,
0.02846,2.843442353,0.02846,4.019733236,
0.02848,2.478012059,0.02848,4.019733236,
0.0285,2.478012059,0.0285,4.750593824,
0.02852,3.939733236,0.02852,4.38516353,
0.02854,3.574302942,0.02854,3.288872648,
0.02856,3.208872648,0.02856,4.750593824,
0.02858,2.478012059,0.02858,4.38516353,
0.0286,5.401454413,0.0286,4.019733236,
0.02862,2.478012059,0.02862,4.750593824,
0.02864,1.016290883,0.02864,4.38516353,
0.02866,2.478012059,0.02866,4.019733236,
0.02868,1.747151471,0.02868,4.38516353,
0.0287,2.112581765,0.0287,4.019733236,
0.02872,0.6508605883,0.02872,4.38516353,
0.02874,1.747151471,0.02874,4.750593824,
0.02876,2.843442353,0.02876,4.38516353,
0.02878,-0.08,0.02878,4.019733236,
0.0288,-1.907151471,0.0288,5.116024118,
0.02882,-1.176290883,0.02882,4.019733236,
0.02884,-1.541721177,0.02884,4.38516353,
0.02886,-1.907151471,0.02886,4.750593824,
0.02888,-2.638012059,0.02888,4.019733236,
0.0289,-3.734302942,0.0289,3.654302942,
0.02892,-3.003442353,0.02892,4.750593824,
0.02894,-3.003442353,0.02894,4.38516353,
0.02896,-3.368872648,0.02896,3.654302942,
0.02898,-4.46516353,0.02898,5.116024118,
0.029,-3.368872648,0.029,4.750593824,
0.02902,-3.368872648,0.02902,3.654302942,
0.02904,-3.368872648,0.02904,4.750593824,
0.02906,-3.734302942,0.02906,4.38516353,
0.02908,-3.368872648,0.02908,4.019733236,
0.0291,-1.541721177,0.0291,4.750593824,
0.02912,-2.272581765,0.02912,4.38516353,
0.02914,-3.003442353,0.02914,4.38516353,
0.02916,-1.907151471,0.02916,5.116024118,
0.02918,-1.541721177,0.02918,4.750593824,
0.0292,-1.176290883,0.0292,4.38516353,
0.02922,-0.4454302942,0.02922,4.750593824,
0.02924,-0.8108605883,0.02924,4.019733236,
0.02926,0.6508605883,0.02926,4.019733236,
0.02928,-0.08,0.02928,5.116024118,
0.0293,-0.4454302942,0.0293,4.38516353,
0.02932,2.112581765,0.02932,4.019733236,
0.02934,1.381721177,0.02934,4.750593824,
0.02936,1.747151471,0.02936,4.38516353,
0.02938,2.843442353,0.02938,4.38516353,
0.0294,3.208872648,0.0294,5.116024118,
0.02942,2.843442353,0.02942,4.38516353,
0.02944,3.208872648,0.02944,3.654302942,
0.02946,2.843442353,0.02946,4.38516353,
0.02948,3.939733236,0.02948,4.38516353,
0.0295,3.939733236,0.0295,4.019733236,
0.02952,3.939733236,0.02952,4.38516353,
0.02954,2.478012059,0.02954,4.38516353,
0.02956,2.478012059,0.02956,4.019733236,
0.02958,1.747151471,0.02958,4.750593824,
0.0296,3.208872648,0.0296,4.38516353,
0.02962,3.208872648,0.02962,4.019733236,
0.02964,1.381721177,0.02964,4.750593824,
0.02966,0.2854302942,0.02966,4.019733236,
0.02968,0.2854302942,0.02968,4.019733236,
0.0297,-1.541721177,0.0297,5.116024118,
0.02972,-0.4454302942,0.02972,4.38516353,
0.02974,-1.176290883,0.02974,4.019733236,
0.02976,-0.4454302942,0.02976,4.750593824,
0.02978,-1.907151471,0.02978,4.019733236,
0.0298,-3.368872648,0.0298,2.558012059,
0.02982,-3.003442353,0.02982,4.750593824,
0.02984,-2.638012059,0.02984,4.750593824,
0.02986,-3.003442353,0.02986,4.019733236,
0.02988,-3.003442353,0.02988,4.750593824,
0.0299,-3.368872648,0.0299,4.38516353,
0.02992,-4.46516353,0.02992,4.019733236,
0.02994,-4.46516353,0.02994,4.750593824,
0.02996,-4.099733236,0.02996,4.38516353,
0.02998,-4.099733236,0.02998,4.019733236,
0.03,-2.638012059,0.03,5.846884707,
0.03002,-3.368872648,0.03002,4.38516353,
0.03004,-2.272581765,0.03004,4.38516353,
0.03006,-2.272581765,0.03006,4.750593824,
0.03008,-2.272581765,0.03008,4.38516353,
0.0301,-4.46516353,0.0301,3.654302942,
0.03012,-1.176290883,0.03012,4.38516353,
0.03014,-1.176290883,0.03014,4.38516353,
0.03016,-0.08,0.03016,4.38516353,
0.03018,-0.08,0.03018,4.750593824,
0.0302,-0.08,0.0302,4.38516353,
0.03022,1.747151471,0.03022,4.750593824,
0.03024,1.016290883,0.03024,4.38516353,
0.03026,1.747151471,0.03026,4.750593824,
0.03028,2.112581765,0.03028,4.38516353,
0.0303,5.401454413,0.0303,5.481454413,
0.03032,2.843442353,0.03032,4.38516353,
0.03034,3.939733236,0.03034,4.750593824,
0.03036,3.208872648,0.03036,4.750593824,
0.03038,1.381721177,0.03038,4.750593824,
0.0304,4.670593824,0.0304,2.558012059,
0.03042,4.670593824,0.03042,4.750593824,
0.03044,2.843442353,0.03044,4.38516353,
0.03046,3.574302942,0.03046,4.38516353,
0.03048,3.939733236,0.03048,4.750593824,
0.0305,1.381721177,0.0305,5.481454413,
0.03052,3.939733236,0.03052,4.38516353,
0.03054,1.747151471,0.03054,4.750593824,
0.03056,0.2854302942,0.03056,4.38516353,
0.03058,2.112581765,0.03058,4.38516353,
0.0306,-0.8108605883,0.0306,5.846884707,
0.03062,-1.907151471,0.03062,4.750593824,
0.03064,-0.08,0.03064,4.38516353,
0.03066,-0.8108605883,0.03066,4.750593824,
0.03068,-1.176290883,0.03068,4.38516353,
0.0307,1.381721177,0.0307,3.288872648,
0.03072,-3.003442353,0.03072,4.38516353,
0.03074,-2.638012059,0.03074,4.38516353,
0.03076,-3.003442353,0.03076,4.019733236,
0.03078,-1.541721177,0.03078,4.750593824,
0.0308,-3.368872648,0.0308,3.288872648,
0.03082,-2.272581765,0.03082,4.38516353,
0.03084,-3.368872648,0.03084,5.116024118,
0.03086,-5.561454413,0.03086,4.38516353,
0.03088,-3.368872648,0.03088,4.38516353,
0.0309,-3.003442353,0.0309,4.38516353,
0.03092,-3.003442353,0.03092,4.38516353,
0.03094,-1.541721177,0.03094,4.019733236,
0.03096,-3.003442353,0.03096,4.750593824,
0.03098,-3.003442353,0.03098,4.38516353,
0.031,-0.8108605883,0.031,4.750593824,
0.03102,-0.4454302942,0.03102,4.750593824,
0.03104,-1.541721177,0.03104,4.750593824,
0.03106,-1.176290883,0.03106,5.481454413,
0.03108,-2.272581765,0.03108,4.38516353,
0.0311,-0.08,0.0311,5.116024118,
0.03112,-0.4454302942,0.03112,4.019733236,
0.03114,0.2854302942,0.03114,4.750593824,
0.03116,0.6508605883,0.03116,4.750593824,
0.03118,1.381721177,0.03118,4.019733236,
0.0312,1.381721177,0.0312,3.654302942,
0.03122,2.478012059,0.03122,4.38516353,
0.03124,2.843442353,0.03124,4.750593824,
0.03126,4.30516353,0.03126,4.750593824,
0.03128,2.478012059,0.03128,4.38516353,
0.0313,3.939733236,0.0313,5.481454413,
0.03132,2.843442353,0.03132,4.750593824,
0.03134,3.574302942,0.03134,4.38516353,
0.03136,2.843442353,0.03136,4.38516353,
0.03138,2.478012059,0.03138,5.116024118,
0.0314,3.208872648,0.0314,4.019733236,
0.03142,3.939733236,0.03142,4.750593824,
0.03144,3.939733236,0.03144,4.750593824,
0.03146,2.112581765,0.03146,4.38516353,
0.03148,2.478012059,0.03148,4.019733236,
0.0315,2.112581765,0.0315,4.750593824,
0.03152,0.6508605883,0.03152,4.38516353,
0.03154,1.016290883,0.03154,4.750593824,
0.03156,0.2854302942,0.03156,4.750593824,
0.03158,-0.8108605883,0.03158,4.750593824,
0.0316,-0.8108605883,0.0316,4.38516353,
0.03162,-0.08,0.03162,4.750593824,
0.03164,0.2854302942,0.03164,4.38516353,
0.03166,-1.176290883,0.03166,4.019733236,
0.03168,-2.272581765,0.03168,4.750593824,
0.0317,-3.003442353,0.0317,4.750593824,
0.03172,-4.46516353,0.03172,4.019733236,
0.03174,-2.638012059,0.03174,4.750593824,
0.03176,-3.368872648,0.03176,4.38516353,
0.03178,-3.003442353,0.03178,4.38516353,
0.0318,-3.003442353,0.0318,4.750593824,
0.03182,-5.561454413,0.03182,4.38516353,
0.03184,-4.099733236,0.03184,4.38516353,
0.03186,-3.003442353,0.03186,5.116024118,
0.03188,-4.099733236,0.03188,4.750593824,
0.0319,-2.272581765,0.0319,4.019733236,
0.03192,-3.734302942,0.03192,3.654302942,
0.03194,-1.907151471,0.03194,4.750593824,
0.03196,-0.4454302942,0.03196,4.38516353,
0.03198,-1.907151471,0.03198,4.38516353,
0.032,-0.08,0.032,4.019733236,
0.03202,-1.907151471,0.03202,4.38516353,
0.03204,-0.4454302942,0.03204,4.38516353,
0.03206,1.016290883,0.03206,4.38516353,
0.03208,1.747151471,0.03208,4.019733236,
0.0321,1.016290883,0.0321,4.019733236,
0.03212,1.381721177,0.03212,4.38516353,
0.03214,2.478012059,0.03214,4.38516353,
0.03216,1.747151471,0.03216,3.654302942,
0.03218,3.208872648,0.03218,4.019733236,
0.0322,3.574302942,0.0322,4.38516353,
0.03222,2.112581765,0.03222,4.019733236,
0.03224,3.939733236,0.03224,4.019733236,
0.03226,4.670593824,0.03226,4.019733236,
0.03228,3.208872648,0.03228,4.019733236,
0.0323,3.208872648,0.0323,4.38516353,
0.03232,2.843442353,0.03232,3.654302942,
0.03234,3.574302942,0.03234,4.38516353,
0.03236,2.843442353,0.03236,5.116024118,
0.03238,3.939733236,0.03238,4.38516353,
0.0324,2.843442353,0.0324,4.019733236,
0.03242,2.478012059,0.03242,4.38516353,
0.03244,1.381721177,0.03244,4.019733236,
0.03246,1.381721177,0.03246,3.654302942,
0.03248,3.939733236,0.03248,4.38516353,
0.0325,1.016290883,0.0325,4.38516353,
0.03252,-1.176290883,0.03252,4.750593824,
0.03254,-0.8108605883,0.03254,4.38516353,
0.03256,-0.08,0.03256,4.019733236,
0.03258,-1.541721177,0.03258,4.38516353,
0.0326,-1.541721177,0.0326,4.38516353,
0.03262,-3.003442353,0.03262,4.38516353,
0.03264,-3.734302942,0.03264,4.019733236,
0.03266,-3.003442353,0.03266,4.750593824,
0.03268,-3.003442353,0.03268,4.38516353,
0.0327,-3.003442353,0.0327,4.38516353,
0.03272,-3.734302942,0.03272,4.38516353,
0.03274,-4.830593824,0.03274,4.019733236,
0.03276,-3.003442353,0.03276,4.38516353,
0.03278,-4.099733236,0.03278,4.750593824,
0.0328,-4.099733236,0.0328,4.38516353,
0.03282,-3.003442353,0.03282,4.750593824,
0.03284,-4.46516353,0.03284,4.38516353,
0.03286,-2.638012059,0.03286,4.750593824,
0.03288,-1.907151471,0.03288,4.750593824,
0.0329,-1.176290883,0.0329,4.750593824,
0.03292,-1.541721177,0.03292,4.019733236,
0.03294,2.112581765,0.03294,4.750593824,
0.03296,-0.08,0.03296,4.750593824,
0.03298,0.2854302942,0.03298,4.019733236,
0.033,1.747151471,0.033,4.38516353,
0.03302,0.2854302942,0.03302,4.38516353,
0.03304,1.747151471,0.03304,4.38516353,
0.03306,1.747151471,0.03306,4.750593824,
0.03308,3.208872648,0.03308,4.38516353,
0.0331,4.30516353,0.0331,4.019733236,
0.03312,2.843442353,0.03312,5.116024118,
0.03314,3.939733236,0.03314,4.750593824,
0.03316,2.112581765,0.03316,4.38516353,
0.03318,3.939733236,0.03318,4.750593824,
0.0332,4.30516353,0.0332,4.38516353,
0.03322,5.401454413,0.03322,4.750593824,
0.03324,4.30516353,0.03324,4.38516353,
0.03326,3.208872648,0.03326,4.750593824,
0.03328,2.478012059,0.03328,4.019733236,
0.0333,3.208872648,0.0333,5.116024118,
0.03332,2.112581765,0.03332,4.019733236,
0.03334,2.478012059,0.03334,4.38516353,
0.03336,2.843442353,0.03336,4.750593824,
0.03338,0.2854302942,0.03338,4.750593824,
0.0334,1.747151471,0.0334,4.019733236,
0.03342,2.843442353,0.03342,4.750593824,
0.03344,-0.4454302942,0.03344,4.38516353,
0.03346,0.2854302942,0.03346,4.38516353,
0.03348,-1.541721177,0.03348,4.750593824,
0.0335,-1.907151471,0.0335,4.750593824,
0.03352,-2.638012059,0.03352,4.750593824,
0.03354,-1.907151471,0.03354,4.38516353,
0.03356,-2.638012059,0.03356,4.750593824,
0.03358,-3.368872648,0.03358,4.38516353,
0.0336,-2.638012059,0.0336,4.019733236,
0.03362,-4.099733236,0.03362,5.481454413,
0.03364,-3.734302942,0.03364,4.019733236,
0.03366,-4.46516353,0.03366,4.750593824,
0.03368,-4.099733236,0.03368,4.750593824,
0.0337,-4.099733236,0.0337,4.38516353,
0.03372,-3.003442353,0.03372,3.288872648,
0.03374,-4.099733236,0.03374,4.38516353,
0.03376,-4.099733236,0.03376,4.019733236,
0.03378,-3.368872648,0.03378,4.750593824,
0.0338,-3.003442353,0.0338,4.38516353,
0.03382,-2.272581765,0.03382,4.750593824,
0.03384,-1.176290883,0.03384,4.38516353,
0.03386,-1.541721177,0.03386,4.38516353,
0.03388,-1.541721177,0.03388,4.38516353,
0.0339,0.2854302942,0.0339,4.38516353,
0.03392,0.6508605883,0.03392,4.38516353,
0.03394,1.016290883,0.03394,4.38516353,
0.03396,1.381721177,0.03396,4.750593824,
0.03398,1.016290883,0.03398,4.38516353,
0.034,4.670593824,0.034,4.019733236,
0.03402,2.843442353,0.03402,4.019733236,
0.03404,2.112581765,0.03404,4.38516353,
0.03406,3.574302942,0.03406,4.38516353,
0.03408,3.208872648,0.03408,4.750593824,
0.0341,3.208872648,0.0341,4.38516353,
0.03412,3.939733236,0.03412,5.116024118,
0.03414,3.939733236,0.03414,5.116024118,
0.03416,2.112581765,0.03416,4.38516353,
0.03418,3.939733236,0.03418,4.019733236,
0.0342,3.208872648,0.0342,4.38516353,
0.03422,0.2854302942,0.03422,3.654302942,
0.03424,1.747151471,0.03424,4.38516353,
0.03426,3.939733236,0.03426,4.750593824,
0.03428,2.112581765,0.03428,4.38516353,
0.0343,2.478012059,0.0343,4.019733236,
0.03432,0.2854302942,0.03432,5.116024118,
0.03434,-0.8108605883,0.03434,4.38516353,
0.03436,0.2854302942,0.03436,4.019733236,
0.03438,0.2854302942,0.03438,4.750593824,
0.0344,-1.176290883,0.0344,4.750593824,
0.03442,-1.907151471,0.03442,5.116024118,
0.03444,1.381721177,0.03444,4.750593824,
0.03446,-2.272581765,0.03446,4.38516353,
0.03448,-6.292315001,0.03448,4.019733236,
0.0345,-3.368872648,0.0345,4.750593824,
0.03452,-3.734302942,0.03452,4.019733236,
0.03454,-4.830593824,0.03454,4.38516353,
0.03456,-3.003442353,0.03456,4.750593824,
0.03458,-4.830593824,0.03458,4.750593824,
0.0346,-2.272581765,0.0346,4.38516353,
0.03462,-3.734302942,0.03462,5.116024118,
0.03464,-4.099733236,0.03464,4.750593824,
0.03466,-3.368872648,0.03466,4.38516353,
0.03468,-0.08,0.03468,4.38516353,
0.0347,-3.734302942,0.0347,4.750593824,
0.03472,-3.368872648,0.03472,4.38516353,
0.03474,-1.541721177,0.03474,4.38516353,
0.03476,-2.272581765,0.03476,3.654302942,
0.03478,-0.4454302942,0.03478,4.38516353,
0.0348,-1.907151471,0.0348,4.750593824,
0.03482,1.747151471,0.03482,4.019733236,
0.03484,1.381721177,0.03484,4.38516353,
0.03486,1.381721177,0.03486,4.750593824,
0.03488,2.843442353,0.03488,5.116024118,
0.0349,2.843442353,0.0349,4.38516353,
0.03492,3.574302942,0.03492,4.38516353,
0.03494,3.208872648,0.03494,4.019733236,
0.03496,2.843442353,0.03496,4.38516353,
0.03498,3.208872648,0.03498,4.750593824,
0.035,3.208872648,0.035,4.019733236,
0.03502,2.843442353,0.03502,4.750593824,
0.03504,3.208872648,0.03504,4.750593824,
0.03506,5.401454413,0.03506,4.019733236,
0.03508,4.30516353,0.03508,4.750593824,
0.0351,5.401454413,0.0351,4.750593824,
0.03512,3.208872648,0.03512,4.019733236,
0.03514,2.478012059,0.03514,4.019733236,
0.03516,2.843442353,0.03516,4.019733236,
0.03518,2.843442353,0.03518,4.019733236,
0.0352,2.478012059,0.0352,4.38516353,
0.03522,2.478012059,0.03522,4.019733236,
0.03524,2.112581765,0.03524,4.019733236,
0.03526,1.381721177,0.03526,4.750593824,
0.03528,2.478012059,0.03528,4.38516353,
0.0353,-0.08,0.0353,3.654302942,
0.03532,-0.08,0.03532,4.38516353,
0.03534,0.2854302942,0.03534,4.38516353,
0.03536,-1.176290883,0.03536,3.654302942,
0.03538,-1.541721177,0.03538,4.750593824,
0.0354,-1.907151471,0.0354,4.019733236,
0.03542,-3.734302942,0.03542,4.019733236,
0.03544,-2.638012059,0.03544,4.38516353,
0.03546,-2.272581765,0.03546,4.38516353,
0.03548,-3.003442353,0.03548,3.654302942,
0.0355,-3.734302942,0.0355,4.019733236,
0.03552,-3.368872648,0.03552,4.38516353,
0.03554,-5.561454413,0.03554,3.654302942,
0.03556,-3.003442353,0.03556,4.019733236,
0.03558,-3.734302942,0.03558,4.019733236,
0.0356,-1.907151471,0.0356,4.019733236,
0.03562,-3.003442353,0.03562,4.019733236,
0.03564,-3.003442353,0.03564,4.38516353,
0.03566,-2.638012059,0.03566,4.019733236,
0.03568,0.6508605883,0.03568,3.654302942,
0.0357,-0.8108605883,0.0357,4.019733236,
0.03572,-0.08,0.03572,4.019733236,
0.03574,-0.08,0.03574,4.38516353,
0.03576,0.6508605883,0.03576,4.38516353,
0.03578,0.2854302942,0.03578,3.654302942,
0.0358,0.2854302942,0.0358,4.750593824,
0.03582,0.6508605883,0.03582,4.019733236,
0.03584,2.112581765,0.03584,4.019733236,
0.03586,3.208872648,0.03586,4.38516353,
0.03588,3.939733236,0.03588,4.38516353,
0.0359,2.112581765,0.0359,4.019733236,
0.03592,3.574302942,0.03592,4.38516353,
0.03594,3.574302942,0.03594,4.019733236,
0.03596,2.843442353,0.03596,4.019733236,
0.03598,2.112581765,0.03598,4.38516353,
0.036,3.939733236,0.036,4.019733236,
0.03602,4.670593824,0.03602,4.019733236,
0.03604,2.843442353,0.03604,4.38516353,
0.03606,4.670593824,0.03606,4.019733236,
0.03608,2.843442353,0.03608,4.019733236,
0.0361,4.30516353,0.0361,4.019733236,
0.03612,2.478012059,0.03612,5.116024118,
0.03614,0.2854302942,0.03614,4.38516353,
0.03616,1.747151471,0.03616,3.654302942,
0.03618,2.112581765,0.03618,4.019733236,
0.0362,1.016290883,0.0362,3.654302942,
0.03622,1.016290883,0.03622,4.019733236,
0.03624,0.2854302942,0.03624,4.38516353,
0.03626,-1.907151471,0.03626,3.654302942,
0.03628,-1.907151471,0.03628,4.750593824,
0.0363,-0.8108605883,0.0363,4.38516353,
0.03632,-2.638012059,0.03632,3.654302942,
0.03634,-0.08,0.03634,4.750593824,
0.03636,-1.176290883,0.03636,4.019733236,
0.03638,-4.46516353,0.03638,3.654302942,
0.0364,-2.272581765,0.0364,4.019733236,
0.03642,-3.368872648,0.03642,4.750593824,
0.03644,-3.368872648,0.03644,3.288872648,
0.03646,-4.099733236,0.03646,4.38516353,
0.03648,-1.907151471,0.03648,4.38516353,
0.0365,-4.099733236,0.0365,3.654302942,
0.03652,-3.734302942,0.03652,4.38516353,
0.03654,-3.368872648,0.03654,4.750593824,
0.03656,-3.003442353,0.03656,4.019733236,
0.03658,-4.830593824,0.03658,4.019733236,
0.0366,-1.907151471,0.0366,4.019733236,
0.03662,-2.638012059,0.03662,4.019733236,
0.03664,-2.638012059,0.03664,3.654302942,
0.03666,-1.176290883,0.03666,4.38516353,
0.03668,-0.8108605883,0.03668,4.750593824,
0.0367,1.016290883,0.0367,4.38516353,
0.03672,0.2854302942,0.03672,4.38516353,
0.03674,0.2854302942,0.03674,5.116024118,
0.03676,1.016290883,0.03676,4.019733236,
0.03678,1.747151471,0.03678,4.019733236,
0.0368,2.112581765,0.0368,4.750593824,
0.03682,2.112581765,0.03682,4.38516353,
0.03684,2.112581765,0.03684,5.116024118,
0.03686,3.574302942,0.03686,4.38516353,
0.03688,3.208872648,0.03688,4.38516353,
0.0369,3.208872648,0.0369,4.38516353,
0.03692,6.132315001,0.03692,4.750593824,
0.03694,3.574302942,0.03694,3.288872648,
0.03696,3.939733236,0.03696,4.019733236,
0.03698,2.478012059,0.03698,4.750593824,
0.037,2.112581765,0.037,4.38516353,
0.03702,2.843442353,0.03702,4.019733236,
0.03704,3.208872648,0.03704,5.116024118,
0.03706,2.478012059,0.03706,4.019733236,
0.03708,2.112581765,0.03708,4.019733236,
0.0371,2.112581765,0.0371,4.750593824,
0.03712,0.6508605883,0.03712,4.38516353,
0.03714,-0.8108605883,0.03714,5.846884707,
0.03716,-0.08,0.03716,4.750593824,
0.03718,-0.08,0.03718,4.38516353,
0.0372,-0.4454302942,0.0372,4.019733236,
0.03722,-1.541721177,0.03722,4.38516353,
0.03724,-1.541721177,0.03724,5.116024118,
0.03726,-3.003442353,0.03726,4.019733236,
0.03728,-2.638012059,0.03728,5.116024118,
0.0373,-3.734302942,0.0373,4.38516353,
0.03732,-3.368872648,0.03732,4.019733236,
0.03734,-2.638012059,0.03734,2.923442353,
0.03736,-3.734302942,0.03736,4.019733236,
0.03738,-4.099733236,0.03738,4.750593824,
0.0374,-3.734302942,0.0374,5.481454413,
0.03742,-4.46516353,0.03742,4.750593824,
0.03744,-3.003442353,0.03744,3.288872648,
0.03746,0.6508605883,0.03746,4.750593824,
0.03748,-3.368872648,0.03748,4.38516353,
0.0375,-3.003442353,0.0375,4.38516353,
0.03752,-2.638012059,0.03752,4.750593824,
0.03754,-3.734302942,0.03754,5.846884707,
0.03756,-1.907151471,0.03756,4.019733236,
0.03758,-1.541721177,0.03758,4.38516353,
0.0376,-0.4454302942,0.0376,4.019733236,
0.03762,-0.08,0.03762,5.116024118,
0.03764,-0.8108605883,0.03764,3.654302942,
0.03766,1.016290883,0.03766,4.38516353,
0.03768,0.2854302942,0.03768,4.38516353,
0.0377,1.747151471,0.0377,4.019733236,
0.03772,1.016290883,0.03772,4.38516353,
0.03774,2.843442353,0.03774,4.38516353,
0.03776,3.208872648,0.03776,4.38516353,
0.03778,2.843442353,0.03778,4.019733236,
0.0378,2.478012059,0.0378,4.38516353,
0.03782,3.939733236,0.03782,4.019733236,
0.03784,3.939733236,0.03784,5.116024118,
0.03786,2.843442353,0.03786,4.38516353,
0.03788,4.30516353,0.03788,4.38516353,
0.0379,3.574302942,0.0379,4.019733236,
0.03792,3.208872648,0.03792,4.38516353,
0.03794,3.208872648,0.03794,4.750593824,
0.03796,2.478012059,0.03796,4.38516353,
0.03798,3.208872648,0.03798,4.750593824,
0.038,1.381721177,0.038,4.750593824,
0.03802,2.478012059,0.03802,4.38516353,
0.03804,1.381721177,0.03804,3.654302942,
0.03806,-1.541721177,0.03806,4.38516353,
0.03808,-1.541721177,0.03808,4.38516353,
0.0381,-0.08,0.0381,4.750593824,
0.03812,-1.541721177,0.03812,4.750593824,
0.03814,-1.176290883,0.03814,4.750593824,
0.03816,-1.907151471,0.03816,4.38516353,
0.03818,-2.272581765,0.03818,4.750593824,
0.0382,-1.541721177,0.0382,4.38516353,
0.03822,-3.003442353,0.03822,4.750593824,
0.03824,-3.003442353,0.03824,4.750593824,
0.03826,-3.003442353,0.03826,4.019733236,
0.03828,-3.003442353,0.03828,4.38516353,
0.0383,-1.176290883,0.0383,5.116024118,
0.03832,-3.003442353,0.03832,4.38516353,
0.03834,-1.541721177,0.03834,4.019733236,
0.03836,-2.638012059,0.03836,4.38516353,
0.03838,-3.368872648,0.03838,4.38516353,
0.0384,-1.907151471,0.0384,4.750593824,
0.03842,-3.368872648,0.03842,4.750593824,
0.03844,-3.368872648,0.03844,4.38516353,
0.03846,-2.272581765,0.03846,4.750593824,
0.03848,-1.176290883,0.03848,4.750593824,
0.0385,-1.907151471,0.0385,4.38516353,
0.03852,-1.176290883,0.03852,4.750593824,
0.03854,-1.176290883,0.03854,4.38516353,
0.03856,-0.8108605883,0.03856,4.38516353,
0.03858,-0.08,0.03858,4.38516353,
0.0386,1.016290883,0.0386,4.38516353,
0.03862,-0.08,0.03862,4.38516353,
0.03864,0.6508605883,0.03864,5.116024118,
0.03866,2.478012059,0.03866,4.019733236,
0.03868,3.208872648,0.03868,5.116024118,
0.0387,2.478012059,0.0387,4.38516353,
0.03872,3.208872648,0.03872,4.38516353,
0.03874,2.478012059,0.03874,4.750593824,
0.03876,3.939733236,0.03876,4.38516353,
0.03878,3.939733236,0.03878,4.019733236,
0.0388,2.843442353,0.0388,4.750593824,
0.03882,3.574302942,0.03882,4.38516353,
0.03884,3.939733236,0.03884,4.38516353,
0.03886,3.208872648,0.03886,4.750593824,
0.03888,2.843442353,0.03888,4.38516353,
0.0389,2.478012059,0.0389,4.38516353,
0.03892,2.112581765,0.03892,5.116024118,
0.03894,2.112581765,0.03894,4.38516353,
0.03896,3.939733236,0.03896,4.38516353,
0.03898,1.381721177,0.03898,4.750593824,
0.039,-0.08,0.039,4.750593824,
0.03902,0.6508605883,0.03902,4.019733236,
0.03904,-0.08,0.03904,4.750593824,
0.03906,-1.541721177,0.03906,4.750593824,
0.03908,-0.8108605883,0.03908,4.019733236,
0.0391,-1.907151471,0.0391,4.750593824,
0.03912,-1.907151471,0.03912,4.38516353,
0.03914,-2.638012059,0.03914,4.38516353,
0.03916,-1.907151471,0.03916,4.38516353,
0.03918,-4.46516353,0.03918,4.750593824,
0.0392,-4.46516353,0.0392,4.38516353,
0.03922,-3.734302942,0.03922,4.38516353,
0.03924,-3.003442353,0.03924,4.38516353,
0.03926,-3.003442353,0.03926,4.38516353,
0.03928,-4.099733236,0.03928,4.750593824,
0.0393,-4.099733236,0.0393,4.38516353,
0.03932,-2.638012059,0.03932,4.019733236,
0.03934,-3.368872648,0.03934,4.750593824,
0.03936,-1.907151471,0.03936,4.38516353,
0.03938,-2.272581765,0.03938,3.654302942,
0.0394,-1.541721177,0.0394,4.750593824,
0.03942,-2.272581765,0.03942,4.019733236,
0.03944,-0.8108605883,0.03944,3.654302942,
0.03946,-1.176290883,0.03946,4.38516353,
0.03948,-0.4454302942,0.03948,4.750593824,
0.0395,-1.176290883,0.0395,4.38516353,
0.03952,1.016290883,0.03952,4.38516353,
0.03954,0.6508605883,0.03954,4.38516353,
0.03956,0.6508605883,0.03956,4.38516353,
0.03958,1.747151471,0.03958,4.750593824,
0.0396,1.381721177,0.0396,4.38516353,
0.03962,2.478012059,0.03962,4.38516353,
0.03964,3.574302942,0.03964,4.38516353,
0.03966,4.670593824,0.03966,4.38516353,
0.03968,3.939733236,0.03968,4.38516353,
0.0397,3.939733236,0.0397,4.38516353,
0.03972,4.30516353,0.03972,4.38516353,
0.03974,4.670593824,0.03974,4.750593824,
0.03976,3.208872648,0.03976,4.750593824,
0.03978,2.843442353,0.03978,4.750593824,
0.0398,4.30516353,0.0398,4.38516353,
0.03982,3.208872648,0.03982,4.38516353,
0.03984,1.016290883,0.03984,4.750593824,
0.03986,5.036024118,0.03986,4.750593824,
0.03988,2.478012059,0.03988,4.38516353,
0.0399,0.6508605883,0.0399,4.38516353,
0.03992,1.381721177,0.03992,4.019733236,
0.03994,0.2854302942,0.03994,4.38516353,
0.03996,-0.08,0.03996,4.38516353,
0.03998,-0.8108605883,0.03998,4.38516353,
0.04,1.016290883,0.04,4.750593824,
0.04002,-1.541721177,0.04002,4.38516353,
0.04004,-2.272581765,0.04004,4.38516353,
0.04006,-2.272581765,0.04006,4.019733236,
0.04008,-3.003442353,0.04008,4.019733236,
0.0401,-2.272581765,0.0401,4.38516353,
0.04012,-3.003442353,0.04012,4.750593824,
0.04014,-2.638012059,0.04014,4.38516353,
0.04016,-3.368872648,0.04016,5.116024118,
0.04018,-3.368872648,0.04018,4.750593824,
0.0402,-4.46516353,0.0402,4.38516353,
0.04022,-3.368872648,0.04022,4.38516353,
0.04024,-1.541721177,0.04024,4.750593824,
0.04026,-3.003442353,0.04026,4.38516353,
0.04028,-2.638012059,0.04028,4.019733236,
0.0403,-3.003442353,0.0403,4.750593824,
0.04032,-3.368872648,0.04032,4.750593824,
0.04034,-1.907151471,0.04034,4.38516353,
0.04036,-1.907151471,0.04036,4.019733236,
0.04038,-2.272581765,0.04038,4.750593824,
0.0404,0.6508605883,0.0404,4.750593824,
0.04042,0.2854302942,0.04042,4.38516353,
0.04044,-0.4454302942,0.04044,4.38516353,
0.04046,0.2854302942,0.04046,5.481454413,
0.04048,1.381721177,0.04048,4.38516353,
0.0405,1.747151471,0.0405,4.019733236,
0.04052,2.112581765,0.04052,4.750593824,
0.04054,3.208872648,0.04054,4.38516353,
0.04056,-0.8108605883,0.04056,3.288872648,
0.04058,3.574302942,0.04058,4.38516353,
0.0406,4.30516353,0.0406,4.38516353,
0.04062,2.478012059,0.04062,3.654302942,
0.04064,4.670593824,0.04064,4.019733236,
0.04066,4.30516353,0.04066,2.923442353,
0.04068,2.112581765,0.04068,4.019733236,
0.0407,4.30516353,0.0407,4.750593824,
0.04072,4.30516353,0.04072,4.38516353,
0.04074,3.574302942,0.04074,4.019733236,
0.04076,3.208872648,0.04076,5.116024118,
0.04078,2.843442353,0.04078,4.38516353,
0.0408,1.747151471,0.0408,4.019733236,
0.04082,2.112581765,0.04082,4.38516353,
0.04084,2.112581765,0.04084,4.019733236,
0.04086,0.2854302942,0.04086,3.654302942,
0.04088,-0.08,0.04088,4.38516353,
0.0409,0.2854302942,0.0409,4.38516353,
0.04092,-0.8108605883,0.04092,4.019733236,
0.04094,-0.08,0.04094,4.38516353,
0.04096,-0.08,0.04096,4.38516353,
0.04098,-4.46516353,0.04098,4.019733236,
0.041,-1.541721177,0.041,4.019733236,
0.04102,-1.907151471,0.04102,4.38516353,
0.04104,-2.272581765,0.04104,3.288872648,
0.04106,-2.272581765,0.04106,4.750593824,
0.04108,-0.8108605883,0.04108,4.019733236,
0.0411,-3.734302942,0.0411,3.654302942,
0.04112,-3.734302942,0.04112,4.38516353,
0.04114,-3.734302942,0.04114,4.38516353,
0.04116,-3.734302942,0.04116,3.654302942,
0.04118,-3.003442353,0.04118,4.019733236,
0.0412,-3.003442353,0.0412,4.750593824,
0.04122,-3.368872648,0.04122,4.019733236,
0.04124,-2.638012059,0.04124,5.481454413,
0.04126,-1.907151471,0.04126,3.654302942,
0.04128,-3.734302942,0.04128,3.654302942,
0.0413,-1.176290883,0.0413,4.38516353,
0.04132,-0.08,0.04132,4.38516353,
0.04134,-1.176290883,0.04134,4.019733236,
0.04136,0.2854302942,0.04136,4.750593824,
0.04138,1.381721177,0.04138,4.38516353,
0.0414,0.2854302942,0.0414,4.019733236,
0.04142,1.747151471,0.04142,4.38516353,
0.04144,2.843442353,0.04144,4.38516353,
0.04146,1.747151471,0.04146,4.750593824,
0.04148,3.939733236,0.04148,4.38516353,
0.0415,2.112581765,0.0415,4.019733236,
0.04152,2.843442353,0.04152,4.019733236,
0.04154,3.574302942,0.04154,4.38516353,
0.04156,4.30516353,0.04156,4.38516353,
0.04158,3.208872648,0.04158,4.019733236,
0.0416,3.574302942,0.0416,4.019733236,
0.04162,3.208872648,0.04162,4.38516353,
0.04164,3.574302942,0.04164,4.38516353,
0.04166,4.30516353,0.04166,4.750593824,
0.04168,5.036024118,0.04168,4.019733236,
0.0417,2.112581765,0.0417,4.019733236,
0.04172,2.478012059,0.04172,4.38516353,
0.04174,2.843442353,0.04174,4.019733236,
0.04176,1.747151471,0.04176,4.38516353,
0.04178,2.843442353,0.04178,4.750593824,
0.0418,1.016290883,0.0418,4.38516353,
0.04182,1.016290883,0.04182,4.019733236,
0.04184,0.2854302942,0.04184,4.38516353,
0.04186,-0.08,0.04186,4.019733236,
0.04188,-0.4454302942,0.04188,4.019733236,
0.0419,-1.176290883,0.0419,4.019733236,
0.04192,-2.272581765,0.04192,4.019733236,
0.04194,-1.907151471,0.04194,4.019733236,
0.04196,-3.368872648,0.04196,4.38516353,
0.04198,-3.368872648,0.04198,4.019733236,
0.042,-5.196024118,0.042,4.019733236,
0.04202,-5.196024118,0.04202,4.019733236,
0.04204,-4.099733236,0.04204,4.019733236,
0.04206,-2.638012059,0.04206,4.019733236,
0.04208,-2.272581765,0.04208,4.38516353,
0.0421,-2.272581765,0.0421,4.38516353,
0.04212,-3.368872648,0.04212,4.019733236,
0.04214,-3.003442353,0.04214,4.38516353,
0.04216,-2.638012059,0.04216,4.38516353,
0.04218,-3.003442353,0.04218,3.654302942,
0.0422,-1.176290883,0.0422,4.019733236,
0.04222,-1.541721177,0.04222,4.750593824,
0.04224,-1.176290883,0.04224,4.019733236,
0.04226,-0.8108605883,0.04226,4.750593824,
0.04228,-3.003442353,0.04228,4.38516353,
0.0423,-0.4454302942,0.0423,4.019733236,
0.04232,0.6508605883,0.04232,4.38516353,
0.04234,0.2854302942,0.04234,4.019733236,
0.04236,2.112581765,0.04236,4.019733236,
0.04238,1.016290883,0.04238,4.38516353,
0.0424,2.478012059,0.0424,4.019733236,
0.04242,2.843442353,0.04242,4.750593824,
0.04244,1.381721177,0.04244,4.38516353,
0.04246,2.112581765,0.04246,4.38516353,
0.04248,3.939733236,0.04248,4.750593824,
0.0425,2.843442353,0.0425,5.116024118,
0.04252,3.208872648,0.04252,3.654302942,
0.04254,4.30516353,0.04254,4.750593824,
0.04256,3.208872648,0.04256,4.019733236,
0.04258,5.036024118,0.04258,4.019733236,
0.0426,2.478012059,0.0426,4.019733236,
0.04262,1.381721177,0.04262,4.38516353,
0.04264,2.112581765,0.04264,4.019733236,
0.04266,3.208872648,0.04266,4.750593824,
0.04268,1.381721177,0.04268,4.38516353,
0.0427,1.016290883,0.0427,4.019733236,
0.04272,1.381721177,0.04272,4.019733236,
0.04274,-0.08,0.04274,4.019733236,
0.04276,-0.08,0.04276,4.019733236,
0.04278,-0.4454302942,0.04278,4.38516353,
0.0428,-2.272581765,0.0428,4.38516353,
0.04282,-0.4454302942,0.04282,4.38516353,
0.04284,-1.176290883,0.04284,4.38516353,
0.04286,-1.541721177,0.04286,4.750593824,
0.04288,-1.541721177,0.04288,4.019733236,
0.0429,-3.734302942,0.0429,4.38516353,
0.04292,-3.368872648,0.04292,4.38516353,
0.04294,-4.099733236,0.04294,4.750593824,
0.04296,-3.368872648,0.04296,4.38516353,
0.04298,-3.003442353,0.04298,4.019733236,
0.043,-3.003442353,0.043,4.750593824,
0.04302,-4.099733236,0.04302,4.019733236,
0.04304,-4.099733236,0.04304,4.38516353,
0.04306,-2.272581765,0.04306,5.116024118,
0.04308,-6.657745295,0.04308,5.116024118,
0.0431,-2.272581765,0.0431,4.38516353,
0.04312,-3.734302942,0.04312,4.38516353,
0.04314,-2.272581765,0.04314,4.38516353,
0.04316,-1.176290883,0.04316,4.38516353,
0.04318,-1.541721177,0.04318,4.38516353,
0.0432,-2.272581765,0.0432,4.38516353,
0.04322,-0.4454302942,0.04322,4.38516353,
0.04324,-0.08,0.04324,4.38516353,
0.04326,-0.4454302942,0.04326,4.750593824,
0.04328,0.6508605883,0.04328,4.019733236,
0.0433,0.6508605883,0.0433,4.38516353,
0.04332,0.6508605883,0.04332,4.750593824,
0.04334,3.574302942,0.04334,4.019733236,
0.04336,2.478012059,0.04336,3.654302942,
0.04338,4.30516353,0.04338,4.750593824,
0.0434,3.939733236,0.0434,4.019733236,
0.04342,3.939733236,0.04342,4.38516353,
0.04344,2.843442353,0.04344,3.654302942,
0.04346,4.30516353,0.04346,4.38516353,
0.04348,3.939733236,0.04348,2.923442353,
0.0435,3.939733236,0.0435,4.38516353,
0.04352,3.939733236,0.04352,4.38516353,
0.04354,4.670593824,0.04354,4.38516353,
0.04356,2.843442353,0.04356,4.019733236,
0.04358,3.574302942,0.04358,5.116024118,
0.0436,2.843442353,0.0436,4.38516353,
0.04362,1.747151471,0.04362,3.654302942,
0.04364,1.747151471,0.04364,4.019733236,
0.04366,0.6508605883,0.04366,4.019733236,
0.04368,0.6508605883,0.04368,4.750593824,
0.0437,-0.08,0.0437,4.38516353,
0.04372,-0.4454302942,0.04372,4.38516353,
0.04374,-0.8108605883,0.04374,3.288872648,
0.04376,0.6508605883,0.04376,5.116024118,
0.04378,-1.176290883,0.04378,3.654302942,
0.0438,-1.176290883,0.0438,3.288872648,
0.04382,-2.272581765,0.04382,4.38516353,
0.04384,-3.003442353,0.04384,4.38516353,
0.04386,-3.368872648,0.04386,3.654302942,
0.04388,-2.272581765,0.04388,5.481454413,
0.0439,-2.272581765,0.0439,4.019733236,
0.04392,-3.734302942,0.04392,3.654302942,
0.04394,-3.003442353,0.04394,4.38516353,
0.04396,-3.368872648,0.04396,4.38516353,
0.04398,-5.926884707,0.04398,4.750593824,
0.044,-3.368872648,0.044,4.38516353,
0.04402,-4.830593824,0.04402,4.019733236,
0.04404,-2.638012059,0.04404,3.654302942,
0.04406,-0.8108605883,0.04406,4.019733236,
0.04408,-1.907151471,0.04408,3.654302942,
0.0441,-1.907151471,0.0441,4.019733236,
0.04412,-0.8108605883,0.04412,3.654302942,
0.04414,0.2854302942,0.04414,4.38516353,
0.04416,0.2854302942,0.04416,4.019733236,
0.04418,1.016290883,0.04418,4.38516353,
0.0442,2.112581765,0.0442,4.019733236,
0.04422,1.381721177,0.04422,4.019733236,
0.04424,1.381721177,0.04424,5.116024118,
0.04426,2.478012059,0.04426,4.38516353,
0.04428,3.208872648,0.04428,4.750593824,
0.0443,2.843442353,0.0443,4.019733236,
0.04432,2.843442353,0.04432,4.38516353,
0.04434,3.574302942,0.04434,3.654302942,
0.04436,3.574302942,0.04436,4.38516353,
0.04438,2.843442353,0.04438,4.750593824,
0.0444,2.112581765,0.0444,4.019733236,
0.04442,3.208872648,0.04442,4.38516353,
0.04444,3.208872648,0.04444,4.38516353,
0.04446,-0.4454302942,0.04446,4.019733236,
0.04448,3.208872648,0.04448,3.288872648,
0.0445,2.478012059,0.0445,4.38516353,
0.04452,2.112581765,0.04452,3.654302942,
0.04454,3.574302942,0.04454,4.38516353,
0.04456,2.478012059,0.04456,4.38516353,
0.04458,0.6508605883,0.04458,4.38516353,
0.0446,1.016290883,0.0446,4.38516353,
0.04462,1.381721177,0.04462,4.38516353,
0.04464,-1.176290883,0.04464,3.654302942,
0.04466,0.2854302942,0.04466,4.38516353,
0.04468,-0.8108605883,0.04468,4.750593824,
0.0447,-2.638012059,0.0447,4.019733236,
0.04472,-1.541721177,0.04472,3.654302942,
0.04474,-2.272581765,0.04474,4.38516353,
0.04476,-3.368872648,0.04476,3.654302942,
0.04478,-2.638012059,0.04478,4.019733236,
0.0448,-2.272581765,0.0448,4.38516353,
0.04482,-3.734302942,0.04482,4.019733236,
0.04484,-2.272581765,0.04484,4.019733236,
0.04486,-3.368872648,0.04486,4.38516353,
0.04488,-3.003442353,0.04488,4.019733236,
0.0449,-1.907151471,0.0449,4.38516353,
0.04492,-2.638012059,0.04492,4.38516353,
0.04494,-3.003442353,0.04494,4.750593824,
0.04496,-2.638012059,0.04496,4.38516353,
0.04498,-2.272581765,0.04498,4.38516353,
0.045,-5.926884707,0.045,4.019733236,
0.04502,-1.176290883,0.04502,3.654302942,
0.04504,-1.176290883,0.04504,4.019733236,
0.04506,-1.176290883,0.04506,4.019733236,
0.04508,-0.08,0.04508,4.38516353,
0.0451,1.016290883,0.0451,4.38516353,
0.04512,-0.08,0.04512,3.654302942,
0.04514,0.6508605883,0.04514,4.38516353,
0.04516,1.381721177,0.04516,4.019733236,
0.04518,2.478012059,0.04518,4.38516353,
0.0452,2.843442353,0.0452,4.38516353,
0.04522,0.6508605883,0.04522,4.38516353,
0.04524,1.381721177,0.04524,4.38516353,
0.04526,3.574302942,0.04526,4.750593824,
0.04528,3.574302942,0.04528,4.38516353,
0.0453,2.843442353,0.0453,4.38516353,
0.04532,3.939733236,0.04532,4.750593824,
0.04534,3.574302942,0.04534,4.750593824,
0.04536,3.574302942,0.04536,4.019733236,
0.04538,2.843442353,0.04538,5.116024118,
0.0454,3.208872648,0.0454,4.38516353,
0.04542,2.112581765,0.04542,4.019733236,
0.04544,2.843442353,0.04544,5.116024118,
0.04546,1.381721177,0.04546,4.019733236,
0.04548,1.016290883,0.04548,3.654302942,
0.0455,1.747151471,0.0455,4.750593824,
0.04552,1.016290883,0.04552,5.116024118,
0.04554,-1.541721177,0.04554,4.38516353,
0.04556,0.6508605883,0.04556,4.750593824,
0.04558,-0.4454302942,0.04558,4.38516353,
0.0456,-1.176290883,0.0456,4.019733236,
0.04562,-1.176290883,0.04562,4.750593824,
0.04564,-2.638012059,0.04564,4.38516353,
0.04566,-2.272581765,0.04566,4.019733236,
0.04568,-4.46516353,0.04568,4.019733236,
0.0457,-3.734302942,0.0457,4.750593824,
0.04572,-3.368872648,0.04572,4.019733236,
0.04574,-3.734302942,0.04574,4.750593824,
0.04576,-4.099733236,0.04576,4.38516353,
0.04578,-3.003442353,0.04578,4.019733236,
0.0458,-3.003442353,0.0458,4.750593824,
0.04582,-3.734302942,0.04582,4.38516353,
0.04584,-4.099733236,0.04584,4.019733236,
0.04586,-2.638012059,0.04586,4.750593824,
0.04588,-3.003442353,0.04588,4.38516353,
0.0459,-2.638012059,0.0459,4.019733236,
0.04592,-1.907151471,0.04592,4.750593824,
0.04594,-1.907151471,0.04594,4.38516353,
0.04596,-2.638012059,0.04596,4.019733236,
0.04598,-1.176290883,0.04598,5.116024118,
0.046,-0.4454302942,0.046,4.38516353,
0.04602,2.112581765,0.04602,4.38516353,
0.04604,-0.08,0.04604,4.750593824,
0.04606,-0.4454302942,0.04606,4.38516353,
0.04608,4.30516353,0.04608,4.38516353,
0.0461,3.574302942,0.0461,4.750593824,
0.04612,1.016290883,0.04612,4.38516353,
0.04614,2.112581765,0.04614,4.019733236,
0.04616,3.574302942,0.04616,4.750593824,
0.04618,2.843442353,0.04618,4.38516353,
0.0462,3.939733236,0.0462,4.38516353,
0.04622,2.843442353,0.04622,4.38516353,
0.04624,2.843442353,0.04624,4.38516353,
0.04626,3.574302942,0.04626,5.116024118,
0.04628,3.574302942,0.04628,4.750593824,
0.0463,2.843442353,0.0463,5.116024118,
0.04632,3.208872648,0.04632,4.38516353,
0.04634,4.30516353,0.04634,4.750593824,
0.04636,2.843442353,0.04636,4.38516353,
0.04638,2.112581765,0.04638,4.019733236,
0.0464,1.747151471,0.0464,4.750593824,
0.04642,1.747151471,0.04642,4.38516353,
0.04644,2.112581765,0.04644,4.019733236,
0.04646,1.016290883,0.04646,4.750593824,
0.04648,-0.08,0.04648,4.38516353,
0.0465,-0.08,0.0465,4.019733236,
0.04652,-0.08,0.04652,4.750593824,
0.04654,-1.907151471,0.04654,4.38516353,
0.04656,-1.541721177,0.04656,4.38516353,
0.04658,-1.541721177,0.04658,4.38516353,
0.0466,-2.638012059,0.0466,4.750593824,
0.04662,-2.638012059,0.04662,4.38516353,
0.04664,-3.003442353,0.04664,4.750593824,
0.04666,-5.196024118,0.04666,4.019733236,
0.04668,-3.003442353,0.04668,3.288872648,
0.0467,-4.46516353,0.0467,5.116024118,
0.04672,-4.46516353,0.04672,4.38516353,
0.04674,-4.099733236,0.04674,4.38516353,
0.04676,-3.003442353,0.04676,4.750593824,
0.04678,-4.830593824,0.04678,4.019733236,
0.0468,-3.368872648,0.0468,3.288872648,
0.04682,-2.638012059,0.04682,4.750593824,
0.04684,-3.003442353,0.04684,4.019733236,
0.04686,-2.272581765,0.04686,4.019733236,
0.04688,-2.272581765,0.04688,4.750593824,
0.0469,-1.541721177,0.0469,4.750593824,
0.04692,-0.08,0.04692,4.019733236,
0.04694,-0.8108605883,0.04694,4.38516353,
0.04696,0.6508605883,0.04696,4.019733236,
0.04698,1.016290883,0.04698,4.38516353,
0.047,0.6508605883,0.047,5.846884707,
0.04702,1.381721177,0.04702,4.019733236,
0.04704,2.478012059,0.04704,4.38516353,
0.04706,2.478012059,0.04706,4.750593824,
0.04708,2.843442353,0.04708,4.019733236,
0.0471,2.843442353,0.0471,3.288872648,
0.04712,3.574302942,0.04712,5.116024118,
0.04714,1.381721177,0.04714,4.750593824,
0.04716,4.30516353,0.04716,4.750593824,
0.04718,2.112581765,0.04718,4.38516353,
0.0472,2.843442353,0.0472,4.019733236,
0.04722,5.036024118,0.04722,4.38516353,
0.04724,4.670593824,0.04724,4.019733236,
0.04726,3.939733236,0.04726,4.019733236,
0.04728,3.208872648,0.04728,4.38516353,
0.0473,1.747151471,0.0473,5.846884707,
0.04732,3.574302942,0.04732,4.38516353,
0.04734,3.208872648,0.04734,4.750593824,
0.04736,1.016290883,0.04736,4.38516353,
0.04738,1.016290883,0.04738,4.38516353,
0.0474,1.016290883,0.0474,4.019733236,
0.04742,-0.08,0.04742,4.750593824,
0.04744,1.381721177,0.04744,4.38516353,
0.04746,0.6508605883,0.04746,4.750593824,
0.04748,-0.4454302942,0.04748,4.38516353,
0.0475,-1.176290883,0.0475,3.654302942,
0.04752,-2.272581765,0.04752,4.38516353,
0.04754,-3.734302942,0.04754,4.750593824,
0.04756,-2.272581765,0.04756,5.116024118,
0.04758,-2.272581765,0.04758,4.38516353,
0.0476,-2.638012059,0.0476,4.750593824,
0.04762,-4.46516353,0.04762,4.38516353,
0.04764,-2.638012059,0.04764,4.38516353,
0.04766,-4.099733236,0.04766,4.750593824,
0.04768,-3.734302942,0.04768,4.38516353,
0.0477,-3.368872648,0.0477,4.750593824,
0.04772,-2.638012059,0.04772,4.750593824,
0.04774,-0.4454302942,0.04774,4.38516353,
0.04776,-3.734302942,0.04776,4.750593824,
0.04778,-3.734302942,0.04778,4.019733236,
0.0478,-1.907151471,0.0478,4.38516353,
0.04782,-3.368872648,0.04782,5.116024118,
0.04784,0.2854302942,0.04784,4.38516353,
0.04786,-0.4454302942,0.04786,4.750593824,
0.04788,-0.08,0.04788,4.38516353,
0.0479,0.6508605883,0.0479,5.116024118,
0.04792,2.112581765,0.04792,4.750593824,
0.04794,0.2854302942,0.04794,3.654302942,
0.04796,1.747151471,0.04796,4.019733236,
0.04798,3.208872648,0.04798,4.38516353,
0.048,1.381721177,0.048,4.38516353,
0.04802,3.574302942,0.04802,4.38516353,
0.04804,3.574302942,0.04804,4.38516353,
0.04806,2.843442353,0.04806,4.38516353,
0.04808,3.574302942,0.04808,4.38516353,
0.0481,3.574302942,0.0481,4.38516353,
0.04812,4.670593824,0.04812,4.38516353,
0.04814,3.939733236,0.04814,4.750593824,
0.04816,4.30516353,0.04816,4.38516353,
0.04818,3.208872648,0.04818,4.019733236,
0.0482,6.132315001,0.0482,4.750593824,
0.04822,3.574302942,0.04822,4.38516353,
0.04824,2.478012059,0.04824,4.019733236,
0.04826,1.747151471,0.04826,4.750593824,
0.04828,1.016290883,0.04828,4.38516353,
0.0483,1.381721177,0.0483,4.38516353,
0.04832,2.843442353,0.04832,4.750593824,
0.04834,0.2854302942,0.04834,4.019733236,
0.04836,-0.4454302942,0.04836,4.019733236,
0.04838,-1.541721177,0.04838,4.750593824,
0.0484,-3.003442353,0.0484,4.019733236,
0.04842,-1.541721177,0.04842,4.019733236,
0.04844,-2.272581765,0.04844,4.750593824,
0.04846,-2.272581765,0.04846,4.38516353,
0.04848,-3.368872648,0.04848,4.019733236,
0.0485,-4.46516353,0.0485,4.750593824,
0.04852,-4.830593824,0.04852,4.38516353,
0.04854,-3.734302942,0.04854,4.019733236,
0.04856,-2.638012059,0.04856,4.750593824,
0.04858,-4.46516353,0.04858,4.38516353,
0.0486,-3.368872648,0.0486,4.38516353,
0.04862,-4.099733236,0.04862,5.116024118,
0.04864,-4.099733236,0.04864,4.019733236,
0.04866,-3.368872648,0.04866,4.38516353,
0.04868,-2.638012059,0.04868,4.750593824,
0.0487,-4.099733236,0.0487,4.019733236,
0.04872,-1.907151471,0.04872,4.019733236,
0.04874,-1.907151471,0.04874,4.750593824,
0.04876,-1.541721177,0.04876,4.38516353,
0.04878,-2.638012059,0.04878,3.654302942,
0.0488,-1.541721177,0.0488,5.116024118,
0.04882,-1.541721177,0.04882,4.750593824,
0.04884,0.2854302942,0.04884,4.38516353,
0.04886,1.016290883,0.04886,5.481454413,
0.04888,0.2854302942,0.04888,4.38516353,
0.0489,0.2854302942,0.0489,4.019733236,
0.04892,0.6508605883,0.04892,5.481454413,
0.04894,1.381721177,0.04894,4.38516353,
0.04896,2.478012059,0.04896,4.019733236,
0.04898,7.228605883,0.04898,4.750593824,
0.049,1.381721177,0.049,4.38516353,
0.04902,2.112581765,0.04902,4.019733236,
0.04904,3.574302942,0.04904,4.750593824,
0.04906,3.574302942,0.04906,4.019733236,
0.04908,3.208872648,0.04908,4.019733236,
0.0491,3.939733236,0.0491,4.750593824,
0.04912,3.574302942,0.04912,4.750593824,
0.04914,2.478012059,0.04914,4.019733236,
0.04916,2.478012059,0.04916,4.019733236,
0.04918,2.112581765,0.04918,4.019733236,
0.0492,2.112581765,0.0492,4.38516353,
0.04922,2.112581765,0.04922,5.116024118,
0.04924,1.747151471,0.04924,4.38516353,
0.04926,1.016290883,0.04926,4.019733236,
0.04928,0.2854302942,0.04928,4.750593824,
0.0493,-0.4454302942,0.0493,4.38516353,
0.04932,0.6508605883,0.04932,4.019733236,
0.04934,-1.176290883,0.04934,4.38516353,
0.04936,-0.8108605883,0.04936,4.38516353,
0.04938,-2.272581765,0.04938,4.019733236,
0.0494,-2.272581765,0.0494,4.750593824,
0.04942,-1.541721177,0.04942,4.750593824,
0.04944,-3.368872648,0.04944,4.019733236,
0.04946,-2.272581765,0.04946,4.750593824,
0.04948,-3.734302942,0.04948,4.38516353,
0.0495,-3.734302942,0.0495,4.019733236,
0.04952,-4.099733236,0.04952,5.116024118,
0.04954,-3.003442353,0.04954,4.38516353,
0.04956,-4.099733236,0.04956,4.019733236,
0.04958,-2.638012059,0.04958,4.750593824,
0.0496,-3.734302942,0.0496,4.38516353,
0.04962,-4.099733236,0.04962,4.019733236,
0.04964,-3.003442353,0.04964,4.38516353,
0.04966,-2.638012059,0.04966,4.019733236,
0.04968,-1.541721177,0.04968,4.38516353,
0.0497,-1.176290883,0.0497,4.38516353,
0.04972,-0.8108605883,0.04972,4.38516353,
0.04974,-0.4454302942,0.04974,4.019733236,
0.04976,-0.4454302942,0.04976,4.750593824,
0.04978,-1.907151471,0.04978,4.019733236,
0.0498,0.2854302942,0.0498,3.654302942,
0.04982,2.112581765,0.04982,4.750593824,
0.04984,0.6508605883,0.04984,4.019733236,
0.04986,2.112581765,0.04986,4.019733236,
0.04988,2.112581765,0.04988,4.38516353,
0.0499,2.112581765,0.0499,4.38516353,
0.04992,2.112581765,0.04992,4.38516353,
0.04994,3.574302942,0.04994,4.750593824,
0.04996,3.574302942,0.04996,4.38516353,
0.04998,2.112581765,0.04998,4.019733236,
0.05,3.939733236,0.05,4.750593824,
0.05002,2.112581765,0.05002,5.116024118,
0.05004,4.670593824,0.05004,4.38516353,
0.05006,3.939733236,0.05006,4.38516353,
0.05008,2.478012059,0.05008,5.116024118,
0.0501,2.478012059,0.0501,5.481454413,
0.05012,2.112581765,0.05012,4.750593824,
0.05014,2.112581765,0.05014,4.750593824,
0.05016,1.381721177,0.05016,4.019733236,
0.05018,1.016290883,0.05018,4.750593824,
0.0502,0.2854302942,0.0502,4.019733236,
0.05022,1.381721177,0.05022,4.019733236,
0.05024,-0.08,0.05024,4.38516353,
0.05026,-1.176290883,0.05026,4.38516353,
0.05028,-0.8108605883,0.05028,4.38516353,
0.0503,-1.907151471,0.0503,4.38516353,
0.05032,-1.907151471,0.05032,5.846884707,
0.05034,-1.176290883,0.05034,4.019733236,
0.05036,-2.272581765,0.05036,4.750593824,
0.05038,-3.734302942,0.05038,4.019733236,
0.0504,-3.368872648,0.0504,4.38516353,
0.05042,-4.099733236,0.05042,3.654302942,
0.05044,-4.099733236,0.05044,4.019733236,
0.05046,-5.196024118,0.05046,4.019733236,
0.05048,-4.099733236,0.05048,4.38516353,
0.0505,-4.830593824,0.0505,4.019733236,
0.05052,-3.003442353,0.05052,5.481454413,
0.05054,-2.638012059,0.05054,4.750593824,
0.05056,-3.368872648,0.05056,4.38516353,
0.05058,-2.638012059,0.05058,4.38516353,
0.0506,-1.907151471,0.0506,4.750593824,
0.05062,-4.099733236,0.05062,4.750593824,
0.05064,-0.8108605883,0.05064,4.38516353,
0.05066,-0.08,0.05066,4.750593824,
0.05068,-1.176290883,0.05068,4.750593824,
0.0507,0.2854302942,0.0507,4.38516353,
0.05072,1.747151471,0.05072,3.288872648,
0.05074,0.2854302942,0.05074,4.750593824,
0.05076,1.747151471,0.05076,4.38516353,
0.05078,2.478012059,0.05078,4.750593824,
0.0508,1.381721177,0.0508,4.38516353,
0.05082,2.478012059,0.05082,5.481454413,
0.05084,2.478012059,0.05084,4.38516353,
0.05086,3.939733236,0.05086,4.750593824,
0.05088,3.939733236,0.05088,4.38516353,
0.0509,3.574302942,0.0509,4.750593824,
0.05092,3.208872648,0.05092,3.288872648,
0.05094,2.478012059,0.05094,4.019733236,
0.05096,5.766884707,0.05096,4.019733236,
0.05098,3.939733236,0.05098,4.38516353,
0.051,3.939733236,0.051,3.654302942,
0.05102,3.208872648,0.05102,3.654302942,
0.05104,3.208872648,0.05104,4.38516353,
0.05106,3.208872648,0.05106,4.38516353,
0.05108,1.747151471,0.05108,4.750593824,
0.0511,0.6508605883,0.0511,4.38516353,
0.05112,2.112581765,0.05112,5.846884707,
0.05114,1.016290883,0.05114,4.38516353,
0.05116,-0.08,0.05116,4.38516353,
0.05118,-0.08,0.05118,4.38516353,
0.0512,0.2854302942,0.0512,4.019733236,
0.05122,-0.8108605883,0.05122,4.750593824,
0.05124,-1.907151471,0.05124,4.750593824,
0.05126,-1.541721177,0.05126,4.38516353,
0.05128,-3.368872648,0.05128,4.38516353,
0.0513,-2.638012059,0.0513,4.019733236,
0.05132,-4.099733236,0.05132,3.654302942,
0.05134,-3.368872648,0.05134,4.750593824,
0.05136,-3.368872648,0.05136,4.38516353,
0.05138,-3.368872648,0.05138,5.116024118,
0.0514,-6.657745295,0.0514,4.750593824,
0.05142,-3.734302942,0.05142,4.750593824,
0.05144,-3.368872648,0.05144,4.750593824,
0.05146,-2.638012059,0.05146,4.38516353,
0.05148,-2.638012059,0.05148,4.019733236,
0.0515,-2.638012059,0.0515,4.38516353,
0.05152,-1.907151471,0.05152,4.019733236,
0.05154,-1.907151471,0.05154,4.750593824,
0.05156,-2.272581765,0.05156,4.750593824,
0.05158,-1.541721177,0.05158,4.750593824,
0.0516,-0.4454302942,0.0516,4.38516353,
0.05162,-0.4454302942,0.05162,4.38516353,
0.05164,0.2854302942,0.05164,4.38516353,
0.05166,0.6508605883,0.05166,4.38516353,
0.05168,2.112581765,0.05168,5.116024118,
0.0517,1.381721177,0.0517,4.38516353,
0.05172,1.381721177,0.05172,4.38516353,
0.05174,2.843442353,0.05174,4.38516353,
0.05176,2.843442353,0.05176,4.019733236,
0.05178,3.208872648,0.05178,4.38516353,
0.0518,3.208872648,0.0518,4.750593824,
0.05182,1.747151471,0.05182,4.38516353,
0.05184,3.939733236,0.05184,4.38516353,
0.05186,2.843442353,0.05186,4.750593824,
0.05188,3.208872648,0.05188,4.38516353,
0.0519,3.574302942,0.0519,4.019733236,
0.05192,3.939733236,0.05192,4.38516353,
0.05194,3.574302942,0.05194,4.019733236,
0.05196,3.208872648,0.05196,4.38516353,
0.05198,2.478012059,0.05198,3.654302942,
0.052,2.843442353,0.052,4.019733236,
0.05202,2.112581765,0.05202,4.38516353,
0.05204,0.6508605883,0.05204,4.019733236,
0.05206,1.747151471,0.05206,4.38516353,
0.05208,0.6508605883,0.05208,4.38516353,
0.0521,-1.176290883,0.0521,3.654302942,
0.05212,0.2854302942,0.05212,4.019733236,
0.05214,-0.8108605883,0.05214,4.38516353,
0.05216,-1.541721177,0.05216,4.019733236,
0.05218,-1.907151471,0.05218,4.750593824,
0.0522,-2.638012059,0.0522,4.38516353,
0.05222,-1.907151471,0.05222,4.019733236,
0.05224,-1.907151471,0.05224,4.38516353,
0.05226,-3.368872648,0.05226,4.38516353,
0.05228,-2.638012059,0.05228,3.654302942,
0.0523,-3.368872648,0.0523,4.019733236,
0.05232,-1.541721177,0.05232,4.38516353,
0.05234,-4.099733236,0.05234,4.019733236,
0.05236,-3.368872648,0.05236,4.019733236,
0.05238,-4.830593824,0.05238,4.38516353,
0.0524,-3.368872648,0.0524,4.019733236,
0.05242,-1.176290883,0.05242,4.38516353,
0.05244,-2.638012059,0.05244,4.750593824,
0.05246,-0.08,0.05246,4.38516353,
0.05248,-1.176290883,0.05248,4.38516353,
0.0525,-0.8108605883,0.0525,4.38516353,
0.05252,-1.176290883,0.05252,4.38516353,
0.05254,0.2854302942,0.05254,4.38516353,
0.05256,0.6508605883,0.05256,4.38516353,
0.05258,0.6508605883,0.05258,4.38516353,
0.0526,-0.4454302942,0.0526,4.38516353,
0.05262,1.016290883,0.05262,4.019733236,
0.05264,2.112581765,0.05264,4.019733236,
0.05266,2.843442353,0.05266,3.654302942,
0.05268,3.208872648,0.05268,4.38516353,
0.0527,1.747151471,0.0527,4.019733236,
0.05272,3.574302942,0.05272,4.019733236,
0.05274,2.478012059,0.05274,4.38516353,
0.05276,4.30516353,0.05276,4.019733236,
0.05278,4.30516353,0.05278,4.38516353,
0.0528,3.939733236,0.0528,4.38516353,
0.05282,5.036024118,0.05282,3.654302942,
0.05284,3.574302942,0.05284,4.38516353,
0.05286,3.208872648,0.05286,5.116024118,
0.05288,2.843442353,0.05288,4.019733236,
0.0529,2.843442353,0.0529,4.019733236,
0.05292,2.478012059,0.05292,4.019733236,
0.05294,1.747151471,0.05294,3.288872648,
0.05296,1.747151471,0.05296,4.38516353,
0.05298,1.747151471,0.05298,4.38516353,
0.053,1.381721177,0.053,4.38516353,
0.05302,-0.4454302942,0.05302,4.750593824,
0.05304,0.2854302942,0.05304,4.750593824,
0.05306,-1.541721177,0.05306,4.38516353,
0.05308,-0.8108605883,0.05308,4.38516353,
0.0531,-1.176290883,0.0531,4.750593824,
0.05312,-2.272581765,0.05312,4.019733236,
0.05314,-2.638012059,0.05314,4.019733236,
0.05316,-2.272581765,0.05316,4.38516353,
0.05318,-3.003442353,0.05318,4.38516353,
0.0532,-3.368872648,0.0532,4.38516353,
0.05322,-2.638012059,0.05322,4.019733236,
0.05324,-3.734302942,0.05324,3.654302942,
0.05326,-3.734302942,0.05326,4.750593824,
0.05328,-4.46516353,0.05328,4.38516353,
0.0533,-3.368872648,0.0533,4.750593824,
0.05332,-3.003442353,0.05332,4.38516353,
0.05334,-3.368872648,0.05334,4.750593824,
0.05336,-3.003442353,0.05336,4.750593824,
0.05338,-5.926884707,0.05338,4.38516353,
0.0534,-2.638012059,0.0534,4.38516353,
0.05342,-0.08,0.05342,4.750593824,
0.05344,-2.272581765,0.05344,4.750593824,
0.05346,-0.8108605883,0.05346,4.019733236,
0.05348,-0.8108605883,0.05348,4.38516353,
0.0535,0.6508605883,0.0535,4.38516353,
0.05352,-0.8108605883,0.05352,4.019733236,
0.05354,2.478012059,0.05354,3.654302942,
0.05356,1.747151471,0.05356,4.019733236,
0.05358,1.381721177,0.05358,4.019733236,
0.0536,2.112581765,0.0536,4.38516353,
0.05362,1.747151471,0.05362,4.38516353,
0.05364,2.112581765,0.05364,4.38516353,
0.05366,3.574302942,0.05366,4.750593824,
0.05368,2.112581765,0.05368,4.38516353,
0.0537,3.574302942,0.0537,4.019733236,
0.05372,4.670593824,0.05372,4.38516353,
0.05374,3.574302942,0.05374,5.116024118,
0.05376,2.478012059,0.05376,4.019733236,
0.05378,3.574302942,0.05378,4.750593824,
0.0538,3.939733236,0.0538,5.116024118,
0.05382,3.939733236,0.05382,4.38516353,
0.05384,1.381721177,0.05384,3.654302942,
0.05386,2.112581765,0.05386,4.750593824,
0.05388,1.016290883,0.05388,4.750593824,
0.0539,1.016290883,0.0539,5.116024118,
0.05392,1.381721177,0.05392,4.019733236,
0.05394,-0.08,0.05394,4.019733236,
0.05396,-0.8108605883,0.05396,4.019733236,
0.05398,-0.4454302942,0.05398,4.38516353,
0.054,-0.4454302942,0.054,4.750593824,
0.05402,-2.638012059,0.05402,4.019733236,
0.05404,-1.176290883,0.05404,4.019733236,
0.05406,-2.638012059,0.05406,4.750593824,
0.05408,-2.638012059,0.05408,4.750593824,
0.0541,-3.734302942,0.0541,4.38516353,
0.05412,-3.368872648,0.05412,4.750593824,
0.05414,-2.638012059,0.05414,4.750593824,
0.05416,-4.099733236,0.05416,3.654302942,
0.05418,-2.272581765,0.05418,4.750593824,
0.0542,-5.561454413,0.0542,4.019733236,
0.05422,-4.46516353,0.05422,4.019733236,
0.05424,-3.368872648,0.05424,5.846884707,
0.05426,-3.368872648,0.05426,4.750593824,
0.05428,-4.099733236,0.05428,3.654302942,
0.0543,-2.272581765,0.0543,4.750593824,
0.05432,-3.368872648,0.05432,4.38516353,
0.05434,-1.907151471,0.05434,3.288872648,
0.05436,-2.272581765,0.05436,4.38516353,
0.05438,-1.541721177,0.05438,4.019733236,
0.0544,-0.4454302942,0.0544,4.019733236,
0.05442,1.381721177,0.05442,4.38516353,
0.05444,0.2854302942,0.05444,4.38516353,
0.05446,-0.4454302942,0.05446,4.019733236,
0.05448,1.381721177,0.05448,4.38516353,
0.0545,1.016290883,0.0545,4.019733236,
0.05452,1.747151471,0.05452,4.019733236,
0.05454,5.401454413,0.05454,5.481454413,
0.05456,3.208872648,0.05456,3.654302942,
0.05458,2.843442353,0.05458,4.019733236,
0.0546,3.574302942,0.0546,4.750593824,
0.05462,3.208872648,0.05462,4.38516353,
0.05464,3.574302942,0.05464,3.654302942,
0.05466,4.670593824,0.05466,4.38516353,
0.05468,2.478012059,0.05468,5.116024118,
0.0547,2.843442353,0.0547,4.38516353,
0.05472,2.112581765,0.05472,4.750593824,
0.05474,4.670593824,0.05474,4.019733236,
0.05476,0.2854302942,0.05476,4.019733236,
0.05478,1.747151471,0.05478,4.750593824,
0.0548,2.112581765,0.0548,4.38516353,
0.05482,1.747151471,0.05482,4.019733236,
0.05484,2.112581765,0.05484,5.481454413,
0.05486,-1.541721177,0.05486,4.38516353,
0.05488,0.2854302942,0.05488,4.019733236,
0.0549,1.016290883,0.0549,4.750593824,
0.05492,-0.8108605883,0.05492,4.38516353,
0.05494,-1.541721177,0.05494,4.750593824,
0.05496,-0.8108605883,0.05496,4.750593824,
0.05498,-1.541721177,0.05498,4.019733236,
0.055,-2.638012059,0.055,4.38516353,
0.05502,-5.561454413,0.05502,4.750593824,
0.05504,-3.734302942,0.05504,3.654302942,
0.05506,-2.638012059,0.05506,4.019733236,
0.05508,-3.368872648,0.05508,4.750593824,
0.0551,-5.196024118,0.0551,4.019733236,
0.05512,-3.003442353,0.05512,4.38516353,
0.05514,-3.368872648,0.05514,3.654302942,
0.05516,-2.638012059,0.05516,4.38516353,
0.05518,-3.734302942,0.05518,4.38516353,
0.0552,-3.368872648,0.0552,4.750593824,
0.05522,-3.368872648,0.05522,4.019733236,
0.05524,-3.003442353,0.05524,4.019733236,
0.05526,-0.8108605883,0.05526,4.750593824,
0.05528,-2.638012059,0.05528,4.019733236,
0.0553,-2.272581765,0.0553,4.38516353,
0.05532,-0.08,0.05532,4.750593824,
0.05534,-0.08,0.05534,4.38516353,
0.05536,0.6508605883,0.05536,4.38516353,
0.05538,0.2854302942,0.05538,4.750593824,
0.0554,-0.08,0.0554,4.019733236,
0.05542,1.381721177,0.05542,4.38516353,
0.05544,1.381721177,0.05544,4.750593824,
0.05546,1.016290883,0.05546,4.019733236,
0.05548,3.574302942,0.05548,4.019733236,
0.0555,2.843442353,0.0555,5.116024118,
0.05552,3.208872648,0.05552,4.38516353,
0.05554,3.574302942,0.05554,4.38516353,
0.05556,2.478012059,0.05556,4.750593824,
0.05558,2.843442353,0.05558,4.019733236,
0.0556,1.747151471,0.0556,4.38516353,
0.05562,3.939733236,0.05562,5.116024118,
0.05564,3.208872648,0.05564,4.750593824,
0.05566,2.478012059,0.05566,4.38516353,
0.05568,4.670593824,0.05568,4.750593824,
0.0557,2.478012059,0.0557,4.019733236,
0.05572,2.843442353,0.05572,4.38516353,
0.05574,2.112581765,0.05574,5.116024118,
0.05576,2.112581765,0.05576,4.38516353,
0.05578,0.6508605883,0.05578,4.019733236,
0.0558,1.016290883,0.0558,4.750593824,
0.05582,0.2854302942,0.05582,4.38516353,
0.05584,-0.8108605883,0.05584,4.38516353,
0.05586,0.2854302942,0.05586,4.38516353,
0.05588,-2.272581765,0.05588,4.38516353,
0.0559,-0.8108605883,0.0559,4.38516353,
0.05592,-3.003442353,0.05592,4.750593824,
0.05594,-3.368872648,0.05594,4.38516353,
0.05596,-4.099733236,0.05596,4.019733236,
0.05598,-3.003442353,0.05598,4.38516353,
0.056,-3.003442353,0.056,4.38516353,
0.05602,-4.46516353,0.05602,4.38516353,
0.05604,-2.638012059,0.05604,4.750593824,
0.05606,-5.196024118,0.05606,4.750593824,
0.05608,-2.638012059,0.05608,4.38516353,
0.0561,-3.003442353,0.0561,4.750593824,
0.05612,-3.734302942,0.05612,4.750593824,
0.05614,-2.272581765,0.05614,4.38516353,
0.05616,-4.099733236,0.05616,4.750593824,
0.05618,-2.272581765,0.05618,4.750593824,
0.0562,-2.272581765,0.0562,4.019733236,
0.05622,-1.541721177,0.05622,4.750593824,
0.05624,-1.541721177,0.05624,4.38516353,
0.05626,-1.541721177,0.05626,4.38516353,
0.05628,-0.08,0.05628,4.750593824,
0.0563,-0.4454302942,0.0563,4.750593824,
0.05632,1.747151471,0.05632,3.654302942,
0.05634,2.112581765,0.05634,4.750593824,
0.05636,1.381721177,0.05636,4.750593824,
0.05638,2.112581765,0.05638,4.38516353,
0.0564,5.036024118,0.0564,5.846884707,
0.05642,2.478012059,0.05642,4.750593824,
0.05644,3.208872648,0.05644,5.116024118,
0.05646,3.939733236,0.05646,4.750593824,
0.05648,2.843442353,0.05648,4.750593824,
0.0565,2.843442353,0.0565,4.750593824,
0.05652,3.939733236,0.05652,4.750593824,
0.05654,3.574302942,0.05654,4.750593824,
0.05656,3.208872648,0.05656,5.116024118,
0.05658,3.208872648,0.05658,4.38516353,
0.0566,2.112581765,0.0566,4.750593824,
0.05662,3.574302942,0.05662,4.38516353,
0.05664,2.112581765,0.05664,4.750593824,
0.05666,0.6508605883,0.05666,4.38516353,
0.05668,2.112581765,0.05668,4.019733236,
0.0567,0.6508605883,0.0567,4.750593824,
0.05672,1.381721177,0.05672,4.750593824,
0.05674,0.2854302942,0.05674,4.019733236,
0.05676,-1.541721177,0.05676,4.38516353,
0.05678,-1.176290883,0.05678,4.38516353,
0.0568,-1.176290883,0.0568,4.019733236,
0.05682,1.747151471,0.05682,4.38516353,
0.05684,-1.541721177,0.05684,4.38516353,
0.05686,-1.541721177,0.05686,3.654302942,
0.05688,-3.368872648,0.05688,4.750593824,
0.0569,-3.003442353,0.0569,4.38516353,
0.05692,-3.368872648,0.05692,4.38516353,
0.05694,-3.003442353,0.05694,4.38516353,
0.05696,-3.368872648,0.05696,4.38516353,
0.05698,-4.099733236,0.05698,4.019733236,
0.057,-2.638012059,0.057,4.019733236,
0.05702,-4.46516353,0.05702,4.38516353,
0.05704,-4.099733236,0.05704,4.38516353,
0.05706,-3.368872648,0.05706,4.750593824,
0.05708,-3.368872648,0.05708,4.750593824,
0.0571,-3.368872648,0.0571,4.019733236,
0.05712,-1.541721177,0.05712,4.750593824,
0.05714,-1.907151471,0.05714,4.38516353,
0.05716,-2.272581765,0.05716,4.38516353,
0.05718,-1.541721177,0.05718,4.750593824,
0.0572,-0.4454302942,0.0572,4.750593824,
0.05722,-1.176290883,0.05722,4.38516353,
0.05724,0.2854302942,0.05724,4.019733236,
0.05726,-1.541721177,0.05726,4.750593824,
0.05728,1.381721177,0.05728,4.750593824,
0.0573,2.478012059,0.0573,4.750593824,
0.05732,1.747151471,0.05732,4.750593824,
0.05734,3.939733236,0.05734,4.38516353,
0.05736,2.112581765,0.05736,4.38516353,
0.05738,2.843442353,0.05738,4.750593824,
0.0574,3.939733236,0.0574,4.38516353,
0.05742,3.939733236,0.05742,4.38516353,
0.05744,2.843442353,0.05744,4.019733236,
0.05746,4.30516353,0.05746,4.38516353,
0.05748,4.30516353,0.05748,4.38516353,
0.0575,2.478012059,0.0575,4.38516353,
0.05752,1.381721177,0.05752,4.019733236,
0.05754,2.112581765,0.05754,4.750593824,
0.05756,2.843442353,0.05756,5.481454413,
0.05758,2.478012059,0.05758,4.38516353,
0.0576,2.843442353,0.0576,4.38516353,
0.05762,2.112581765,0.05762,4.38516353,
0.05764,2.843442353,0.05764,4.019733236,
0.05766,-0.08,0.05766,2.923442353,
0.05768,0.6508605883,0.05768,4.750593824,
0.0577,0.2854302942,0.0577,4.750593824,
0.05772,-0.8108605883,0.05772,3.654302942,
0.05774,-0.4454302942,0.05774,4.750593824,
0.05776,-1.176290883,0.05776,2.558012059,
0.05778,-1.907151471,0.05778,4.019733236,
0.0578,-0.4454302942,0.0578,4.38516353,
0.05782,-1.541721177,0.05782,4.38516353,
0.05784,-3.003442353,0.05784,4.019733236,
0.05786,-4.830593824,0.05786,5.116024118,
0.05788,-3.368872648,0.05788,4.38516353,
0.0579,-3.368872648,0.0579,4.019733236,
0.05792,-2.638012059,0.05792,4.38516353,
0.05794,-3.368872648,0.05794,4.38516353,
0.05796,-3.368872648,0.05796,4.38516353,
0.05798,-3.003442353,0.05798,4.38516353,
0.058,-3.003442353,0.058,4.019733236,
0.05802,-3.003442353,0.05802,4.019733236,
0.05804,-1.907151471,0.05804,4.019733236,
0.05806,-1.541721177,0.05806,2.558012059,
0.05808,-2.272581765,0.05808,4.38516353,
0.0581,-1.176290883,0.0581,4.38516353,
0.05812,0.6508605883,0.05812,4.38516353,
0.05814,-0.08,0.05814,4.38516353,
0.05816,1.381721177,0.05816,3.288872648,
0.05818,1.381721177,0.05818,4.019733236,
0.0582,-0.08,0.0582,4.38516353,
0.05822,1.381721177,0.05822,4.38516353,
0.05824,2.478012059,0.05824,4.38516353,
0.05826,1.381721177,0.05826,5.481454413,
0.05828,3.208872648,0.05828,4.38516353,
0.0583,2.843442353,0.0583,4.750593824,
0.05832,3.574302942,0.05832,4.750593824,
0.05834,2.843442353,0.05834,4.019733236,
0.05836,2.478012059,0.05836,5.481454413,
0.05838,2.112581765,0.05838,4.750593824,
0.0584,3.939733236,0.0584,4.38516353,
0.05842,3.208872648,0.05842,5.116024118,
0.05844,2.843442353,0.05844,4.38516353,
0.05846,2.843442353,0.05846,3.288872648,
0.05848,3.208872648,0.05848,4.750593824,
0.0585,2.478012059,0.0585,4.38516353,
0.05852,1.747151471,0.05852,4.38516353,
0.05854,3.208872648,0.05854,4.750593824,
0.05856,2.478012059,0.05856,4.750593824,
0.05858,1.016290883,0.05858,4.750593824,
0.0586,1.016290883,0.0586,4.38516353,
0.05862,-0.8108605883,0.05862,4.38516353,
0.05864,-0.4454302942,0.05864,4.750593824,
0.05866,-1.176290883,0.05866,5.116024118,
0.05868,-0.8108605883,0.05868,4.38516353,
0.0587,-2.272581765,0.0587,4.38516353,
0.05872,-2.638012059,0.05872,4.38516353,
0.05874,-3.003442353,0.05874,4.38516353,
0.05876,-3.003442353,0.05876,3.654302942,
0.05878,-4.46516353,0.05878,4.38516353,
0.0588,-3.003442353,0.0588,4.38516353,
0.05882,-3.734302942,0.05882,4.750593824,
0.05884,-4.46516353,0.05884,4.750593824,
0.05886,-4.46516353,0.05886,5.116024118,
0.05888,-3.003442353,0.05888,4.750593824,
0.0589,-3.734302942,0.0589,4.38516353,
0.05892,-2.638012059,0.05892,4.38516353,
0.05894,-3.003442353,0.05894,4.38516353,
0.05896,-3.368872648,0.05896,5.481454413,
0.05898,-2.272581765,0.05898,4.38516353,
0.059,-3.003442353,0.059,4.019733236,
0.05902,-2.272581765,0.05902,4.750593824,
0.05904,-1.176290883,0.05904,4.019733236,
0.05906,-1.541721177,0.05906,4.019733236,
0.05908,-0.08,0.05908,4.38516353,
0.0591,0.6508605883,0.0591,4.38516353,
0.05912,-0.08,0.05912,4.750593824,
0.05914,2.112581765,0.05914,4.750593824,
0.05916,1.747151471,0.05916,4.019733236,
0.05918,3.574302942,0.05918,4.38516353,
0.0592,1.747151471,0.0592,4.019733236,
