"A0_accX_x","A0_accX_y","A1_rmsX_x","A1_rmsX_y"
0,-2.623000183,0,6.212315001,
2e-05,-3.719291065,2e-05,5.481454413,
4e-05,-4.815581948,4e-05,5.846884707,
6e-05,-2.257569889,6e-05,5.846884707,
8e-05,-6.642733419,8e-05,5.846884707,
0.0001,-5.181012242,0.0001,5.846884707,
0.00012,-5.91187283,0.00012,6.212315001,
0.00014,-4.815581948,0.00014,5.846884707,
0.00016,-3.719291065,0.00016,5.116024118,
0.00018,-4.450151654,0.00018,5.846884707,
0.0002,-5.546442536,0.0002,5.481454413,
0.00022,-5.181012242,0.00022,5.116024118,
0.00024,-5.181012242,0.00024,5.481454413,
0.00026,-5.546442536,0.00026,5.116024118,
0.00028,-2.988430477,0.00028,5.116024118,
0.0003,-1.5267093,0.0003,5.481454413,
0.00032,-2.623000183,0.00032,5.846884707,
0.00034,0.3004421707,0.00034,5.846884707,
0.00036,0.3004421707,0.00036,5.846884707,
0.00038,-0.7958487119,0.00038,5.846884707,
0.0004,1.031302759,0.0004,5.481454413,
0.00042,0.3004421707,0.00042,5.846884707,
0.00044,2.85845423,0.00044,5.116024118,
0.00046,1.762163347,0.00046,5.846884707,
0.00048,5.781896583,0.00048,5.481454413,
0.0005,3.589314818,0.0005,5.116024118,
0.00052,3.954745112,0.00052,5.481454413,
0.00054,5.051035995,0.00054,6.212315001,
0.00056,6.147326877,0.00056,5.481454413,
0.00058,3.589314818,0.00058,5.116024118,
0.0006,5.781896583,0.0006,5.846884707,
0.00062,4.320175407,0.00062,5.481454413,
0.00064,5.781896583,0.00064,5.481454413,
0.00066,4.320175407,0.00066,5.846884707,
0.00068,4.320175407,0.00068,5.481454413,
0.0007,4.320175407,0.0007,5.481454413,
0.00072,4.320175407,0.00072,5.846884707,
0.00074,3.589314818,0.00074,5.481454413,
0.00076,3.589314818,0.00076,5.481454413,
0.00078,1.762163347,0.00078,5.481454413,
0.0008,0.6658724648,0.0008,5.481454413,
0.00082,0.6658724648,0.00082,5.481454413,
0.00084,0.3004421707,0.00084,5.116024118,
0.00086,1.031302759,0.00086,5.846884707,
0.00088,-0.7958487119,0.00088,5.481454413,
0.0009,-1.5267093,0.0009,5.481454413,
0.00092,-2.623000183,0.00092,5.846884707,
0.00094,-3.719291065,0.00094,5.481454413,
0.00096,-3.353860771,0.00096,5.481454413,
0.00098,-5.181012242,0.00098,5.481454413,
0.001,-4.815581948,0.001,5.481454413,
0.00102,-5.546442536,0.00102,6.212315001,
0.00104,-4.815581948,0.00104,5.116024118,
0.00106,-5.546442536,0.00106,5.481454413,
0.00108,-4.815581948,0.00108,5.846884707,
0.0011,-5.546442536,0.0011,5.116024118,
0.00112,-6.277303124,0.00112,5.481454413,
0.00114,-5.181012242,0.00114,6.212315001,
0.00116,-2.623000183,0.00116,5.116024118,
0.00118,-5.181012242,0.00118,5.481454413,
0.0012,-2.257569889,0.0012,5.846884707,
0.00122,-4.815581948,0.00122,5.481454413,
0.00124,-2.623000183,0.00124,5.481454413,
0.00126,-0.4304184177,0.00126,5.846884707,
0.00128,-0.7958487119,0.00128,5.481454413,
0.0013,-0.06498812352,0.0013,5.481454413,
0.00132,0.6658724648,0.00132,6.212315001,
0.00134,-0.4304184177,0.00134,5.481454413,
0.00136,0.6658724648,0.00136,5.481454413,
0.00138,2.493023936,0.00138,5.481454413,
0.0014,2.127593642,0.0014,5.481454413,
0.00142,3.589314818,0.00142,5.481454413,
0.00144,3.954745112,0.00144,5.846884707,
0.00146,3.589314818,0.00146,5.116024118,
0.00148,3.223884524,0.00148,5.116024118,
0.0015,6.147326877,0.0015,6.212315001,
0.00152,4.685605701,0.00152,5.846884707,
0.00154,6.147326877,0.00154,5.116024118,
0.00156,6.512757172,0.00156,5.846884707,
0.00158,5.416466289,0.00158,5.481454413,
0.0016,6.147326877,0.0016,5.481454413,
0.00162,3.589314818,0.00162,5.846884707,
0.00164,4.320175407,0.00164,5.481454413,
0.00166,3.589314818,0.00166,5.116024118,
0.00168,2.85845423,0.00168,5.846884707,
0.0017,2.493023936,0.0017,5.481454413,
0.00172,2.493023936,0.00172,5.846884707,
0.00174,0.3004421707,0.00174,5.846884707,
0.00176,-0.06498812352,0.00176,5.481454413,
0.00178,-0.4304184177,0.00178,5.846884707,
0.0018,0.3004421707,0.0018,5.846884707,
0.00182,-1.892139594,0.00182,5.116024118,
0.00184,-2.623000183,0.00184,5.481454413,
0.00186,-3.719291065,0.00186,6.212315001,
0.00188,-4.450151654,0.00188,5.846884707,
0.0019,-4.084721359,0.0019,5.846884707,
0.00192,-4.815581948,0.00192,5.846884707,
0.00194,-5.91187283,0.00194,5.481454413,
0.00196,-4.084721359,0.00196,5.116024118,
0.00198,-4.815581948,0.00198,5.481454413,
0.002,-4.815581948,0.002,5.481454413,
0.00202,-4.815581948,0.00202,5.846884707,
0.00204,-4.815581948,0.00204,5.481454413,
0.00206,-3.719291065,0.00206,6.943175589,
0.00208,-2.257569889,0.00208,5.481454413,
0.0021,-4.450151654,0.0021,5.481454413,
0.00212,-4.084721359,0.00212,5.116024118,
0.00214,-4.815581948,0.00214,6.212315001,
0.00216,-2.988430477,0.00216,5.116024118,
0.00218,-2.988430477,0.00218,5.481454413,
0.0022,-0.7958487119,0.0022,5.846884707,
0.00222,-1.5267093,0.00222,5.481454413,
0.00224,-0.06498812352,0.00224,5.481454413,
0.00226,0.6658724648,0.00226,5.846884707,
0.00228,-0.06498812352,0.00228,5.481454413,
0.0023,2.127593642,0.0023,5.481454413,
0.00232,2.127593642,0.00232,5.116024118,
0.00234,2.493023936,0.00234,5.481454413,
0.00236,3.954745112,0.00236,6.577745295,
0.00238,4.685605701,0.00238,5.846884707,
0.0024,3.954745112,0.0024,5.481454413,
0.00242,5.051035995,0.00242,5.481454413,
0.00244,3.954745112,0.00244,5.846884707,
0.00246,5.781896583,0.00246,4.38516353,
0.00248,6.878187466,0.00248,4.750593824,
0.0025,7.974478348,0.0025,5.846884707,
0.00252,5.416466289,0.00252,5.846884707,
0.00254,5.416466289,0.00254,5.481454413,
0.00256,3.954745112,0.00256,6.577745295,
0.00258,3.223884524,0.00258,5.481454413,
0.0026,3.954745112,0.0026,5.481454413,
0.00262,2.127593642,0.00262,5.846884707,
0.00264,2.493023936,0.00264,5.481454413,
0.00266,2.127593642,0.00266,4.019733236,
0.00268,1.031302759,0.00268,5.846884707,
0.0027,-0.06498812352,0.0027,5.846884707,
0.00272,-0.4304184177,0.00272,5.481454413,
0.00274,-1.161279006,0.00274,5.846884707,
0.00276,-2.257569889,0.00276,6.943175589,
0.00278,-2.623000183,0.00278,5.846884707,
0.0028,-3.719291065,0.0028,6.212315001,
0.00282,-4.084721359,0.00282,5.846884707,
0.00284,-3.719291065,0.00284,5.481454413,
0.00286,-4.450151654,0.00286,5.846884707,
0.00288,-6.277303124,0.00288,5.846884707,
0.0029,-4.815581948,0.0029,5.846884707,
0.00292,-4.450151654,0.00292,5.846884707,
0.00294,-7.373594007,0.00294,5.846884707,
0.00296,-5.91187283,0.00296,4.38516353,
0.00298,-4.450151654,0.00298,5.846884707,
0.003,-7.008163713,0.003,5.846884707,
0.00302,-5.546442536,0.00302,5.481454413,
0.00304,-4.084721359,0.00304,5.846884707,
0.00306,-4.450151654,0.00306,6.212315001,
0.00308,-3.353860771,0.00308,5.116024118,
0.0031,-1.892139594,0.0031,5.846884707,
0.00312,-2.623000183,0.00312,5.846884707,
0.00314,-1.892139594,0.00314,5.481454413,
0.00316,0.3004421707,0.00316,5.846884707,
0.00318,-0.7958487119,0.00318,5.846884707,
0.0032,1.031302759,0.0032,4.750593824,
0.00322,1.762163347,0.00322,5.846884707,
0.00324,1.762163347,0.00324,6.577745295,
0.00326,4.320175407,0.00326,5.481454413,
0.00328,5.051035995,0.00328,5.846884707,
0.0033,5.416466289,0.0033,5.846884707,
0.00332,5.051035995,0.00332,5.116024118,
0.00334,5.416466289,0.00334,5.846884707,
0.00336,5.051035995,0.00336,6.212315001,
0.00338,5.781896583,0.00338,5.846884707,
0.0034,5.416466289,0.0034,5.846884707,
0.00342,5.781896583,0.00342,5.846884707,
0.00344,5.416466289,0.00344,5.846884707,
0.00346,4.320175407,0.00346,5.846884707,
0.00348,5.781896583,0.00348,5.116024118,
0.0035,3.954745112,0.0035,5.481454413,
0.00352,3.223884524,0.00352,5.116024118,
0.00354,3.954745112,0.00354,5.846884707,
0.00356,3.589314818,0.00356,5.846884707,
0.00358,3.223884524,0.00358,5.116024118,
0.0036,2.127593642,0.0036,4.750593824,
0.00362,1.396733053,0.00362,5.481454413,
0.00364,0.3004421707,0.00364,5.116024118,
0.00366,-0.06498812352,0.00366,5.481454413,
0.00368,-1.5267093,0.00368,5.481454413,
0.0037,-1.161279006,0.0037,5.116024118,
0.00372,-2.257569889,0.00372,5.481454413,
0.00374,-1.161279006,0.00374,5.116024118,
0.00376,-4.815581948,0.00376,5.116024118,
0.00378,-4.815581948,0.00378,5.846884707,
0.0038,-4.815581948,0.0038,5.846884707,
0.00382,-5.91187283,0.00382,5.116024118,
0.00384,-5.546442536,0.00384,5.481454413,
0.00386,-6.277303124,0.00386,5.481454413,
0.00388,-4.450151654,0.00388,5.481454413,
0.0039,-4.815581948,0.0039,5.481454413,
0.00392,-4.815581948,0.00392,5.116024118,
0.00394,-5.181012242,0.00394,5.116024118,
0.00396,-4.084721359,0.00396,5.481454413,
0.00398,-4.084721359,0.00398,5.481454413,
0.004,-4.450151654,0.004,5.116024118,
0.00402,-2.988430477,0.00402,5.481454413,
0.00404,-1.892139594,0.00404,5.481454413,
0.00406,-1.892139594,0.00406,5.116024118,
0.00408,-2.988430477,0.00408,5.846884707,
0.0041,0.3004421707,0.0041,5.481454413,
0.00412,1.031302759,0.00412,5.481454413,
0.00414,1.396733053,0.00414,5.481454413,
0.00416,1.762163347,0.00416,5.116024118,
0.00418,2.127593642,0.00418,5.116024118,
0.0042,5.416466289,0.0042,5.116024118,
0.00422,4.320175407,0.00422,5.846884707,
0.00424,4.320175407,0.00424,5.116024118,
0.00426,5.416466289,0.00426,5.481454413,
0.00428,5.416466289,0.00428,5.846884707,
0.0043,5.416466289,0.0043,5.116024118,
0.00432,6.878187466,0.00432,5.116024118,
0.00434,5.416466289,0.00434,5.481454413,
0.00436,5.781896583,0.00436,5.481454413,
0.00438,5.416466289,0.00438,5.116024118,
0.0044,5.051035995,0.0044,5.481454413,
0.00442,3.954745112,0.00442,5.116024118,
0.00444,5.051035995,0.00444,5.481454413,
0.00446,4.685605701,0.00446,5.481454413,
0.00448,2.85845423,0.00448,5.116024118,
0.0045,3.589314818,0.0045,5.481454413,
0.00452,2.127593642,0.00452,5.846884707,
0.00454,0.3004421707,0.00454,5.116024118,
0.00456,0.3004421707,0.00456,5.481454413,
0.00458,1.031302759,0.00458,5.481454413,
0.0046,0.3004421707,0.0046,5.481454413,
0.00462,-1.5267093,0.00462,5.481454413,
0.00464,-3.353860771,0.00464,5.481454413,
0.00466,-2.257569889,0.00466,4.750593824,
0.00468,-2.988430477,0.00468,5.116024118,
0.0047,-3.353860771,0.0047,5.481454413,
0.00472,-4.084721359,0.00472,5.481454413,
0.00474,-3.719291065,0.00474,5.481454413,
0.00476,-4.815581948,0.00476,5.481454413,
0.00478,-7.008163713,0.00478,5.846884707,
0.0048,-4.815581948,0.0048,5.481454413,
0.00482,-5.546442536,0.00482,5.116024118,
0.00484,-5.546442536,0.00484,5.116024118,
0.00486,-5.546442536,0.00486,5.846884707,
0.00488,-4.450151654,0.00488,6.212315001,
0.0049,-4.450151654,0.0049,5.846884707,
0.00492,-3.353860771,0.00492,5.481454413,
0.00494,-2.623000183,0.00494,5.481454413,
0.00496,-2.257569889,0.00496,5.846884707,
0.00498,-1.892139594,0.00498,5.116024118,
0.005,-1.161279006,0.005,5.481454413,
0.00502,-0.4304184177,0.00502,5.481454413,
0.00504,-0.06498812352,0.00504,5.481454413,
0.00506,1.031302759,0.00506,5.481454413,
0.00508,1.762163347,0.00508,4.38516353,
0.0051,2.127593642,0.0051,5.481454413,
0.00512,2.85845423,0.00512,5.481454413,
0.00514,3.589314818,0.00514,4.750593824,
0.00516,4.320175407,0.00516,5.481454413,
0.00518,3.954745112,0.00518,5.116024118,
0.0052,4.320175407,0.0052,5.116024118,
0.00522,7.974478348,0.00522,5.481454413,
0.00524,5.781896583,0.00524,5.481454413,
0.00526,4.320175407,0.00526,5.116024118,
0.00528,6.147326877,0.00528,5.116024118,
0.0053,5.781896583,0.0053,5.481454413,
0.00532,4.685605701,0.00532,5.116024118,
0.00534,5.051035995,0.00534,5.116024118,
0.00536,4.320175407,0.00536,5.481454413,
0.00538,4.685605701,0.00538,6.577745295,
0.0054,3.954745112,0.0054,5.481454413,
0.00542,3.223884524,0.00542,5.116024118,
0.00544,2.493023936,0.00544,6.212315001,
0.00546,1.396733053,0.00546,5.481454413,
0.00548,0.3004421707,0.00548,4.38516353,
0.0055,-1.161279006,0.0055,6.212315001,
0.00552,-1.161279006,0.00552,5.481454413,
0.00554,-3.719291065,0.00554,4.38516353,
0.00556,-1.892139594,0.00556,6.212315001,
0.00558,-2.623000183,0.00558,6.212315001,
0.0056,-1.892139594,0.0056,5.116024118,
0.00562,-2.988430477,0.00562,6.212315001,
0.00564,-4.450151654,0.00564,5.481454413,
0.00566,-4.084721359,0.00566,5.481454413,
0.00568,-4.450151654,0.00568,5.481454413,
0.0057,-7.739024301,0.0057,5.846884707,
0.00572,-4.450151654,0.00572,5.481454413,
0.00574,-4.815581948,0.00574,5.846884707,
0.00576,-4.450151654,0.00576,5.116024118,
0.00578,-4.815581948,0.00578,6.212315001,
0.0058,-4.084721359,0.0058,5.116024118,
0.00582,-4.450151654,0.00582,5.846884707,
0.00584,-3.353860771,0.00584,5.846884707,
0.00586,-3.353860771,0.00586,5.846884707,
0.00588,-2.988430477,0.00588,5.481454413,
0.0059,-2.623000183,0.0059,5.846884707,
0.00592,-1.161279006,0.00592,6.212315001,
0.00594,-0.7958487119,0.00594,5.846884707,
0.00596,0.3004421707,0.00596,5.481454413,
0.00598,0.3004421707,0.00598,5.846884707,
0.006,2.493023936,0.006,5.481454413,
0.00602,1.031302759,0.00602,5.846884707,
0.00604,4.320175407,0.00604,5.846884707,
0.00606,3.223884524,0.00606,5.481454413,
0.00608,3.589314818,0.00608,5.116024118,
0.0061,2.85845423,0.0061,6.212315001,
0.00612,4.320175407,0.00612,5.481454413,
0.00614,4.320175407,0.00614,5.481454413,
0.00616,6.147326877,0.00616,6.943175589,
0.00618,4.685605701,0.00618,6.212315001,
0.0062,5.051035995,0.0062,5.116024118,
0.00622,5.051035995,0.00622,5.846884707,
0.00624,5.051035995,0.00624,5.481454413,
0.00626,5.416466289,0.00626,5.481454413,
0.00628,5.051035995,0.00628,5.846884707,
0.0063,8.705338937,0.0063,5.481454413,
0.00632,4.685605701,0.00632,5.846884707,
0.00634,2.85845423,0.00634,5.481454413,
0.00636,3.223884524,0.00636,5.116024118,
0.00638,2.493023936,0.00638,5.846884707,
0.0064,1.396733053,0.0064,5.481454413,
0.00642,0.6658724648,0.00642,5.116024118,
0.00644,-0.4304184177,0.00644,5.481454413,
0.00646,-1.5267093,0.00646,5.846884707,
0.00648,-1.892139594,0.00648,5.116024118,
0.0065,-2.988430477,0.0065,5.481454413,
0.00652,-2.623000183,0.00652,5.481454413,
0.00654,-5.181012242,0.00654,5.116024118,
0.00656,-5.181012242,0.00656,5.481454413,
0.00658,-3.353860771,0.00658,5.846884707,
0.0066,-5.181012242,0.0066,5.116024118,
0.00662,-4.815581948,0.00662,5.481454413,
0.00664,-4.450151654,0.00664,5.846884707,
0.00666,-5.546442536,0.00666,5.481454413,
0.00668,-4.815581948,0.00668,5.481454413,
0.0067,-4.450151654,0.0067,5.846884707,
0.00672,-4.815581948,0.00672,5.116024118,
0.00674,-4.815581948,0.00674,5.846884707,
0.00676,-4.450151654,0.00676,5.481454413,
0.00678,-4.084721359,0.00678,5.481454413,
0.0068,-2.988430477,0.0068,5.481454413,
0.00682,-4.084721359,0.00682,5.481454413,
0.00684,-1.892139594,0.00684,5.481454413,
0.00686,-0.7958487119,0.00686,5.481454413,
0.00688,-0.4304184177,0.00688,5.481454413,
0.0069,-0.4304184177,0.0069,5.481454413,
0.00692,-0.7958487119,0.00692,5.481454413,
0.00694,-0.4304184177,0.00694,5.481454413,
0.00696,2.127593642,0.00696,5.116024118,
0.00698,2.493023936,0.00698,5.481454413,
0.007,2.85845423,0.007,5.481454413,
0.00702,2.493023936,0.00702,5.116024118,
0.00704,5.051035995,0.00704,5.116024118,
0.00706,4.685605701,0.00706,5.116024118,
0.00708,3.954745112,0.00708,5.116024118,
0.0071,6.512757172,0.0071,5.481454413,
0.00712,6.147326877,0.00712,5.481454413,
0.00714,5.416466289,0.00714,5.116024118,
0.00716,6.512757172,0.00716,5.846884707,
0.00718,5.781896583,0.00718,5.116024118,
0.0072,5.051035995,0.0072,5.116024118,
0.00722,3.223884524,0.00722,5.481454413,
0.00724,5.781896583,0.00724,5.116024118,
0.00726,3.954745112,0.00726,5.116024118,
0.00728,3.954745112,0.00728,5.846884707,
0.0073,3.223884524,0.0073,5.116024118,
0.00732,1.396733053,0.00732,5.116024118,
0.00734,2.127593642,0.00734,5.481454413,
0.00736,-0.7958487119,0.00736,5.481454413,
0.00738,-1.892139594,0.00738,4.38516353,
0.0074,-2.257569889,0.0074,6.212315001,
0.00742,-1.5267093,0.00742,5.116024118,
0.00744,-1.892139594,0.00744,5.116024118,
0.00746,-2.988430477,0.00746,5.846884707,
0.00748,-2.988430477,0.00748,5.846884707,
0.0075,-3.353860771,0.0075,4.750593824,
0.00752,-3.719291065,0.00752,5.481454413,
0.00754,-4.084721359,0.00754,5.116024118,
0.00756,-6.277303124,0.00756,5.481454413,
0.00758,-6.642733419,0.00758,5.481454413,
0.0076,-5.546442536,0.0076,5.846884707,
0.00762,-5.91187283,0.00762,5.116024118,
0.00764,-5.546442536,0.00764,5.481454413,
0.00766,-5.546442536,0.00766,5.481454413,
0.00768,-4.450151654,0.00768,5.116024118,
0.0077,-4.084721359,0.0077,4.750593824,
0.00772,-2.623000183,0.00772,5.846884707,
0.00774,-4.084721359,0.00774,5.481454413,
0.00776,-4.450151654,0.00776,5.846884707,
0.00778,-1.5267093,0.00778,5.481454413,
0.0078,-2.988430477,0.0078,4.750593824,
0.00782,-0.7958487119,0.00782,5.481454413,
0.00784,0.3004421707,0.00784,5.481454413,
0.00786,1.031302759,0.00786,5.116024118,
0.00788,2.493023936,0.00788,5.481454413,
0.0079,1.762163347,0.0079,5.846884707,
0.00792,2.85845423,0.00792,5.116024118,
0.00794,2.493023936,0.00794,5.846884707,
0.00796,3.589314818,0.00796,5.481454413,
0.00798,3.954745112,0.00798,5.116024118,
0.008,6.147326877,0.008,4.019733236,
0.00802,6.147326877,0.00802,5.481454413,
0.00804,6.147326877,0.00804,5.116024118,
0.00806,5.051035995,0.00806,5.481454413,
0.00808,5.781896583,0.00808,5.481454413,
0.0081,6.512757172,0.0081,5.116024118,
0.00812,5.051035995,0.00812,5.846884707,
0.00814,5.416466289,0.00814,5.116024118,
0.00816,4.320175407,0.00816,4.750593824,
0.00818,4.685605701,0.00818,5.481454413,
0.0082,2.493023936,0.0082,6.212315001,
0.00822,0.6658724648,0.00822,5.846884707,
0.00824,2.493023936,0.00824,5.481454413,
0.00826,0.3004421707,0.00826,5.481454413,
0.00828,3.589314818,0.00828,5.846884707,
0.0083,0.3004421707,0.0083,4.019733236,
0.00832,-3.719291065,0.00832,5.481454413,
0.00834,-1.161279006,0.00834,5.846884707,
0.00836,-2.623000183,0.00836,5.116024118,
0.00838,-2.988430477,0.00838,5.481454413,
0.0084,-2.257569889,0.0084,6.577745295,
0.00842,-2.988430477,0.00842,5.481454413,
0.00844,-4.450151654,0.00844,5.481454413,
0.00846,-5.181012242,0.00846,6.212315001,
0.00848,-4.084721359,0.00848,5.481454413,
0.0085,-5.91187283,0.0085,6.212315001,
0.00852,-5.91187283,0.00852,5.481454413,
0.00854,-4.815581948,0.00854,5.481454413,
0.00856,-5.181012242,0.00856,5.116024118,
0.00858,-6.277303124,0.00858,5.481454413,
0.0086,-4.084721359,0.0086,4.38516353,
0.00862,-4.450151654,0.00862,5.116024118,
0.00864,-4.450151654,0.00864,6.212315001,
0.00866,-5.91187283,0.00866,5.481454413,
0.00868,-4.450151654,0.00868,5.116024118,
0.0087,-3.353860771,0.0087,6.212315001,
0.00872,-1.5267093,0.00872,5.846884707,
0.00874,-1.161279006,0.00874,4.750593824,
0.00876,-0.4304184177,0.00876,5.481454413,
0.00878,0.6658724648,0.00878,5.481454413,
0.0088,0.6658724648,0.0088,5.481454413,
0.00882,1.762163347,0.00882,6.212315001,
0.00884,2.493023936,0.00884,5.116024118,
0.00886,2.493023936,0.00886,5.116024118,
0.00888,3.954745112,0.00888,6.212315001,
0.0089,3.223884524,0.0089,4.750593824,
0.00892,5.416466289,0.00892,5.481454413,
0.00894,5.051035995,0.00894,6.212315001,
0.00896,5.051035995,0.00896,5.846884707,
0.00898,5.051035995,0.00898,4.750593824,
0.009,6.512757172,0.009,5.116024118,
0.00902,5.781896583,0.00902,5.481454413,
0.00904,4.685605701,0.00904,5.481454413,
0.00906,5.416466289,0.00906,5.846884707,
0.00908,5.051035995,0.00908,5.481454413,
0.0091,5.051035995,0.0091,5.481454413,
0.00912,4.320175407,0.00912,5.846884707,
0.00914,3.223884524,0.00914,5.116024118,
0.00916,1.396733053,0.00916,5.481454413,
0.00918,2.127593642,0.00918,5.846884707,
0.0092,1.031302759,0.0092,5.481454413,
0.00922,-0.4304184177,0.00922,5.116024118,
0.00924,1.762163347,0.00924,5.846884707,
0.00926,-1.161279006,0.00926,5.481454413,
0.00928,-1.5267093,0.00928,5.116024118,
0.0093,-2.988430477,0.0093,5.846884707,
0.00932,-1.161279006,0.00932,5.846884707,
0.00934,-3.719291065,0.00934,5.116024118,
0.00936,-4.815581948,0.00936,5.846884707,
0.00938,-4.815581948,0.00938,5.481454413,
0.0094,-8.469884889,0.0094,5.846884707,
0.00942,-6.642733419,0.00942,6.212315001,
0.00944,-6.277303124,0.00944,5.846884707,
0.00946,-5.91187283,0.00946,5.116024118,
0.00948,-5.91187283,0.00948,5.846884707,
0.0095,-5.181012242,0.0095,5.116024118,
0.00952,-5.91187283,0.00952,5.116024118,
0.00954,-5.91187283,0.00954,6.212315001,
0.00956,-4.815581948,0.00956,5.481454413,
0.00958,-2.257569889,0.00958,5.481454413,
0.0096,-5.546442536,0.0096,5.846884707,
0.00962,-4.084721359,0.00962,5.481454413,
0.00964,-2.988430477,0.00964,5.116024118,
0.00966,-1.5267093,0.00966,5.846884707,
0.00968,-1.161279006,0.00968,5.846884707,
0.0097,-0.4304184177,0.0097,5.481454413,
0.00972,0.3004421707,0.00972,5.846884707,
0.00974,3.954745112,0.00974,5.481454413,
0.00976,1.396733053,0.00976,5.481454413,
0.00978,2.493023936,0.00978,6.212315001,
0.0098,2.127593642,0.0098,5.481454413,
0.00982,2.85845423,0.00982,5.481454413,
0.00984,3.223884524,0.00984,5.481454413,
0.00986,5.781896583,0.00986,5.481454413,
0.00988,5.051035995,0.00988,5.481454413,
0.0099,5.781896583,0.0099,5.846884707,
0.00992,5.051035995,0.00992,5.481454413,
0.00994,3.954745112,0.00994,6.212315001,
0.00996,5.416466289,0.00996,6.212315001,
0.00998,5.051035995,0.00998,5.481454413,
0.01,4.685605701,0.01,5.846884707,
0.01002,4.320175407,0.01002,5.846884707,
0.01004,5.781896583,0.01004,5.846884707,
0.01006,5.051035995,0.01006,5.116024118,
0.01008,3.223884524,0.01008,5.846884707,
0.0101,1.396733053,0.0101,5.481454413,
0.01012,2.127593642,0.01012,5.481454413,
0.01014,1.031302759,0.01014,5.846884707,
0.01016,0.6658724648,0.01016,5.846884707,
0.01018,0.6658724648,0.01018,6.212315001,
0.0102,-1.892139594,0.0102,5.481454413,
0.01022,-1.5267093,0.01022,5.481454413,
0.01024,-1.5267093,0.01024,6.212315001,
0.01026,-2.623000183,0.01026,5.481454413,
0.01028,-2.988430477,0.01028,5.846884707,
0.0103,-4.084721359,0.0103,5.846884707,
0.01032,-5.91187283,0.01032,5.846884707,
0.01034,-4.815581948,0.01034,5.846884707,
0.01036,-5.181012242,0.01036,5.846884707,
0.01038,-4.815581948,0.01038,5.846884707,
0.0104,-4.815581948,0.0104,5.481454413,
0.01042,-5.181012242,0.01042,5.116024118,
0.01044,-5.91187283,0.01044,6.212315001,
0.01046,-4.815581948,0.01046,5.116024118,
0.01048,-4.815581948,0.01048,5.846884707,
0.0105,-3.719291065,0.0105,5.846884707,
0.01052,-3.719291065,0.01052,5.116024118,
0.01054,-2.988430477,0.01054,5.481454413,
0.01056,-2.623000183,0.01056,5.481454413,
0.01058,-1.5267093,0.01058,5.846884707,
0.0106,-1.161279006,0.0106,6.212315001,
0.01062,-0.7958487119,0.01062,6.577745295,
0.01064,-0.06498812352,0.01064,5.846884707,
0.01066,1.031302759,0.01066,6.212315001,
0.01068,1.396733053,0.01068,5.846884707,
0.0107,1.762163347,0.0107,5.846884707,
0.01072,2.493023936,0.01072,6.212315001,
0.01074,3.954745112,0.01074,5.846884707,
0.01076,4.685605701,0.01076,5.481454413,
0.01078,4.685605701,0.01078,5.846884707,
0.0108,3.954745112,0.0108,5.481454413,
0.01082,5.781896583,0.01082,4.750593824,
0.01084,5.051035995,0.01084,5.846884707,
0.01086,5.416466289,0.01086,5.846884707,
0.01088,5.051035995,0.01088,5.481454413,
0.0109,5.416466289,0.0109,5.481454413,
0.01092,5.781896583,0.01092,6.212315001,
0.01094,5.416466289,0.01094,5.116024118,
0.01096,5.051035995,0.01096,5.116024118,
0.01098,3.223884524,0.01098,5.481454413,
0.011,4.320175407,0.011,5.481454413,
0.01102,2.85845423,0.01102,4.750593824,
0.01104,2.127593642,0.01104,5.116024118,
0.01106,2.127593642,0.01106,5.481454413,
0.01108,1.762163347,0.01108,5.846884707,
0.0111,-0.4304184177,0.0111,5.481454413,
0.01112,-0.4304184177,0.01112,5.116024118,
0.01114,-1.5267093,0.01114,5.846884707,
0.01116,0.6658724648,0.01116,5.846884707,
0.01118,-3.353860771,0.01118,5.846884707,
0.0112,-4.084721359,0.0112,5.481454413,
0.01122,-3.353860771,0.01122,6.943175589,
0.01124,-4.450151654,0.01124,5.481454413,
0.01126,-4.815581948,0.01126,5.116024118,
0.01128,-6.277303124,0.01128,6.212315001,
0.0113,-6.642733419,0.0113,6.577745295,
0.01132,-5.546442536,0.01132,5.116024118,
0.01134,-6.277303124,0.01134,6.943175589,
0.01136,-6.277303124,0.01136,5.116024118,
0.01138,-4.084721359,0.01138,5.116024118,
0.0114,-4.815581948,0.0114,5.846884707,
0.01142,-5.546442536,0.01142,6.212315001,
0.01144,-2.623000183,0.01144,5.481454413,
0.01146,-2.988430477,0.01146,5.846884707,
0.01148,-3.719291065,0.01148,5.481454413,
0.0115,-1.5267093,0.0115,5.116024118,
0.01152,-2.257569889,0.01152,5.116024118,
0.01154,-1.5267093,0.01154,5.481454413,
0.01156,-1.892139594,0.01156,5.116024118,
0.01158,0.6658724648,0.01158,5.481454413,
0.0116,1.031302759,0.0116,5.846884707,
0.01162,-1.892139594,0.01162,5.846884707,
0.01164,1.031302759,0.01164,5.846884707,
0.01166,3.223884524,0.01166,5.481454413,
0.01168,2.85845423,0.01168,5.481454413,
0.0117,4.685605701,0.0117,6.212315001,
0.01172,3.954745112,0.01172,5.116024118,
0.01174,5.051035995,0.01174,5.116024118,
0.01176,5.051035995,0.01176,6.212315001,
0.01178,5.781896583,0.01178,5.481454413,
0.0118,5.416466289,0.0118,5.116024118,
0.01182,5.781896583,0.01182,6.577745295,
0.01184,5.051035995,0.01184,5.481454413,
0.01186,5.051035995,0.01186,5.116024118,
0.01188,4.685605701,0.01188,6.212315001,
0.0119,4.320175407,0.0119,5.116024118,
0.01192,3.954745112,0.01192,5.116024118,
0.01194,2.85845423,0.01194,5.846884707,
0.01196,2.85845423,0.01196,5.481454413,
0.01198,1.762163347,0.01198,5.481454413,
0.012,2.493023936,0.012,6.212315001,
0.01202,1.762163347,0.01202,4.750593824,
0.01204,-2.257569889,0.01204,5.481454413,
0.01206,-0.7958487119,0.01206,5.846884707,
0.01208,-1.892139594,0.01208,5.481454413,
0.0121,-2.988430477,0.0121,5.116024118,
0.01212,-2.988430477,0.01212,5.846884707,
0.01214,-2.623000183,0.01214,5.481454413,
0.01216,-4.450151654,0.01216,5.116024118,
0.01218,-4.815581948,0.01218,5.846884707,
0.0122,-5.181012242,0.0122,5.481454413,
0.01222,-5.181012242,0.01222,5.116024118,
0.01224,-7.008163713,0.01224,5.846884707,
0.01226,-6.277303124,0.01226,5.481454413,
0.01228,-6.277303124,0.01228,5.116024118,
0.0123,-4.450151654,0.0123,6.212315001,
0.01232,-4.815581948,0.01232,5.481454413,
0.01234,-5.546442536,0.01234,5.116024118,
0.01236,-6.277303124,0.01236,6.212315001,
0.01238,-5.181012242,0.01238,5.481454413,
0.0124,-4.084721359,0.0124,5.116024118,
0.01242,-4.815581948,0.01242,5.846884707,
0.01244,-3.719291065,0.01244,5.481454413,
0.01246,-2.257569889,0.01246,5.481454413,
0.01248,-0.4304184177,0.01248,6.212315001,
0.0125,-0.7958487119,0.0125,5.481454413,
0.01252,-1.5267093,0.01252,5.481454413,
0.01254,2.127593642,0.01254,5.846884707,
0.01256,2.127593642,0.01256,5.481454413,
0.01258,2.493023936,0.01258,4.750593824,
0.0126,3.223884524,0.0126,5.481454413,
0.01262,3.954745112,0.01262,5.846884707,
0.01264,3.954745112,0.01264,5.481454413,
0.01266,4.685605701,0.01266,6.212315001,
0.01268,7.24361776,0.01268,5.846884707,
0.0127,5.051035995,0.0127,5.481454413,
0.01272,4.685605701,0.01272,6.212315001,
0.01274,5.416466289,0.01274,5.116024118,
0.01276,5.781896583,0.01276,5.116024118,
0.01278,5.781896583,0.01278,5.481454413,
0.0128,4.685605701,0.0128,5.116024118,
0.01282,4.685605701,0.01282,5.481454413,
0.01284,3.589314818,0.01284,6.577745295,
0.01286,3.223884524,0.01286,5.481454413,
0.01288,2.127593642,0.01288,5.481454413,
0.0129,3.589314818,0.0129,6.212315001,
0.01292,1.762163347,0.01292,5.481454413,
0.01294,1.396733053,0.01294,5.481454413,
0.01296,0.6658724648,0.01296,5.846884707,
0.01298,-0.7958487119,0.01298,5.481454413,
0.013,-0.4304184177,0.013,5.481454413,
0.01302,-1.5267093,0.01302,5.846884707,
0.01304,-1.161279006,0.01304,5.846884707,
0.01306,-4.084721359,0.01306,5.481454413,
0.01308,-4.084721359,0.01308,5.846884707,
0.0131,-6.277303124,0.0131,5.846884707,
0.01312,-4.815581948,0.01312,5.481454413,
0.01314,-4.815581948,0.01314,5.481454413,
0.01316,-5.546442536,0.01316,5.846884707,
0.01318,-5.181012242,0.01318,5.481454413,
0.0132,-5.181012242,0.0132,5.846884707,
0.01322,-5.181012242,0.01322,5.481454413,
0.01324,-6.277303124,0.01324,5.481454413,
0.01326,-4.815581948,0.01326,6.212315001,
0.01328,-5.181012242,0.01328,5.846884707,
0.0133,-3.719291065,0.0133,5.481454413,
0.01332,-4.084721359,0.01332,5.846884707,
0.01334,-3.353860771,0.01334,4.750593824,
0.01336,-2.988430477,0.01336,5.116024118,
0.01338,-4.084721359,0.01338,6.212315001,
0.0134,-0.7958487119,0.0134,5.481454413,
0.01342,-1.161279006,0.01342,5.481454413,
0.01344,0.6658724648,0.01344,6.943175589,
0.01346,0.6658724648,0.01346,5.846884707,
0.01348,2.493023936,0.01348,5.481454413,
0.0135,1.396733053,0.0135,5.481454413,
0.01352,2.127593642,0.01352,5.481454413,
0.01354,3.589314818,0.01354,5.846884707,
0.01356,4.685605701,0.01356,6.212315001,
0.01358,4.685605701,0.01358,5.846884707,
0.0136,5.416466289,0.0136,5.846884707,
0.01362,5.051035995,0.01362,6.212315001,
0.01364,5.051035995,0.01364,4.750593824,
0.01366,5.781896583,0.01366,5.481454413,
0.01368,5.416466289,0.01368,5.846884707,
0.0137,4.685605701,0.0137,5.846884707,
0.01372,5.781896583,0.01372,5.481454413,
0.01374,4.320175407,0.01374,5.481454413,
0.01376,4.685605701,0.01376,5.846884707,
0.01378,4.685605701,0.01378,5.846884707,
0.0138,3.589314818,0.0138,5.846884707,
0.01382,-0.06498812352,0.01382,5.481454413,
0.01384,1.762163347,0.01384,7.308605883,
0.01386,1.396733053,0.01386,6.212315001,
0.01388,0.3004421707,0.01388,5.481454413,
0.0139,0.3004421707,0.0139,6.212315001,
0.01392,-0.4304184177,0.01392,6.212315001,
0.01394,0.3004421707,0.01394,4.750593824,
0.01396,-1.5267093,0.01396,5.481454413,
0.01398,-2.988430477,0.01398,5.846884707,
0.014,-3.719291065,0.014,5.846884707,
0.01402,-3.353860771,0.01402,6.212315001,
0.01404,-3.719291065,0.01404,5.846884707,
0.01406,-4.450151654,0.01406,5.846884707,
0.01408,-4.450151654,0.01408,5.481454413,
0.0141,-5.181012242,0.0141,6.212315001,
0.01412,-5.546442536,0.01412,5.846884707,
0.01414,-4.084721359,0.01414,6.212315001,
0.01416,-6.642733419,0.01416,5.846884707,
0.01418,-5.546442536,0.01418,6.212315001,
0.0142,-4.450151654,0.0142,5.116024118,
0.01422,-3.353860771,0.01422,5.846884707,
0.01424,-4.084721359,0.01424,4.750593824,
0.01426,-1.892139594,0.01426,5.481454413,
0.01428,-3.353860771,0.01428,6.212315001,
0.0143,-2.988430477,0.0143,5.846884707,
0.01432,-1.161279006,0.01432,5.481454413,
0.01434,0.3004421707,0.01434,6.943175589,
0.01436,-0.7958487119,0.01436,6.212315001,
0.01438,-0.06498812352,0.01438,5.481454413,
0.0144,1.396733053,0.0144,5.846884707,
0.01442,1.396733053,0.01442,5.846884707,
0.01444,2.493023936,0.01444,4.750593824,
0.01446,2.85845423,0.01446,5.846884707,
0.01448,3.589314818,0.01448,5.846884707,
0.0145,4.685605701,0.0145,5.481454413,
0.01452,5.416466289,0.01452,5.846884707,
0.01454,5.051035995,0.01454,6.577745295,
0.01456,5.051035995,0.01456,5.481454413,
0.01458,6.147326877,0.01458,5.846884707,
0.0146,5.051035995,0.0146,5.481454413,
0.01462,6.512757172,0.01462,5.481454413,
0.01464,5.781896583,0.01464,5.846884707,
0.01466,4.685605701,0.01466,5.846884707,
0.01468,6.878187466,0.01468,5.481454413,
0.0147,5.416466289,0.0147,5.846884707,
0.01472,3.954745112,0.01472,5.846884707,
0.01474,1.762163347,0.01474,5.116024118,
0.01476,3.954745112,0.01476,6.212315001,
0.01478,1.031302759,0.01478,5.481454413,
0.0148,1.396733053,0.0148,5.481454413,
0.01482,0.6658724648,0.01482,5.846884707,
0.01484,-0.7958487119,0.01484,5.846884707,
0.01486,-1.161279006,0.01486,5.481454413,
0.01488,-1.161279006,0.01488,5.481454413,
0.0149,-2.988430477,0.0149,5.116024118,
0.01492,-2.623000183,0.01492,5.116024118,
0.01494,-3.353860771,0.01494,5.116024118,
0.01496,-3.719291065,0.01496,5.116024118,
0.01498,-4.450151654,0.01498,5.116024118,
0.015,-5.546442536,0.015,4.750593824,
0.01502,-5.181012242,0.01502,5.846884707,
0.01504,-4.450151654,0.01504,5.846884707,
0.01506,-4.450151654,0.01506,5.481454413,
0.01508,-5.546442536,0.01508,5.846884707,
0.0151,-4.815581948,0.0151,5.846884707,
0.01512,-5.181012242,0.01512,5.116024118,
0.01514,-4.450151654,0.01514,5.846884707,
0.01516,-4.450151654,0.01516,5.481454413,
0.01518,-3.719291065,0.01518,4.750593824,
0.0152,-2.988430477,0.0152,5.481454413,
0.01522,-2.257569889,0.01522,5.481454413,
0.01524,-2.988430477,0.01524,5.116024118,
0.01526,-2.623000183,0.01526,5.481454413,
0.01528,-0.06498812352,0.01528,6.212315001,
0.0153,-0.06498812352,0.0153,4.750593824,
0.01532,0.6658724648,0.01532,5.481454413,
0.01534,-0.7958487119,0.01534,5.481454413,
0.01536,3.223884524,0.01536,4.750593824,
0.01538,3.589314818,0.01538,5.846884707,
0.0154,2.85845423,0.0154,5.481454413,
0.01542,3.954745112,0.01542,5.116024118,
0.01544,5.051035995,0.01544,5.481454413,
0.01546,5.416466289,0.01546,5.846884707,
0.01548,4.685605701,0.01548,5.481454413,
0.0155,6.147326877,0.0155,5.481454413,
0.01552,5.416466289,0.01552,5.481454413,
0.01554,5.416466289,0.01554,5.116024118,
0.01556,6.512757172,0.01556,5.481454413,
0.01558,5.781896583,0.01558,5.846884707,
0.0156,5.051035995,0.0156,5.116024118,
0.01562,4.685605701,0.01562,5.846884707,
0.01564,3.954745112,0.01564,5.116024118,
0.01566,3.954745112,0.01566,5.481454413,
0.01568,3.954745112,0.01568,5.116024118,
0.0157,2.493023936,0.0157,5.116024118,
0.01572,1.031302759,0.01572,5.116024118,
0.01574,0.6658724648,0.01574,5.481454413,
0.01576,-0.06498812352,0.01576,5.481454413,
0.01578,-0.7958487119,0.01578,5.116024118,
0.0158,-1.161279006,0.0158,5.481454413,
0.01582,-2.257569889,0.01582,5.481454413,
0.01584,-3.353860771,0.01584,5.116024118,
0.01586,-2.988430477,0.01586,5.116024118,
0.01588,-3.353860771,0.01588,4.750593824,
0.0159,-5.181012242,0.0159,5.116024118,
0.01592,-4.450151654,0.01592,5.846884707,
0.01594,-2.623000183,0.01594,5.481454413,
0.01596,-2.623000183,0.01596,5.116024118,
0.01598,-4.815581948,0.01598,5.116024118,
0.016,-5.91187283,0.016,4.750593824,
0.01602,-5.181012242,0.01602,5.481454413,
0.01604,-4.815581948,0.01604,5.481454413,
0.01606,-4.450151654,0.01606,5.481454413,
0.01608,-4.815581948,0.01608,5.846884707,
0.0161,-4.084721359,0.0161,5.481454413,
0.01612,-3.719291065,0.01612,5.481454413,
0.01614,-1.5267093,0.01614,5.846884707,
0.01616,-2.623000183,0.01616,5.846884707,
0.01618,-2.257569889,0.01618,5.481454413,
0.0162,-1.892139594,0.0162,5.481454413,
0.01622,-0.4304184177,0.01622,5.481454413,
0.01624,-0.4304184177,0.01624,5.846884707,
0.01626,0.6658724648,0.01626,5.116024118,
0.01628,-0.4304184177,0.01628,5.481454413,
0.0163,1.762163347,0.0163,5.481454413,
0.01632,2.493023936,0.01632,5.481454413,
0.01634,3.223884524,0.01634,5.481454413,
0.01636,2.493023936,0.01636,5.481454413,
0.01638,3.954745112,0.01638,5.481454413,
0.0164,5.416466289,0.0164,6.212315001,
0.01642,5.416466289,0.01642,5.846884707,
0.01644,5.781896583,0.01644,5.846884707,
0.01646,5.416466289,0.01646,5.481454413,
0.01648,5.416466289,0.01648,5.846884707,
0.0165,6.512757172,0.0165,5.481454413,
0.01652,7.609048054,0.01652,5.846884707,
0.01654,4.685605701,0.01654,5.846884707,
0.01656,3.954745112,0.01656,5.846884707,
0.01658,3.589314818,0.01658,5.481454413,
0.0166,3.954745112,0.0166,5.481454413,
0.01662,2.85845423,0.01662,5.846884707,
0.01664,2.127593642,0.01664,5.846884707,
0.01666,-1.5267093,0.01666,4.750593824,
0.01668,1.031302759,0.01668,5.481454413,
0.0167,1.396733053,0.0167,6.212315001,
0.01672,-0.7958487119,0.01672,6.577745295,
0.01674,-0.7958487119,0.01674,5.481454413,
0.01676,-1.892139594,0.01676,5.846884707,
0.01678,-3.719291065,0.01678,5.846884707,
0.0168,-2.988430477,0.0168,5.116024118,
0.01682,-3.353860771,0.01682,5.846884707,
0.01684,-3.353860771,0.01684,5.846884707,
0.01686,-5.181012242,0.01686,6.577745295,
0.01688,-4.815581948,0.01688,5.846884707,
0.0169,-6.277303124,0.0169,5.481454413,
0.01692,-4.815581948,0.01692,5.846884707,
0.01694,-4.815581948,0.01694,6.212315001,
0.01696,-5.181012242,0.01696,6.943175589,
0.01698,-1.892139594,0.01698,5.481454413,
0.017,-5.546442536,0.017,5.846884707,
0.01702,-5.181012242,0.01702,5.846884707,
0.01704,-3.353860771,0.01704,5.481454413,
0.01706,-2.988430477,0.01706,5.116024118,
0.01708,-3.353860771,0.01708,5.846884707,
0.0171,-2.623000183,0.0171,5.846884707,
0.01712,-1.161279006,0.01712,5.846884707,
0.01714,-1.161279006,0.01714,5.846884707,
0.01716,-0.06498812352,0.01716,6.212315001,
0.01718,-0.06498812352,0.01718,6.212315001,
0.0172,0.3004421707,0.0172,5.481454413,
0.01722,1.031302759,0.01722,5.481454413,
0.01724,2.85845423,0.01724,5.846884707,
0.01726,2.493023936,0.01726,5.481454413,
0.01728,4.320175407,0.01728,5.846884707,
0.0173,3.223884524,0.0173,5.846884707,
0.01732,3.223884524,0.01732,5.481454413,
0.01734,5.051035995,0.01734,5.481454413,
0.01736,5.051035995,0.01736,5.481454413,
0.01738,2.85845423,0.01738,5.846884707,
0.0174,5.416466289,0.0174,5.481454413,
0.01742,6.147326877,0.01742,5.846884707,
0.01744,5.051035995,0.01744,5.846884707,
0.01746,5.051035995,0.01746,6.212315001,
0.01748,3.223884524,0.01748,5.846884707,
0.0175,3.589314818,0.0175,5.481454413,
0.01752,5.781896583,0.01752,5.846884707,
0.01754,2.493023936,0.01754,5.846884707,
0.01756,2.493023936,0.01756,6.212315001,
0.01758,4.685605701,0.01758,5.846884707,
0.0176,1.396733053,0.0176,5.846884707,
0.01762,-0.06498812352,0.01762,5.481454413,
0.01764,0.3004421707,0.01764,5.846884707,
0.01766,-2.623000183,0.01766,5.846884707,
0.01768,-0.7958487119,0.01768,6.212315001,
0.0177,-1.892139594,0.0177,5.481454413,
0.01772,-3.353860771,0.01772,5.481454413,
0.01774,-3.353860771,0.01774,5.481454413,
0.01776,-3.719291065,0.01776,5.116024118,
0.01778,-7.008163713,0.01778,5.116024118,
0.0178,-4.815581948,0.0178,5.481454413,
0.01782,-4.815581948,0.01782,5.481454413,
0.01784,-3.719291065,0.01784,5.846884707,
0.01786,-4.815581948,0.01786,5.846884707,
0.01788,-5.91187283,0.01788,5.481454413,
0.0179,-5.546442536,0.0179,5.116024118,
0.01792,-4.815581948,0.01792,5.481454413,
0.01794,-5.181012242,0.01794,5.481454413,
0.01796,-4.450151654,0.01796,5.846884707,
0.01798,-2.257569889,0.01798,5.846884707,
0.018,-2.988430477,0.018,5.481454413,
0.01802,-3.353860771,0.01802,5.116024118,
0.01804,-1.5267093,0.01804,5.846884707,
0.01806,-0.7958487119,0.01806,5.116024118,
0.01808,-0.7958487119,0.01808,5.116024118,
0.0181,1.031302759,0.0181,5.481454413,
0.01812,2.127593642,0.01812,5.481454413,
0.01814,1.031302759,0.01814,5.116024118,
0.01816,2.493023936,0.01816,5.481454413,
0.01818,3.954745112,0.01818,5.116024118,
0.0182,3.223884524,0.0182,5.481454413,
0.01822,5.051035995,0.01822,5.846884707,
0.01824,3.954745112,0.01824,5.846884707,
0.01826,5.416466289,0.01826,5.481454413,
0.01828,6.512757172,0.01828,5.846884707,
0.0183,5.416466289,0.0183,5.481454413,
0.01832,5.416466289,0.01832,5.116024118,
0.01834,5.781896583,0.01834,5.846884707,
0.01836,4.320175407,0.01836,5.481454413,
0.01838,4.320175407,0.01838,5.481454413,
0.0184,3.223884524,0.0184,5.846884707,
0.01842,4.685605701,0.01842,5.481454413,
0.01844,3.954745112,0.01844,5.116024118,
0.01846,2.85845423,0.01846,5.846884707,
0.01848,2.127593642,0.01848,5.481454413,
0.0185,1.762163347,0.0185,5.116024118,
0.01852,3.223884524,0.01852,5.846884707,
0.01854,1.762163347,0.01854,5.116024118,
0.01856,-0.7958487119,0.01856,5.846884707,
0.01858,0.3004421707,0.01858,5.481454413,
0.0186,-0.06498812352,0.0186,5.481454413,
0.01862,-2.257569889,0.01862,5.116024118,
0.01864,-2.623000183,0.01864,5.481454413,
0.01866,-2.623000183,0.01866,5.481454413,
0.01868,-2.623000183,0.01868,5.116024118,
0.0187,-3.719291065,0.0187,5.481454413,
0.01872,-4.084721359,0.01872,5.116024118,
0.01874,-5.181012242,0.01874,5.116024118,
0.01876,-4.084721359,0.01876,5.846884707,
0.01878,-6.277303124,0.01878,5.481454413,
0.0188,-5.546442536,0.0188,4.750593824,
0.01882,-5.181012242,0.01882,5.481454413,
0.01884,-3.353860771,0.01884,5.481454413,
0.01886,-4.815581948,0.01886,5.116024118,
0.01888,-5.546442536,0.01888,5.846884707,
0.0189,-2.623000183,0.0189,5.116024118,
0.01892,-4.450151654,0.01892,5.116024118,
0.01894,-2.988430477,0.01894,5.481454413,
0.01896,-2.257569889,0.01896,5.116024118,
0.01898,-1.5267093,0.01898,5.116024118,
0.019,-0.7958487119,0.019,6.212315001,
0.01902,-1.161279006,0.01902,5.481454413,
0.01904,0.3004421707,0.01904,5.481454413,
0.01906,1.396733053,0.01906,5.481454413,
0.01908,2.493023936,0.01908,5.481454413,
0.0191,1.396733053,0.0191,4.750593824,
0.01912,2.85845423,0.01912,5.116024118,
0.01914,3.954745112,0.01914,5.481454413,
0.01916,3.589314818,0.01916,5.116024118,
0.01918,4.685605701,0.01918,5.481454413,
0.0192,7.974478348,0.0192,5.481454413,
0.01922,6.878187466,0.01922,5.116024118,
0.01924,5.781896583,0.01924,5.846884707,
0.01926,6.147326877,0.01926,5.481454413,
0.01928,5.051035995,0.01928,5.481454413,
0.0193,5.416466289,0.0193,5.116024118,
0.01932,5.416466289,0.01932,5.481454413,
0.01934,4.685605701,0.01934,5.116024118,
0.01936,5.416466289,0.01936,5.481454413,
0.01938,3.223884524,0.01938,5.116024118,
0.0194,6.512757172,0.0194,5.116024118,
0.01942,3.223884524,0.01942,5.481454413,
0.01944,2.127593642,0.01944,5.481454413,
0.01946,1.396733053,0.01946,5.116024118,
0.01948,0.6658724648,0.01948,5.116024118,
0.0195,-0.06498812352,0.0195,5.481454413,
0.01952,-2.257569889,0.01952,5.116024118,
0.01954,-1.161279006,0.01954,5.481454413,
0.01956,-1.892139594,0.01956,5.116024118,
0.01958,-2.623000183,0.01958,5.116024118,
0.0196,-1.892139594,0.0196,5.481454413,
0.01962,-3.719291065,0.01962,5.481454413,
0.01964,-4.084721359,0.01964,5.116024118,
0.01966,-5.181012242,0.01966,5.116024118,
0.01968,-4.084721359,0.01968,5.116024118,
0.0197,-5.181012242,0.0197,5.481454413,
0.01972,-5.546442536,0.01972,5.481454413,
0.01974,-4.450151654,0.01974,5.481454413,
0.01976,-5.546442536,0.01976,5.846884707,
0.01978,-4.084721359,0.01978,5.481454413,
0.0198,-5.181012242,0.0198,5.481454413,
0.01982,-4.450151654,0.01982,5.846884707,
0.01984,-4.450151654,0.01984,5.481454413,
0.01986,-4.084721359,0.01986,5.481454413,
0.01988,-3.719291065,0.01988,6.577745295,
0.0199,-2.988430477,0.0199,5.481454413,
0.01992,-1.892139594,0.01992,5.116024118,
0.01994,-1.5267093,0.01994,6.212315001,
0.01996,-1.892139594,0.01996,5.846884707,
0.01998,-0.4304184177,0.01998,5.116024118,
0.02,1.762163347,0.02,6.212315001,
0.02002,-0.06498812352,0.02002,5.846884707,
0.02004,1.762163347,0.02004,5.481454413,
0.02006,3.223884524,0.02006,5.846884707,
0.02008,3.954745112,0.02008,5.481454413,
0.0201,4.320175407,0.0201,5.481454413,
0.02012,5.051035995,0.02012,5.846884707,
0.02014,3.954745112,0.02014,5.481454413,
0.02016,5.051035995,0.02016,5.116024118,
0.02018,6.512757172,0.02018,6.943175589,
0.0202,5.781896583,0.0202,5.116024118,
0.02022,5.051035995,0.02022,5.481454413,
0.02024,3.954745112,0.02024,5.846884707,
0.02026,5.781896583,0.02026,5.481454413,
0.02028,3.589314818,0.02028,5.846884707,
0.0203,3.589314818,0.0203,5.116024118,
0.02032,3.589314818,0.02032,5.481454413,
0.02034,3.589314818,0.02034,5.481454413,
0.02036,1.396733053,0.02036,6.212315001,
0.02038,1.031302759,0.02038,3.288872648,
0.0204,0.6658724648,0.0204,5.116024118,
0.02042,1.396733053,0.02042,5.481454413,
0.02044,-2.257569889,0.02044,5.481454413,
0.02046,-0.4304184177,0.02046,5.116024118,
0.02048,-1.5267093,0.02048,7.308605883,
0.0205,-2.988430477,0.0205,5.846884707,
0.02052,-3.353860771,0.02052,5.481454413,
0.02054,-3.719291065,0.02054,5.846884707,
0.02056,-3.719291065,0.02056,5.846884707,
0.02058,-4.815581948,0.02058,6.212315001,
0.0206,-4.084721359,0.0206,5.846884707,
0.02062,-5.91187283,0.02062,5.481454413,
0.02064,-5.181012242,0.02064,5.481454413,
0.02066,-5.181012242,0.02066,5.846884707,
0.02068,-4.450151654,0.02068,4.019733236,
0.0207,-5.91187283,0.0207,5.481454413,
0.02072,-6.642733419,0.02072,6.212315001,
0.02074,-4.815581948,0.02074,5.846884707,
0.02076,-5.181012242,0.02076,5.481454413,
0.02078,-4.084721359,0.02078,7.674036178,
0.0208,-4.450151654,0.0208,5.481454413,
0.02082,-2.988430477,0.02082,5.116024118,
0.02084,-2.257569889,0.02084,5.846884707,
0.02086,-0.06498812352,0.02086,5.481454413,
0.02088,-1.892139594,0.02088,5.481454413,
0.0209,-0.7958487119,0.0209,6.212315001,
0.02092,0.6658724648,0.02092,5.481454413,
0.02094,0.6658724648,0.02094,5.116024118,
0.02096,1.762163347,0.02096,5.846884707,
0.02098,2.85845423,0.02098,5.481454413,
0.021,3.954745112,0.021,5.846884707,
0.02102,3.589314818,0.02102,5.846884707,
0.02104,4.320175407,0.02104,5.481454413,
0.02106,3.954745112,0.02106,5.846884707,
0.02108,5.416466289,0.02108,6.943175589,
0.0211,4.685605701,0.0211,5.481454413,
0.02112,5.416466289,0.02112,5.846884707,
0.02114,5.781896583,0.02114,5.846884707,
0.02116,5.051035995,0.02116,5.481454413,
0.02118,4.685605701,0.02118,4.750593824,
0.0212,5.781896583,0.0212,5.481454413,
0.02122,5.051035995,0.02122,5.481454413,
0.02124,3.589314818,0.02124,6.212315001,
0.02126,2.85845423,0.02126,5.846884707,
0.02128,2.127593642,0.02128,5.846884707,
0.0213,2.493023936,0.0213,5.481454413,
0.02132,2.127593642,0.02132,5.846884707,
0.02134,1.031302759,0.02134,5.846884707,
0.02136,0.6658724648,0.02136,5.846884707,
0.02138,-1.161279006,0.02138,5.116024118,
0.0214,-0.06498812352,0.0214,5.481454413,
0.02142,-2.988430477,0.02142,5.846884707,
0.02144,-2.623000183,0.02144,5.846884707,
0.02146,-5.181012242,0.02146,5.481454413,
0.02148,-2.988430477,0.02148,5.481454413,
0.0215,-2.988430477,0.0215,6.212315001,
0.02152,-4.815581948,0.02152,5.846884707,
0.02154,-4.815581948,0.02154,5.846884707,
0.02156,-5.91187283,0.02156,6.943175589,
0.02158,-5.91187283,0.02158,5.846884707,
0.0216,-7.373594007,0.0216,6.212315001,
0.02162,-5.91187283,0.02162,6.212315001,
0.02164,-4.815581948,0.02164,5.846884707,
0.02166,-4.450151654,0.02166,5.846884707,
0.02168,-5.181012242,0.02168,5.481454413,
0.0217,-4.084721359,0.0217,5.481454413,
0.02172,-2.988430477,0.02172,5.846884707,
0.02174,-3.719291065,0.02174,5.846884707,
0.02176,-2.257569889,0.02176,5.846884707,
0.02178,-0.7958487119,0.02178,6.212315001,
0.0218,-0.7958487119,0.0218,5.846884707,
0.02182,-0.06498812352,0.02182,5.481454413,
0.02184,1.031302759,0.02184,5.846884707,
0.02186,1.762163347,0.02186,5.846884707,
0.02188,2.85845423,0.02188,5.481454413,
0.0219,2.493023936,0.0219,5.846884707,
0.02192,2.85845423,0.02192,5.481454413,
0.02194,3.223884524,0.02194,5.846884707,
0.02196,6.512757172,0.02196,5.846884707,
0.02198,6.147326877,0.02198,5.846884707,
0.022,5.051035995,0.022,5.481454413,
0.02202,5.781896583,0.02202,5.846884707,
0.02204,5.051035995,0.02204,5.846884707,
0.02206,6.512757172,0.02206,5.481454413,
0.02208,5.051035995,0.02208,6.212315001,
0.0221,5.781896583,0.0221,5.846884707,
0.02212,5.781896583,0.02212,5.481454413,
0.02214,5.416466289,0.02214,5.846884707,
0.02216,3.954745112,0.02216,5.846884707,
0.02218,4.685605701,0.02218,5.481454413,
0.0222,3.223884524,0.0222,5.846884707,
0.02222,0.6658724648,0.02222,5.846884707,
0.02224,1.762163347,0.02224,5.846884707,
0.02226,1.762163347,0.02226,6.212315001,
0.02228,0.6658724648,0.02228,5.481454413,
0.0223,0.6658724648,0.0223,5.846884707,
0.02232,-0.06498812352,0.02232,5.481454413,
0.02234,-2.257569889,0.02234,5.846884707,
0.02236,-1.892139594,0.02236,5.481454413,
0.02238,-1.892139594,0.02238,5.846884707,
0.0224,-4.450151654,0.0224,6.212315001,
0.02242,-3.353860771,0.02242,5.481454413,
0.02244,-4.084721359,0.02244,5.846884707,
0.02246,-4.815581948,0.02246,5.846884707,
0.02248,-4.815581948,0.02248,5.846884707,
0.0225,-5.546442536,0.0225,5.846884707,
0.02252,-5.546442536,0.02252,5.846884707,
0.02254,-5.546442536,0.02254,5.481454413,
0.02256,-4.450151654,0.02256,5.846884707,
0.02258,-5.181012242,0.02258,5.481454413,
0.0226,-4.084721359,0.0226,5.116024118,
0.02262,-4.084721359,0.02262,5.846884707,
0.02264,-4.450151654,0.02264,5.481454413,
0.02266,-3.353860771,0.02266,5.481454413,
0.02268,-2.257569889,0.02268,5.481454413,
0.0227,-2.257569889,0.0227,5.481454413,
0.02272,-1.161279006,0.02272,5.481454413,
0.02274,-0.7958487119,0.02274,5.481454413,
0.02276,-0.7958487119,0.02276,5.481454413,
0.02278,0.3004421707,0.02278,5.481454413,
0.0228,0.6658724648,0.0228,6.577745295,
0.02282,1.762163347,0.02282,5.846884707,
0.02284,2.85845423,0.02284,5.481454413,
0.02286,3.223884524,0.02286,4.750593824,
0.02288,2.85845423,0.02288,5.481454413,
0.0229,4.320175407,0.0229,5.116024118,
0.02292,8.339908642,0.02292,5.846884707,
0.02294,5.051035995,0.02294,6.212315001,
0.02296,7.24361776,0.02296,5.116024118,
0.02298,5.416466289,0.02298,5.846884707,
0.023,5.051035995,0.023,6.943175589,
0.02302,5.416466289,0.02302,5.481454413,
0.02304,5.781896583,0.02304,5.846884707,
0.02306,5.051035995,0.02306,5.846884707,
0.02308,5.781896583,0.02308,5.481454413,
0.0231,3.954745112,0.0231,6.943175589,
0.02312,3.223884524,0.02312,6.212315001,
0.02314,3.223884524,0.02314,5.481454413,
0.02316,2.85845423,0.02316,5.846884707,
0.02318,1.396733053,0.02318,5.846884707,
0.0232,0.3004421707,0.0232,5.481454413,
0.02322,-0.4304184177,0.02322,5.846884707,
0.02324,-1.161279006,0.02324,5.481454413,
0.02326,-2.623000183,0.02326,5.481454413,
0.02328,-1.892139594,0.02328,6.212315001,
0.0233,-3.353860771,0.0233,5.481454413,
0.02332,-2.623000183,0.02332,5.116024118,
0.02334,-3.719291065,0.02334,5.846884707,
0.02336,-4.815581948,0.02336,5.846884707,
0.02338,-3.719291065,0.02338,5.846884707,
0.0234,-3.719291065,0.0234,6.577745295,
0.02342,-5.181012242,0.02342,5.846884707,
0.02344,-4.815581948,0.02344,5.116024118,
0.02346,-6.642733419,0.02346,5.846884707,
0.02348,-3.719291065,0.02348,5.116024118,
0.0235,-7.008163713,0.0235,4.019733236,
0.02352,-5.546442536,0.02352,5.481454413,
0.02354,-5.181012242,0.02354,5.481454413,
0.02356,-4.450151654,0.02356,5.846884707,
0.02358,-4.450151654,0.02358,5.481454413,
0.0236,-2.988430477,0.0236,6.577745295,
0.02362,-2.623000183,0.02362,5.481454413,
0.02364,-0.7958487119,0.02364,5.116024118,
0.02366,-1.5267093,0.02366,5.481454413,
0.02368,0.3004421707,0.02368,5.481454413,
0.0237,-0.06498812352,0.0237,4.750593824,
0.02372,2.127593642,0.02372,5.481454413,
0.02374,1.762163347,0.02374,5.481454413,
0.02376,2.85845423,0.02376,5.116024118,
0.02378,2.127593642,0.02378,5.846884707,
0.0238,4.320175407,0.0238,4.38516353,
0.02382,2.85845423,0.02382,5.481454413,
0.02384,4.685605701,0.02384,5.846884707,
0.02386,4.685605701,0.02386,5.481454413,
0.02388,4.685605701,0.02388,5.116024118,
0.0239,6.512757172,0.0239,6.212315001,
0.02392,7.24361776,0.02392,5.481454413,
0.02394,5.781896583,0.02394,5.116024118,
0.02396,5.051035995,0.02396,5.116024118,
0.02398,5.051035995,0.02398,5.481454413,
0.024,4.685605701,0.024,4.750593824,
0.02402,5.051035995,0.02402,5.481454413,
0.02404,3.589314818,0.02404,5.481454413,
0.02406,3.223884524,0.02406,5.116024118,
0.02408,3.223884524,0.02408,5.116024118,
0.0241,2.85845423,0.0241,4.750593824,
0.02412,1.031302759,0.02412,5.481454413,
0.02414,2.493023936,0.02414,5.481454413,
0.02416,-0.4304184177,0.02416,5.481454413,
0.02418,-1.5267093,0.02418,4.750593824,
0.0242,-1.892139594,0.0242,5.846884707,
0.02422,-4.815581948,0.02422,5.481454413,
0.02424,-1.892139594,0.02424,5.116024118,
0.02426,-1.892139594,0.02426,5.846884707,
0.02428,-3.719291065,0.02428,6.212315001,
0.0243,-4.084721359,0.0243,5.481454413,
0.02432,-0.7958487119,0.02432,5.481454413,
0.02434,-4.450151654,0.02434,5.846884707,
0.02436,-5.181012242,0.02436,4.750593824,
0.02438,-4.084721359,0.02438,5.481454413,
0.0244,-4.815581948,0.0244,5.116024118,
0.02442,-5.546442536,0.02442,5.116024118,
0.02444,-4.084721359,0.02444,5.481454413,
0.02446,-7.373594007,0.02446,5.481454413,
0.02448,-4.450151654,0.02448,5.116024118,
0.0245,-4.084721359,0.0245,5.481454413,
0.02452,-1.5267093,0.02452,5.846884707,
0.02454,-1.5267093,0.02454,5.116024118,
0.02456,-1.892139594,0.02456,5.846884707,
0.02458,-1.5267093,0.02458,5.846884707,
0.0246,-1.892139594,0.0246,5.481454413,
0.02462,1.396733053,0.02462,5.481454413,
0.02464,0.3004421707,0.02464,5.481454413,
0.02466,1.396733053,0.02466,5.116024118,
0.02468,2.127593642,0.02468,5.481454413,
0.0247,4.320175407,0.0247,5.481454413,
0.02472,2.85845423,0.02472,5.846884707,
0.02474,3.954745112,0.02474,5.846884707,
0.02476,5.781896583,0.02476,5.481454413,
0.02478,5.051035995,0.02478,5.116024118,
0.0248,2.85845423,0.0248,5.846884707,
0.02482,3.954745112,0.02482,5.481454413,
0.02484,4.685605701,0.02484,5.481454413,
0.02486,5.781896583,0.02486,5.481454413,
0.02488,6.512757172,0.02488,5.481454413,
0.0249,5.416466289,0.0249,5.116024118,
0.02492,3.223884524,0.02492,5.481454413,
0.02494,4.685605701,0.02494,5.481454413,
0.02496,4.320175407,0.02496,5.481454413,
0.02498,4.320175407,0.02498,6.212315001,
0.025,2.493023936,0.025,5.481454413,
0.02502,1.762163347,0.02502,5.481454413,
0.02504,2.127593642,0.02504,5.846884707,
0.02506,1.762163347,0.02506,5.481454413,
0.02508,0.3004421707,0.02508,5.481454413,
0.0251,1.031302759,0.0251,5.846884707,
0.02512,0.6658724648,0.02512,4.750593824,
0.02514,-3.719291065,0.02514,5.116024118,
0.02516,-1.5267093,0.02516,5.481454413,
0.02518,-1.161279006,0.02518,5.116024118,
0.0252,-2.988430477,0.0252,5.481454413,
0.02522,-3.719291065,0.02522,5.481454413,
0.02524,-1.5267093,0.02524,5.481454413,
0.02526,-6.642733419,0.02526,5.116024118,
0.02528,-4.815581948,0.02528,5.481454413,
0.0253,-5.181012242,0.0253,5.846884707,
0.02532,-4.450151654,0.02532,5.481454413,
0.02534,-4.815581948,0.02534,5.481454413,
0.02536,-4.450151654,0.02536,5.116024118,
0.02538,-5.91187283,0.02538,5.846884707,
0.0254,-5.181012242,0.0254,5.116024118,
0.02542,-3.719291065,0.02542,6.212315001,
0.02544,-3.353860771,0.02544,6.212315001,
0.02546,-3.719291065,0.02546,5.116024118,
0.02548,-1.892139594,0.02548,5.481454413,
0.0255,-1.892139594,0.0255,6.212315001,
0.02552,-0.7958487119,0.02552,5.116024118,
0.02554,-1.161279006,0.02554,5.481454413,
0.02556,-0.06498812352,0.02556,5.846884707,
0.02558,-0.06498812352,0.02558,5.481454413,
0.0256,0.3004421707,0.0256,5.481454413,
0.02562,0.6658724648,0.02562,5.846884707,
0.02564,1.762163347,0.02564,5.481454413,
0.02566,4.685605701,0.02566,5.481454413,
0.02568,3.589314818,0.02568,5.846884707,
0.0257,3.954745112,0.0257,5.481454413,
0.02572,4.685605701,0.02572,5.481454413,
0.02574,4.320175407,0.02574,6.577745295,
0.02576,7.609048054,0.02576,5.846884707,
0.02578,5.051035995,0.02578,5.116024118,
0.0258,6.147326877,0.0258,5.846884707,
0.02582,3.954745112,0.02582,5.116024118,
0.02584,4.320175407,0.02584,5.481454413,
0.02586,5.051035995,0.02586,5.846884707,
0.02588,4.320175407,0.02588,5.481454413,
0.0259,3.954745112,0.0259,5.481454413,
0.02592,2.127593642,0.02592,5.846884707,
0.02594,3.223884524,0.02594,5.481454413,
0.02596,3.223884524,0.02596,5.116024118,
0.02598,0.3004421707,0.02598,5.846884707,
0.026,0.6658724648,0.026,5.481454413,
0.02602,1.762163347,0.02602,5.846884707,
0.02604,-0.4304184177,0.02604,6.212315001,
0.02606,-1.5267093,0.02606,5.481454413,
0.02608,-0.7958487119,0.02608,5.481454413,
0.0261,-2.623000183,0.0261,5.846884707,
0.02612,-0.7958487119,0.02612,5.481454413,
0.02614,-3.353860771,0.02614,5.481454413,
0.02616,-3.353860771,0.02616,5.846884707,
0.02618,-5.181012242,0.02618,5.846884707,
0.0262,-3.353860771,0.0262,5.481454413,
0.02622,-4.815581948,0.02622,5.481454413,
0.02624,-6.277303124,0.02624,5.481454413,
0.02626,-5.546442536,0.02626,5.116024118,
0.02628,-5.546442536,0.02628,5.846884707,
0.0263,-6.277303124,0.0263,5.846884707,
0.02632,-6.277303124,0.02632,6.212315001,
0.02634,-5.546442536,0.02634,5.846884707,
0.02636,-4.084721359,0.02636,5.481454413,
0.02638,-3.353860771,0.02638,5.846884707,
0.0264,-4.450151654,0.0264,5.846884707,
0.02642,-3.353860771,0.02642,5.846884707,
0.02644,-1.5267093,0.02644,5.846884707,
0.02646,-0.7958487119,0.02646,5.481454413,
0.02648,-0.06498812352,0.02648,6.212315001,
0.0265,-0.06498812352,0.0265,6.212315001,
0.02652,1.031302759,0.02652,5.116024118,
0.02654,1.396733053,0.02654,5.846884707,
0.02656,2.493023936,0.02656,4.38516353,
0.02658,2.85845423,0.02658,5.846884707,
0.0266,2.85845423,0.0266,5.116024118,
0.02662,5.416466289,0.02662,6.212315001,
0.02664,4.320175407,0.02664,5.481454413,
0.02666,4.685605701,0.02666,5.481454413,
0.02668,5.781896583,0.02668,4.750593824,
0.0267,5.781896583,0.0267,5.481454413,
0.02672,5.051035995,0.02672,5.846884707,
0.02674,6.512757172,0.02674,5.116024118,
0.02676,5.781896583,0.02676,5.846884707,
0.02678,5.781896583,0.02678,5.116024118,
0.0268,6.147326877,0.0268,5.116024118,
0.02682,4.685605701,0.02682,4.019733236,
0.02684,6.878187466,0.02684,5.116024118,
0.02686,3.589314818,0.02686,5.481454413,
0.02688,2.85845423,0.02688,5.481454413,
0.0269,2.493023936,0.0269,5.481454413,
0.02692,4.320175407,0.02692,6.943175589,
0.02694,1.031302759,0.02694,5.481454413,
0.02696,-0.4304184177,0.02696,5.116024118,
0.02698,-0.4304184177,0.02698,5.481454413,
0.027,1.031302759,0.027,5.116024118,
0.02702,-3.353860771,0.02702,5.481454413,
0.02704,-1.892139594,0.02704,5.481454413,
0.02706,-2.623000183,0.02706,5.116024118,
0.02708,-4.084721359,0.02708,5.116024118,
0.0271,-3.719291065,0.0271,5.481454413,
0.02712,-3.719291065,0.02712,3.288872648,
0.02714,-2.623000183,0.02714,5.116024118,
0.02716,-4.815581948,0.02716,6.212315001,
0.02718,-4.815581948,0.02718,5.116024118,
0.0272,-6.277303124,0.0272,5.116024118,
0.02722,-4.815581948,0.02722,6.577745295,
0.02724,-4.084721359,0.02724,5.481454413,
0.02726,-5.181012242,0.02726,5.481454413,
0.02728,-8.104454595,0.02728,5.481454413,
0.0273,-4.815581948,0.0273,5.116024118,
0.02732,-4.815581948,0.02732,5.481454413,
0.02734,-4.084721359,0.02734,5.481454413,
0.02736,-2.988430477,0.02736,5.481454413,
0.02738,-1.892139594,0.02738,5.116024118,
0.0274,-1.5267093,0.0274,5.481454413,
0.02742,-0.06498812352,0.02742,4.38516353,
0.02744,-0.4304184177,0.02744,5.116024118,
0.02746,1.396733053,0.02746,5.481454413,
0.02748,2.493023936,0.02748,5.481454413,
0.0275,2.127593642,0.0275,5.116024118,
0.02752,3.954745112,0.02752,6.212315001,
0.02754,3.223884524,0.02754,5.481454413,
0.02756,4.685605701,0.02756,4.750593824,
0.02758,5.051035995,0.02758,5.481454413,
0.0276,5.781896583,0.0276,5.481454413,
0.02762,5.051035995,0.02762,4.750593824,
0.02764,5.781896583,0.02764,5.846884707,
0.02766,5.781896583,0.02766,5.846884707,
0.02768,5.051035995,0.02768,5.481454413,
0.0277,7.609048054,0.0277,5.481454413,
0.02772,5.781896583,0.02772,5.846884707,
0.02774,2.85845423,0.02774,5.116024118,
0.02776,4.320175407,0.02776,5.846884707,
0.02778,3.954745112,0.02778,5.481454413,
0.0278,2.127593642,0.0278,5.116024118,
0.02782,3.223884524,0.02782,5.846884707,
0.02784,2.127593642,0.02784,5.846884707,
0.02786,1.031302759,0.02786,5.116024118,
0.02788,1.031302759,0.02788,5.846884707,
0.0279,0.3004421707,0.0279,5.481454413,
0.02792,-3.719291065,0.02792,4.750593824,
0.02794,-0.7958487119,0.02794,5.846884707,
0.02796,-1.5267093,0.02796,6.577745295,
0.02798,-2.623000183,0.02798,5.846884707,
0.028,-2.257569889,0.028,5.846884707,
0.02802,-4.450151654,0.02802,5.481454413,
0.02804,-5.91187283,0.02804,5.116024118,
0.02806,-4.084721359,0.02806,5.481454413,
0.02808,-6.277303124,0.02808,5.481454413,
0.0281,-6.277303124,0.0281,5.481454413,
0.02812,-5.546442536,0.02812,5.846884707,
0.02814,-4.815581948,0.02814,5.481454413,
0.02816,-6.277303124,0.02816,5.481454413,
0.02818,-4.450151654,0.02818,5.481454413,
0.0282,-4.450151654,0.0282,5.846884707,
0.02822,-3.719291065,0.02822,5.846884707,
0.02824,-3.353860771,0.02824,5.481454413,
0.02826,-3.719291065,0.02826,5.481454413,
0.02828,-3.719291065,0.02828,5.846884707,
0.0283,-2.988430477,0.0283,5.481454413,
0.02832,-1.892139594,0.02832,5.116024118,
0.02834,0.3004421707,0.02834,5.846884707,
0.02836,-0.4304184177,0.02836,5.481454413,
0.02838,1.031302759,0.02838,5.116024118,
0.0284,2.127593642,0.0284,6.212315001,
0.02842,1.396733053,0.02842,5.846884707,
0.02844,2.493023936,0.02844,5.116024118,
0.02846,3.954745112,0.02846,5.846884707,
0.02848,3.589314818,0.02848,5.481454413,
0.0285,3.954745112,0.0285,5.116024118,
0.02852,1.762163347,0.02852,6.212315001,
0.02854,4.320175407,0.02854,5.481454413,
0.02856,5.051035995,0.02856,5.481454413,
0.02858,5.051035995,0.02858,5.846884707,
0.0286,5.416466289,0.0286,5.481454413,
0.02862,6.512757172,0.02862,5.116024118,
0.02864,5.416466289,0.02864,6.212315001,
0.02866,4.320175407,0.02866,5.846884707,
0.02868,5.416466289,0.02868,5.846884707,
0.0287,3.589314818,0.0287,6.577745295,
0.02872,3.589314818,0.02872,5.846884707,
0.02874,2.85845423,0.02874,5.116024118,
0.02876,3.223884524,0.02876,6.212315001,
0.02878,1.762163347,0.02878,5.481454413,
0.0288,0.6658724648,0.0288,5.481454413,
0.02882,0.3004421707,0.02882,6.212315001,
0.02884,-0.4304184177,0.02884,5.846884707,
0.02886,0.3004421707,0.02886,5.481454413,
0.02888,-1.161279006,0.02888,5.846884707,
0.0289,-4.084721359,0.0289,5.481454413,
0.02892,-3.353860771,0.02892,4.750593824,
0.02894,-3.353860771,0.02894,5.846884707,
0.02896,-4.084721359,0.02896,5.846884707,
0.02898,-4.084721359,0.02898,5.481454413,
0.029,-4.450151654,0.029,5.846884707,
0.02902,-5.181012242,0.02902,5.846884707,
0.02904,-5.546442536,0.02904,5.481454413,
0.02906,-7.008163713,0.02906,5.846884707,
0.02908,-7.008163713,0.02908,5.846884707,
0.0291,-4.815581948,0.0291,5.481454413,
0.02912,-4.815581948,0.02912,6.212315001,
0.02914,-5.546442536,0.02914,5.481454413,
0.02916,-4.450151654,0.02916,5.116024118,
0.02918,-2.988430477,0.02918,5.846884707,
0.0292,-2.623000183,0.0292,5.846884707,
0.02922,-2.257569889,0.02922,6.212315001,
0.02924,-1.892139594,0.02924,5.481454413,
0.02926,-1.161279006,0.02926,4.38516353,
0.02928,-0.7958487119,0.02928,5.846884707,
0.0293,-0.4304184177,0.0293,5.846884707,
0.02932,-0.06498812352,0.02932,5.846884707,
0.02934,1.396733053,0.02934,5.481454413,
0.02936,2.493023936,0.02936,6.212315001,
0.02938,1.396733053,0.02938,5.846884707,
0.0294,3.954745112,0.0294,5.481454413,
0.02942,4.685605701,0.02942,5.846884707,
0.02944,4.320175407,0.02944,5.116024118,
0.02946,4.685605701,0.02946,5.481454413,
0.02948,7.24361776,0.02948,5.846884707,
0.0295,5.416466289,0.0295,5.481454413,
0.02952,5.416466289,0.02952,5.846884707,
0.02954,5.416466289,0.02954,6.943175589,
0.02956,5.051035995,0.02956,5.846884707,
0.02958,5.051035995,0.02958,5.481454413,
0.0296,3.954745112,0.0296,6.212315001,
0.02962,6.147326877,0.02962,5.846884707,
0.02964,3.954745112,0.02964,5.116024118,
0.02966,3.954745112,0.02966,5.846884707,
0.02968,1.031302759,0.02968,5.481454413,
0.0297,0.3004421707,0.0297,5.481454413,
0.02972,1.762163347,0.02972,5.846884707,
0.02974,0.3004421707,0.02974,4.750593824,
0.02976,-1.161279006,0.02976,5.116024118,
0.02978,-0.7958487119,0.02978,5.846884707,
0.0298,-1.161279006,0.0298,5.481454413,
0.02982,-2.623000183,0.02982,5.116024118,
0.02984,-2.623000183,0.02984,5.846884707,
0.02986,-4.084721359,0.02986,5.481454413,
0.02988,-4.084721359,0.02988,5.116024118,
0.0299,-4.815581948,0.0299,5.846884707,
0.02992,-4.450151654,0.02992,5.481454413,
0.02994,-6.277303124,0.02994,6.212315001,
0.02996,-5.181012242,0.02996,5.846884707,
0.02998,-5.546442536,0.02998,5.846884707,
0.03,-5.546442536,0.03,5.481454413,
0.03002,-5.181012242,0.03002,5.846884707,
0.03004,-7.373594007,0.03004,5.846884707,
0.03006,-5.546442536,0.03006,5.481454413,
0.03008,-4.450151654,0.03008,6.212315001,
0.0301,-5.546442536,0.0301,5.481454413,
0.03012,-3.353860771,0.03012,5.481454413,
0.03014,-4.450151654,0.03014,4.750593824,
0.03016,-2.257569889,0.03016,5.846884707,
0.03018,-1.161279006,0.03018,5.846884707,
0.0302,-1.161279006,0.0302,5.481454413,
0.03022,-1.892139594,0.03022,5.116024118,
0.03024,0.3004421707,0.03024,6.577745295,
0.03026,1.031302759,0.03026,5.846884707,
0.03028,2.85845423,0.03028,5.481454413,
0.0303,2.85845423,0.0303,5.846884707,
0.03032,1.396733053,0.03032,5.846884707,
0.03034,3.954745112,0.03034,6.212315001,
0.03036,4.685605701,0.03036,6.212315001,
0.03038,4.320175407,0.03038,5.846884707,
0.0304,5.781896583,0.0304,5.846884707,
0.03042,3.954745112,0.03042,5.846884707,
0.03044,5.781896583,0.03044,5.846884707,
0.03046,5.781896583,0.03046,5.481454413,
0.03048,5.781896583,0.03048,5.846884707,
0.0305,6.512757172,0.0305,5.846884707,
0.03052,5.051035995,0.03052,5.846884707,
0.03054,5.051035995,0.03054,6.943175589,
0.03056,2.127593642,0.03056,5.481454413,
0.03058,3.954745112,0.03058,5.481454413,
0.0306,2.85845423,0.0306,5.481454413,
0.03062,2.493023936,0.03062,5.846884707,
0.03064,2.127593642,0.03064,6.577745295,
0.03066,3.223884524,0.03066,5.481454413,
0.03068,2.127593642,0.03068,5.846884707,
0.0307,0.3004421707,0.0307,6.212315001,
0.03072,-0.7958487119,0.03072,5.846884707,
0.03074,-1.161279006,0.03074,5.481454413,
0.03076,-1.5267093,0.03076,5.481454413,
0.03078,-2.257569889,0.03078,5.846884707,
0.0308,-5.181012242,0.0308,5.846884707,
0.03082,-2.988430477,0.03082,5.481454413,
0.03084,-2.623000183,0.03084,5.481454413,
0.03086,-6.277303124,0.03086,5.481454413,
0.03088,-4.815581948,0.03088,5.846884707,
0.0309,-5.181012242,0.0309,5.846884707,
0.03092,-7.008163713,0.03092,5.846884707,
0.03094,-4.450151654,0.03094,5.481454413,
0.03096,-5.181012242,0.03096,5.481454413,
0.03098,-5.91187283,0.03098,5.481454413,
0.031,-4.084721359,0.031,5.846884707,
0.03102,-4.450151654,0.03102,6.212315001,
0.03104,-4.450151654,0.03104,5.846884707,
0.03106,-3.719291065,0.03106,5.846884707,
0.03108,-2.988430477,0.03108,5.846884707,
0.0311,-3.353860771,0.0311,5.846884707,
0.03112,-1.892139594,0.03112,5.846884707,
0.03114,-0.4304184177,0.03114,5.846884707,
0.03116,0.6658724648,0.03116,5.846884707,
0.03118,1.031302759,0.03118,6.212315001,
0.0312,2.85845423,0.0312,6.212315001,
0.03122,1.762163347,0.03122,5.846884707,
0.03124,1.762163347,0.03124,5.481454413,
0.03126,2.85845423,0.03126,6.212315001,
0.03128,3.223884524,0.03128,5.481454413,
0.0313,3.223884524,0.0313,5.116024118,
0.03132,3.954745112,0.03132,5.846884707,
0.03134,4.320175407,0.03134,5.846884707,
0.03136,3.954745112,0.03136,5.116024118,
0.03138,4.685605701,0.03138,4.750593824,
0.0314,6.512757172,0.0314,5.116024118,
0.03142,5.051035995,0.03142,5.846884707,
0.03144,5.416466289,0.03144,5.481454413,
0.03146,3.954745112,0.03146,5.481454413,
0.03148,4.685605701,0.03148,5.846884707,
0.0315,3.223884524,0.0315,5.481454413,
0.03152,3.954745112,0.03152,5.846884707,
0.03154,2.85845423,0.03154,5.846884707,
0.03156,1.762163347,0.03156,5.481454413,
0.03158,1.396733053,0.03158,5.481454413,
0.0316,3.954745112,0.0316,5.481454413,
0.03162,1.396733053,0.03162,5.846884707,
0.03164,-0.06498812352,0.03164,5.846884707,
0.03166,-0.4304184177,0.03166,5.846884707,
0.03168,0.3004421707,0.03168,5.116024118,
0.0317,-2.988430477,0.0317,5.846884707,
0.03172,-3.719291065,0.03172,5.481454413,
0.03174,-4.084721359,0.03174,5.481454413,
0.03176,-2.623000183,0.03176,5.846884707,
0.03178,-3.719291065,0.03178,5.846884707,
0.0318,-3.353860771,0.0318,5.481454413,
0.03182,-4.450151654,0.03182,6.577745295,
0.03184,-6.277303124,0.03184,5.846884707,
0.03186,-4.450151654,0.03186,5.481454413,
0.03188,-5.181012242,0.03188,5.846884707,
0.0319,-5.91187283,0.0319,5.846884707,
0.03192,-5.546442536,0.03192,6.212315001,
0.03194,-3.719291065,0.03194,6.212315001,
0.03196,-5.546442536,0.03196,5.846884707,
0.03198,-2.988430477,0.03198,5.846884707,
0.032,-3.353860771,0.032,5.846884707,
0.03202,-2.623000183,0.03202,5.481454413,
0.03204,-1.161279006,0.03204,5.116024118,
0.03206,-0.06498812352,0.03206,5.481454413,
0.03208,0.6658724648,0.03208,5.116024118,
0.0321,0.6658724648,0.0321,5.846884707,
0.03212,1.031302759,0.03212,5.846884707,
0.03214,1.762163347,0.03214,5.116024118,
0.03216,3.954745112,0.03216,5.846884707,
0.03218,2.85845423,0.03218,6.212315001,
0.0322,2.85845423,0.0322,5.116024118,
0.03222,4.685605701,0.03222,5.846884707,
0.03224,7.24361776,0.03224,5.846884707,
0.03226,5.416466289,0.03226,5.116024118,
0.03228,5.416466289,0.03228,5.481454413,
0.0323,6.147326877,0.0323,5.481454413,
0.03232,5.781896583,0.03232,5.116024118,
0.03234,5.781896583,0.03234,5.481454413,
0.03236,3.589314818,0.03236,5.481454413,
0.03238,5.051035995,0.03238,5.481454413,
0.0324,4.685605701,0.0324,5.481454413,
0.03242,4.685605701,0.03242,5.481454413,
0.03244,3.223884524,0.03244,5.116024118,
0.03246,3.223884524,0.03246,5.481454413,
0.03248,2.127593642,0.03248,5.481454413,
0.0325,2.493023936,0.0325,5.116024118,
0.03252,2.493023936,0.03252,5.846884707,
0.03254,0.3004421707,0.03254,5.481454413,
0.03256,-0.7958487119,0.03256,5.116024118,
0.03258,0.6658724648,0.03258,5.481454413,
0.0326,-1.161279006,0.0326,5.481454413,
0.03262,-0.06498812352,0.03262,5.846884707,
0.03264,-1.892139594,0.03264,5.481454413,
0.03266,-1.892139594,0.03266,5.481454413,
0.03268,-4.450151654,0.03268,5.116024118,
0.0327,-4.084721359,0.0327,5.481454413,
0.03272,-2.988430477,0.03272,5.481454413,
0.03274,-7.008163713,0.03274,5.481454413,
0.03276,-4.084721359,0.03276,5.116024118,
0.03278,-4.815581948,0.03278,5.481454413,
0.0328,-5.181012242,0.0328,5.116024118,
0.03282,-5.91187283,0.03282,5.846884707,
0.03284,-4.450151654,0.03284,5.846884707,
0.03286,-4.084721359,0.03286,5.116024118,
0.03288,-3.719291065,0.03288,5.846884707,
0.0329,-3.719291065,0.0329,5.481454413,
0.03292,-3.719291065,0.03292,5.116024118,
0.03294,-3.353860771,0.03294,5.116024118,
0.03296,-2.257569889,0.03296,5.846884707,
0.03298,-2.257569889,0.03298,5.116024118,
0.033,-0.4304184177,0.033,5.481454413,
0.03302,-0.4304184177,0.03302,5.481454413,
0.03304,-0.06498812352,0.03304,5.116024118,
0.03306,2.85845423,0.03306,4.38516353,
0.03308,1.031302759,0.03308,5.481454413,
0.0331,2.127593642,0.0331,5.116024118,
0.03312,4.320175407,0.03312,6.577745295,
0.03314,3.223884524,0.03314,5.481454413,
0.03316,5.416466289,0.03316,6.212315001,
0.03318,5.416466289,0.03318,5.481454413,
0.0332,5.051035995,0.0332,5.481454413,
0.03322,5.051035995,0.03322,4.750593824,
0.03324,5.781896583,0.03324,5.481454413,
0.03326,7.609048054,0.03326,5.481454413,
0.03328,5.416466289,0.03328,5.481454413,
0.0333,5.781896583,0.0333,5.481454413,
0.03332,5.051035995,0.03332,5.846884707,
0.03334,4.685605701,0.03334,5.116024118,
0.03336,4.685605701,0.03336,5.116024118,
0.03338,4.320175407,0.03338,6.212315001,
0.0334,3.954745112,0.0334,5.116024118,
0.03342,3.589314818,0.03342,5.481454413,
0.03344,1.762163347,0.03344,5.481454413,
0.03346,1.031302759,0.03346,6.943175589,
0.03348,0.6658724648,0.03348,5.481454413,
0.0335,0.6658724648,0.0335,5.481454413,
0.03352,-0.7958487119,0.03352,5.116024118,
0.03354,-1.5267093,0.03354,5.481454413,
0.03356,-1.892139594,0.03356,5.481454413,
0.03358,-3.353860771,0.03358,5.116024118,
0.0336,-3.353860771,0.0336,5.116024118,
0.03362,-4.450151654,0.03362,4.750593824,
0.03364,-4.450151654,0.03364,5.116024118,
0.03366,-4.450151654,0.03366,5.846884707,
0.03368,-3.353860771,0.03368,5.481454413,
0.0337,-5.91187283,0.0337,5.116024118,
0.03372,-5.181012242,0.03372,5.846884707,
0.03374,-4.815581948,0.03374,5.846884707,
0.03376,-5.546442536,0.03376,5.846884707,
0.03378,-5.546442536,0.03378,5.116024118,
0.0338,-4.084721359,0.0338,5.481454413,
0.03382,-4.815581948,0.03382,4.750593824,
0.03384,-5.546442536,0.03384,5.481454413,
0.03386,-3.353860771,0.03386,4.38516353,
0.03388,-3.353860771,0.03388,4.750593824,
0.0339,-2.623000183,0.0339,5.481454413,
0.03392,-1.892139594,0.03392,5.481454413,
0.03394,-0.4304184177,0.03394,5.481454413,
0.03396,1.762163347,0.03396,6.577745295,
0.03398,0.6658724648,0.03398,5.481454413,
0.034,1.031302759,0.034,5.481454413,
0.03402,2.493023936,0.03402,5.481454413,
0.03404,1.031302759,0.03404,5.481454413,
0.03406,3.223884524,0.03406,6.212315001,
0.03408,3.954745112,0.03408,5.846884707,
0.0341,3.954745112,0.0341,5.481454413,
0.03412,4.685605701,0.03412,5.481454413,
0.03414,3.954745112,0.03414,5.846884707,
0.03416,5.416466289,0.03416,5.481454413,
0.03418,4.320175407,0.03418,5.481454413,
0.0342,5.051035995,0.0342,5.846884707,
0.03422,3.589314818,0.03422,6.212315001,
0.03424,4.685605701,0.03424,5.481454413,
0.03426,3.589314818,0.03426,5.116024118,
0.03428,5.051035995,0.03428,5.481454413,
0.0343,3.589314818,0.0343,5.481454413,
0.03432,4.685605701,0.03432,5.481454413,
0.03434,2.493023936,0.03434,5.481454413,
0.03436,1.762163347,0.03436,6.212315001,
0.03438,1.762163347,0.03438,6.212315001,
0.0344,-0.4304184177,0.0344,5.481454413,
0.03442,0.3004421707,0.03442,5.481454413,
0.03444,-0.7958487119,0.03444,5.846884707,
0.03446,-0.7958487119,0.03446,5.846884707,
0.03448,-2.623000183,0.03448,5.846884707,
0.0345,-2.623000183,0.0345,5.481454413,
0.03452,-3.719291065,0.03452,5.481454413,
0.03454,-4.084721359,0.03454,5.481454413,
0.03456,-3.719291065,0.03456,5.481454413,
0.03458,-6.277303124,0.03458,5.481454413,
0.0346,-6.642733419,0.0346,5.116024118,
0.03462,-5.91187283,0.03462,5.481454413,
0.03464,-5.91187283,0.03464,5.481454413,
0.03466,-5.181012242,0.03466,5.481454413,
0.03468,-3.353860771,0.03468,5.846884707,
0.0347,-5.181012242,0.0347,5.481454413,
0.03472,-7.008163713,0.03472,5.481454413,
0.03474,-4.450151654,0.03474,5.846884707,
0.03476,-5.181012242,0.03476,5.846884707,
0.03478,-5.546442536,0.03478,5.116024118,
0.0348,-2.988430477,0.0348,5.481454413,
0.03482,-2.623000183,0.03482,5.481454413,
0.03484,-1.892139594,0.03484,5.481454413,
0.03486,-1.161279006,0.03486,5.846884707,
0.03488,-1.161279006,0.03488,5.481454413,
0.0349,-0.7958487119,0.0349,5.481454413,
0.03492,0.6658724648,0.03492,5.846884707,
0.03494,-0.06498812352,0.03494,5.846884707,
0.03496,0.6658724648,0.03496,5.481454413,
0.03498,3.223884524,0.03498,6.212315001,
0.035,2.85845423,0.035,5.481454413,
0.03502,3.954745112,0.03502,5.846884707,
0.03504,3.223884524,0.03504,5.846884707,
0.03506,5.051035995,0.03506,5.481454413,
0.03508,4.320175407,0.03508,5.116024118,
0.0351,5.416466289,0.0351,6.212315001,
0.03512,5.416466289,0.03512,5.481454413,
0.03514,5.416466289,0.03514,5.481454413,
0.03516,6.878187466,0.03516,6.212315001,
0.03518,3.223884524,0.03518,5.846884707,
0.0352,6.147326877,0.0352,5.846884707,
0.03522,5.051035995,0.03522,5.846884707,
0.03524,3.223884524,0.03524,5.481454413,
0.03526,3.223884524,0.03526,5.116024118,
0.03528,3.589314818,0.03528,6.212315001,
0.0353,-0.7958487119,0.0353,5.481454413,
0.03532,0.6658724648,0.03532,5.116024118,
0.03534,0.3004421707,0.03534,5.846884707,
0.03536,-0.4304184177,0.03536,5.481454413,
0.03538,0.3004421707,0.03538,5.116024118,
0.0354,-2.257569889,0.0354,6.577745295,
0.03542,-2.257569889,0.03542,5.481454413,
0.03544,-2.623000183,0.03544,5.116024118,
0.03546,-3.719291065,0.03546,6.212315001,
0.03548,-2.988430477,0.03548,5.481454413,
0.0355,-4.450151654,0.0355,5.481454413,
0.03552,-4.450151654,0.03552,5.846884707,
0.03554,-5.91187283,0.03554,5.481454413,
0.03556,-5.546442536,0.03556,4.750593824,
0.03558,-5.181012242,0.03558,6.212315001,
0.0356,-5.91187283,0.0356,5.846884707,
0.03562,-5.181012242,0.03562,5.481454413,
0.03564,-5.181012242,0.03564,6.212315001,
0.03566,-4.815581948,0.03566,5.846884707,
0.03568,-4.815581948,0.03568,4.019733236,
0.0357,-5.91187283,0.0357,5.846884707,
0.03572,-3.719291065,0.03572,5.116024118,
0.03574,-2.988430477,0.03574,5.846884707,
0.03576,-1.892139594,0.03576,5.846884707,
0.03578,-0.7958487119,0.03578,5.481454413,
0.0358,-0.7958487119,0.0358,5.116024118,
0.03582,2.493023936,0.03582,6.212315001,
0.03584,0.3004421707,0.03584,5.846884707,
0.03586,1.031302759,0.03586,5.846884707,
0.03588,1.762163347,0.03588,6.212315001,
0.0359,2.493023936,0.0359,5.481454413,
0.03592,3.223884524,0.03592,6.212315001,
0.03594,4.320175407,0.03594,5.846884707,
0.03596,4.320175407,0.03596,5.846884707,
0.03598,4.320175407,0.03598,6.212315001,
0.036,4.320175407,0.036,5.846884707,
0.03602,4.685605701,0.03602,5.481454413,
0.03604,5.416466289,0.03604,5.846884707,
0.03606,5.416466289,0.03606,5.846884707,
0.03608,5.051035995,0.03608,5.116024118,
0.0361,5.781896583,0.0361,5.846884707,
0.03612,4.685605701,0.03612,5.846884707,
0.03614,6.512757172,0.03614,5.846884707,
0.03616,3.954745112,0.03616,5.846884707,
0.03618,3.954745112,0.03618,5.481454413,
0.0362,3.954745112,0.0362,5.846884707,
0.03622,2.493023936,0.03622,5.846884707,
0.03624,1.396733053,0.03624,5.481454413,
0.03626,3.954745112,0.03626,5.481454413,
0.03628,-0.7958487119,0.03628,6.577745295,
0.0363,1.396733053,0.0363,5.846884707,
0.03632,-1.5267093,0.03632,5.481454413,
0.03634,-1.161279006,0.03634,5.846884707,
0.03636,-2.257569889,0.03636,5.846884707,
0.03638,-1.892139594,0.03638,5.116024118,
0.0364,-2.988430477,0.0364,6.212315001,
0.03642,-2.988430477,0.03642,5.481454413,
0.03644,-4.084721359,0.03644,5.116024118,
0.03646,-4.815581948,0.03646,5.846884707,
0.03648,-5.181012242,0.03648,5.846884707,
0.0365,-4.450151654,0.0365,5.846884707,
0.03652,-4.084721359,0.03652,5.846884707,
0.03654,-5.181012242,0.03654,5.846884707,
0.03656,-6.277303124,0.03656,5.846884707,
0.03658,-4.815581948,0.03658,6.577745295,
0.0366,-6.277303124,0.0366,5.846884707,
0.03662,-4.084721359,0.03662,6.212315001,
0.03664,-3.719291065,0.03664,5.481454413,
0.03666,-3.353860771,0.03666,5.846884707,
0.03668,-2.257569889,0.03668,5.481454413,
0.0367,-2.257569889,0.0367,5.846884707,
0.03672,-0.4304184177,0.03672,5.846884707,
0.03674,-1.161279006,0.03674,5.846884707,
0.03676,-0.06498812352,0.03676,5.846884707,
0.03678,0.3004421707,0.03678,5.116024118,
0.0368,0.6658724648,0.0368,5.481454413,
0.03682,2.85845423,0.03682,6.212315001,
0.03684,1.031302759,0.03684,5.846884707,
0.03686,3.589314818,0.03686,5.846884707,
0.03688,2.85845423,0.03688,6.943175589,
0.0369,4.685605701,0.0369,5.846884707,
0.03692,4.685605701,0.03692,5.481454413,
0.03694,5.416466289,0.03694,6.212315001,
0.03696,5.416466289,0.03696,5.846884707,
0.03698,4.320175407,0.03698,4.750593824,
0.037,5.781896583,0.037,5.481454413,
0.03702,5.781896583,0.03702,6.212315001,
0.03704,4.685605701,0.03704,5.116024118,
0.03706,5.416466289,0.03706,5.481454413,
0.03708,3.589314818,0.03708,6.212315001,
0.0371,3.223884524,0.0371,5.481454413,
0.03712,3.589314818,0.03712,5.481454413,
0.03714,3.223884524,0.03714,6.212315001,
0.03716,2.493023936,0.03716,5.846884707,
0.03718,2.127593642,0.03718,5.116024118,
0.0372,2.493023936,0.0372,5.846884707,
0.03722,-0.7958487119,0.03722,5.846884707,
0.03724,-0.4304184177,0.03724,5.846884707,
0.03726,-1.161279006,0.03726,5.481454413,
0.03728,-2.257569889,0.03728,5.116024118,
0.0373,-3.353860771,0.0373,5.481454413,
0.03732,-2.988430477,0.03732,5.846884707,
0.03734,-5.546442536,0.03734,5.846884707,
0.03736,-3.719291065,0.03736,4.750593824,
0.03738,-4.084721359,0.03738,6.212315001,
0.0374,-4.815581948,0.0374,5.481454413,
0.03742,-5.91187283,0.03742,5.116024118,
0.03744,-5.546442536,0.03744,5.481454413,
0.03746,-4.815581948,0.03746,5.481454413,
0.03748,-5.91187283,0.03748,5.116024118,
0.0375,-4.815581948,0.0375,6.212315001,
0.03752,-5.181012242,0.03752,5.846884707,
0.03754,-4.084721359,0.03754,5.481454413,
0.03756,-4.084721359,0.03756,5.846884707,
0.03758,-2.623000183,0.03758,5.846884707,
0.0376,-1.5267093,0.0376,5.846884707,
0.03762,-2.257569889,0.03762,5.846884707,
0.03764,-2.257569889,0.03764,6.212315001,
0.03766,-2.257569889,0.03766,5.846884707,
0.03768,-2.257569889,0.03768,6.212315001,
0.0377,1.762163347,0.0377,5.846884707,
0.03772,0.6658724648,0.03772,5.481454413,
0.03774,2.493023936,0.03774,5.846884707,
0.03776,2.127593642,0.03776,5.846884707,
0.03778,2.493023936,0.03778,5.116024118,
0.0378,2.493023936,0.0378,5.116024118,
0.03782,3.589314818,0.03782,5.116024118,
0.03784,5.781896583,0.03784,5.481454413,
0.03786,5.051035995,0.03786,5.481454413,
0.03788,5.416466289,0.03788,5.481454413,
0.0379,5.416466289,0.0379,5.481454413,
0.03792,5.051035995,0.03792,5.846884707,
0.03794,5.781896583,0.03794,5.116024118,
0.03796,5.781896583,0.03796,5.481454413,
0.03798,5.781896583,0.03798,6.212315001,
0.038,6.147326877,0.038,5.116024118,
0.03802,5.051035995,0.03802,5.846884707,
0.03804,4.320175407,0.03804,5.481454413,
0.03806,-0.06498812352,0.03806,5.116024118,
0.03808,2.85845423,0.03808,5.846884707,
0.0381,1.396733053,0.0381,5.116024118,
0.03812,1.762163347,0.03812,5.116024118,
0.03814,1.031302759,0.03814,5.846884707,
0.03816,-0.4304184177,0.03816,5.116024118,
0.03818,-1.161279006,0.03818,5.116024118,
0.0382,-2.257569889,0.0382,5.846884707,
0.03822,-1.892139594,0.03822,5.846884707,
0.03824,-4.084721359,0.03824,5.116024118,
0.03826,-2.988430477,0.03826,5.846884707,
0.03828,-2.623000183,0.03828,5.481454413,
0.0383,-6.642733419,0.0383,4.750593824,
0.03832,-4.450151654,0.03832,5.481454413,
0.03834,-4.815581948,0.03834,5.481454413,
0.03836,-4.815581948,0.03836,5.116024118,
0.03838,-5.546442536,0.03838,5.481454413,
0.0384,-4.815581948,0.0384,5.481454413,
0.03842,-4.450151654,0.03842,5.481454413,
0.03844,-4.450151654,0.03844,5.846884707,
0.03846,-5.546442536,0.03846,5.481454413,
0.03848,-4.815581948,0.03848,5.116024118,
0.0385,-4.084721359,0.0385,5.846884707,
0.03852,-4.084721359,0.03852,5.481454413,
0.03854,-2.988430477,0.03854,5.116024118,
0.03856,-2.623000183,0.03856,5.481454413,
0.03858,-1.161279006,0.03858,5.481454413,
0.0386,-0.4304184177,0.0386,4.750593824,
0.03862,-1.161279006,0.03862,5.846884707,
0.03864,-0.4304184177,0.03864,5.116024118,
0.03866,2.493023936,0.03866,5.116024118,
0.03868,1.762163347,0.03868,5.481454413,
0.0387,3.223884524,0.0387,5.481454413,
0.03872,3.589314818,0.03872,5.116024118,
0.03874,4.320175407,0.03874,5.481454413,
0.03876,4.320175407,0.03876,5.116024118,
0.03878,5.051035995,0.03878,5.116024118,
0.0388,6.147326877,0.0388,5.481454413,
0.03882,5.051035995,0.03882,5.481454413,
0.03884,4.685605701,0.03884,5.116024118,
0.03886,5.416466289,0.03886,5.846884707,
0.03888,5.416466289,0.03888,5.846884707,
0.0389,4.320175407,0.0389,5.116024118,
0.03892,5.051035995,0.03892,5.481454413,
0.03894,4.685605701,0.03894,5.481454413,
0.03896,5.416466289,0.03896,5.481454413,
0.03898,3.954745112,0.03898,5.846884707,
0.039,2.493023936,0.039,5.481454413,
0.03902,2.85845423,0.03902,5.116024118,
0.03904,2.85845423,0.03904,5.481454413,
0.03906,1.396733053,0.03906,5.846884707,
0.03908,-0.7958487119,0.03908,4.750593824,
0.0391,0.6658724648,0.0391,5.846884707,
0.03912,-0.7958487119,0.03912,5.846884707,
0.03914,-1.892139594,0.03914,5.116024118,
0.03916,-2.623000183,0.03916,5.846884707,
0.03918,-2.623000183,0.03918,5.481454413,
0.0392,-3.719291065,0.0392,4.750593824,
0.03922,-4.084721359,0.03922,5.846884707,
0.03924,-4.815581948,0.03924,5.481454413,
0.03926,-4.815581948,0.03926,5.481454413,
0.03928,-4.815581948,0.03928,5.481454413,
0.0393,-4.815581948,0.0393,5.481454413,
0.03932,-6.277303124,0.03932,5.116024118,
0.03934,-5.91187283,0.03934,5.846884707,
0.03936,-1.892139594,0.03936,5.481454413,
0.03938,-5.181012242,0.03938,5.481454413,
0.0394,-4.084721359,0.0394,5.116024118,
0.03942,-3.719291065,0.03942,5.481454413,
0.03944,-4.084721359,0.03944,5.116024118,
0.03946,-2.257569889,0.03946,5.846884707,
0.03948,-3.353860771,0.03948,5.846884707,
0.0395,-3.353860771,0.0395,5.846884707,
0.03952,-1.5267093,0.03952,6.577745295,
0.03954,0.3004421707,0.03954,5.481454413,
0.03956,0.3004421707,0.03956,5.481454413,
0.03958,0.3004421707,0.03958,5.481454413,
0.0396,1.762163347,0.0396,5.116024118,
0.03962,2.493023936,0.03962,5.116024118,
0.03964,3.954745112,0.03964,5.481454413,
0.03966,2.85845423,0.03966,5.846884707,
0.03968,3.589314818,0.03968,5.846884707,
0.0397,4.320175407,0.0397,5.481454413,
0.03972,7.24361776,0.03972,5.481454413,
0.03974,5.051035995,0.03974,5.116024118,
0.03976,5.051035995,0.03976,5.846884707,
0.03978,4.320175407,0.03978,5.481454413,
0.0398,5.781896583,0.0398,6.212315001,
0.03982,4.685605701,0.03982,6.212315001,
0.03984,3.954745112,0.03984,5.846884707,
0.03986,5.051035995,0.03986,5.481454413,
0.03988,4.685605701,0.03988,6.212315001,
0.0399,3.223884524,0.0399,6.212315001,
0.03992,3.223884524,0.03992,5.116024118,
0.03994,2.85845423,0.03994,6.212315001,
0.03996,2.127593642,0.03996,5.481454413,
0.03998,1.031302759,0.03998,5.481454413,
0.04,0.6658724648,0.04,4.750593824,
0.04002,-0.7958487119,0.04002,5.481454413,
0.04004,1.396733053,0.04004,5.846884707,
0.04006,-0.7958487119,0.04006,5.846884707,
0.04008,-2.257569889,0.04008,5.481454413,
0.0401,-2.257569889,0.0401,4.750593824,
0.04012,-2.988430477,0.04012,6.577745295,
0.04014,-2.988430477,0.04014,5.846884707,
0.04016,-4.450151654,0.04016,4.750593824,
0.04018,-4.450151654,0.04018,5.846884707,
0.0402,-5.546442536,0.0402,7.308605883,
0.04022,-5.181012242,0.04022,5.116024118,
0.04024,-7.373594007,0.04024,6.212315001,
0.04026,-6.277303124,0.04026,5.481454413,
0.04028,-5.546442536,0.04028,5.481454413,
0.0403,-4.450151654,0.0403,4.38516353,
0.04032,-5.181012242,0.04032,5.481454413,
0.04034,-4.450151654,0.04034,5.481454413,
0.04036,-3.353860771,0.04036,6.212315001,
0.04038,-2.623000183,0.04038,5.846884707,
0.0404,-1.892139594,0.0404,5.846884707,
0.04042,-2.988430477,0.04042,6.577745295,
0.04044,-2.988430477,0.04044,5.481454413,
0.04046,-1.161279006,0.04046,5.481454413,
0.04048,-0.06498812352,0.04048,5.846884707,
0.0405,-0.7958487119,0.0405,6.212315001,
0.04052,1.031302759,0.04052,5.481454413,
0.04054,1.762163347,0.04054,6.212315001,
0.04056,2.127593642,0.04056,5.481454413,
0.04058,3.223884524,0.04058,5.116024118,
0.0406,3.954745112,0.0406,4.750593824,
0.04062,4.685605701,0.04062,5.846884707,
0.04064,3.954745112,0.04064,5.116024118,
0.04066,4.685605701,0.04066,5.846884707,
0.04068,5.051035995,0.04068,5.481454413,
0.0407,5.416466289,0.0407,6.212315001,
0.04072,4.320175407,0.04072,6.212315001,
0.04074,5.051035995,0.04074,5.481454413,
0.04076,3.954745112,0.04076,5.116024118,
0.04078,5.051035995,0.04078,5.846884707,
0.0408,3.589314818,0.0408,5.481454413,
0.04082,3.589314818,0.04082,4.019733236,
0.04084,4.320175407,0.04084,6.212315001,
0.04086,3.223884524,0.04086,5.846884707,
0.04088,2.127593642,0.04088,5.116024118,
0.0409,1.762163347,0.0409,5.116024118,
0.04092,2.85845423,0.04092,5.481454413,
0.04094,0.3004421707,0.04094,5.481454413,
0.04096,-0.4304184177,0.04096,5.481454413,
0.04098,-1.161279006,0.04098,5.481454413,
0.041,-2.257569889,0.041,5.481454413,
0.04102,-1.161279006,0.04102,5.481454413,
0.04104,-2.988430477,0.04104,5.481454413,
0.04106,-4.084721359,0.04106,5.481454413,
0.04108,-3.719291065,0.04108,6.212315001,
0.0411,-4.815581948,0.0411,6.577745295,
0.04112,-5.91187283,0.04112,5.116024118,
0.04114,-4.815581948,0.04114,6.212315001,
0.04116,-5.181012242,0.04116,5.481454413,
0.04118,-5.546442536,0.04118,5.481454413,
0.0412,-4.815581948,0.0412,5.481454413,
0.04122,-5.546442536,0.04122,5.481454413,
0.04124,-4.815581948,0.04124,5.116024118,
0.04126,-5.546442536,0.04126,5.846884707,
0.04128,-2.623000183,0.04128,5.481454413,
0.0413,-4.450151654,0.0413,5.481454413,
0.04132,-2.988430477,0.04132,5.846884707,
0.04134,-3.353860771,0.04134,5.481454413,
0.04136,-2.623000183,0.04136,5.481454413,
0.04138,-4.084721359,0.04138,6.212315001,
0.0414,-1.5267093,0.0414,4.750593824,
0.04142,-0.7958487119,0.04142,5.481454413,
0.04144,0.6658724648,0.04144,5.846884707,
0.04146,-0.06498812352,0.04146,5.116024118,
0.04148,1.396733053,0.04148,5.481454413,
0.0415,2.493023936,0.0415,5.481454413,
0.04152,2.127593642,0.04152,5.481454413,
0.04154,5.416466289,0.04154,5.116024118,
0.04156,4.685605701,0.04156,5.846884707,
0.04158,5.051035995,0.04158,5.481454413,
0.0416,5.416466289,0.0416,5.846884707,
0.04162,5.781896583,0.04162,5.481454413,
0.04164,5.051035995,0.04164,5.481454413,
0.04166,6.147326877,0.04166,5.481454413,
0.04168,7.24361776,0.04168,5.481454413,
0.0417,5.781896583,0.0417,5.846884707,
0.04172,4.685605701,0.04172,5.481454413,
0.04174,4.320175407,0.04174,5.481454413,
0.04176,4.320175407,0.04176,5.846884707,
0.04178,5.051035995,0.04178,5.481454413,
0.0418,2.85845423,0.0418,5.116024118,
0.04182,2.493023936,0.04182,5.481454413,
0.04184,1.762163347,0.04184,5.846884707,
0.04186,0.6658724648,0.04186,5.846884707,
0.04188,0.3004421707,0.04188,5.116024118,
0.0419,-0.4304184177,0.0419,5.846884707,
0.04192,-0.7958487119,0.04192,5.846884707,
0.04194,-1.161279006,0.04194,5.846884707,
0.04196,-2.988430477,0.04196,5.481454413,
0.04198,-3.353860771,0.04198,5.846884707,
0.042,-3.719291065,0.042,6.212315001,
0.04202,-3.719291065,0.04202,5.846884707,
0.04204,-4.815581948,0.04204,5.481454413,
0.04206,-4.084721359,0.04206,5.846884707,
0.04208,-5.546442536,0.04208,6.943175589,
0.0421,-3.719291065,0.0421,5.481454413,
0.04212,-4.815581948,0.04212,6.212315001,
0.04214,-5.181012242,0.04214,5.116024118,
0.04216,-5.181012242,0.04216,5.846884707,
0.04218,-5.546442536,0.04218,5.846884707,
0.0422,-4.815581948,0.0422,5.116024118,
0.04222,-5.91187283,0.04222,5.846884707,
0.04224,-3.719291065,0.04224,5.846884707,
0.04226,-4.084721359,0.04226,5.846884707,
0.04228,-2.623000183,0.04228,5.481454413,
0.0423,-1.5267093,0.0423,5.846884707,
0.04232,-1.161279006,0.04232,5.481454413,
0.04234,-0.7958487119,0.04234,5.481454413,
0.04236,1.031302759,0.04236,5.846884707,
0.04238,-0.06498812352,0.04238,5.481454413,
0.0424,1.031302759,0.0424,5.116024118,
0.04242,2.85845423,0.04242,5.481454413,
0.04244,3.223884524,0.04244,5.481454413,
0.04246,4.320175407,0.04246,5.481454413,
0.04248,3.589314818,0.04248,5.481454413,
0.0425,6.147326877,0.0425,5.846884707,
0.04252,5.416466289,0.04252,5.481454413,
0.04254,3.589314818,0.04254,6.212315001,
0.04256,4.320175407,0.04256,5.846884707,
0.04258,5.781896583,0.04258,5.116024118,
0.0426,4.320175407,0.0426,5.846884707,
0.04262,5.416466289,0.04262,5.481454413,
0.04264,5.781896583,0.04264,6.212315001,
0.04266,5.416466289,0.04266,5.846884707,
0.04268,3.954745112,0.04268,5.846884707,
0.0427,4.320175407,0.0427,5.116024118,
0.04272,3.589314818,0.04272,6.212315001,
0.04274,2.493023936,0.04274,5.846884707,
0.04276,2.127593642,0.04276,5.481454413,
0.04278,2.127593642,0.04278,5.846884707,
0.0428,1.762163347,0.0428,5.846884707,
0.04282,-0.06498812352,0.04282,5.846884707,
0.04284,-0.4304184177,0.04284,5.846884707,
0.04286,-1.161279006,0.04286,5.846884707,
0.04288,-2.988430477,0.04288,5.481454413,
0.0429,-2.988430477,0.0429,5.846884707,
0.04292,-3.353860771,0.04292,5.116024118,
0.04294,-3.719291065,0.04294,5.481454413,
0.04296,-4.450151654,0.04296,5.481454413,
0.04298,-4.815581948,0.04298,6.212315001,
0.043,-5.91187283,0.043,5.846884707,
0.04302,-5.181012242,0.04302,6.577745295,
0.04304,-7.008163713,0.04304,6.212315001,
0.04306,-5.181012242,0.04306,5.481454413,
0.04308,-5.181012242,0.04308,5.846884707,
0.0431,-5.546442536,0.0431,6.212315001,
0.04312,-5.546442536,0.04312,5.846884707,
0.04314,-4.450151654,0.04314,5.846884707,
0.04316,-5.91187283,0.04316,5.481454413,
0.04318,-1.5267093,0.04318,5.846884707,
0.0432,-2.623000183,0.0432,5.846884707,
0.04322,-2.257569889,0.04322,5.116024118,
0.04324,-1.161279006,0.04324,5.481454413,
0.04326,-1.161279006,0.04326,6.577745295,
0.04328,1.031302759,0.04328,5.481454413,
0.0433,0.6658724648,0.0433,5.846884707,
0.04332,3.223884524,0.04332,6.943175589,
0.04334,1.396733053,0.04334,4.750593824,
0.04336,6.512757172,0.04336,5.846884707,
0.04338,2.85845423,0.04338,5.481454413,
0.0434,3.223884524,0.0434,5.116024118,
0.04342,4.685605701,0.04342,4.750593824,
0.04344,4.320175407,0.04344,5.481454413,
0.04346,5.781896583,0.04346,5.116024118,
0.04348,5.051035995,0.04348,5.481454413,
0.0435,5.781896583,0.0435,5.846884707,
0.04352,5.781896583,0.04352,5.116024118,
0.04354,5.781896583,0.04354,5.481454413,
0.04356,7.24361776,0.04356,5.481454413,
0.04358,4.685605701,0.04358,5.116024118,
0.0436,4.320175407,0.0436,5.846884707,
0.04362,5.051035995,0.04362,5.481454413,
0.04364,3.589314818,0.04364,5.116024118,
0.04366,3.223884524,0.04366,5.481454413,
0.04368,3.223884524,0.04368,5.481454413,
0.0437,2.85845423,0.0437,5.116024118,
0.04372,1.762163347,0.04372,5.116024118,
0.04374,-0.06498812352,0.04374,5.481454413,
0.04376,1.031302759,0.04376,5.481454413,
0.04378,0.6658724648,0.04378,5.846884707,
0.0438,-1.161279006,0.0438,5.116024118,
0.04382,-2.623000183,0.04382,5.481454413,
0.04384,-3.719291065,0.04384,5.846884707,
0.04386,-2.988430477,0.04386,5.846884707,
0.04388,-3.719291065,0.04388,5.481454413,
0.0439,-4.450151654,0.0439,5.481454413,
0.04392,-4.450151654,0.04392,5.481454413,
0.04394,-4.084721359,0.04394,5.116024118,
0.04396,-4.450151654,0.04396,5.481454413,
0.04398,-3.719291065,0.04398,5.481454413,
0.044,-5.181012242,0.044,5.481454413,
0.04402,-5.546442536,0.04402,5.116024118,
0.04404,-6.642733419,0.04404,5.116024118,
0.04406,-4.815581948,0.04406,5.116024118,
0.04408,-4.450151654,0.04408,5.846884707,
0.0441,-3.353860771,0.0441,5.481454413,
0.04412,-3.719291065,0.04412,5.481454413,
0.04414,-1.892139594,0.04414,5.116024118,
0.04416,-1.5267093,0.04416,5.116024118,
0.04418,-1.5267093,0.04418,4.750593824,
0.0442,-0.7958487119,0.0442,5.481454413,
0.04422,-0.4304184177,0.04422,5.116024118,
0.04424,2.127593642,0.04424,4.750593824,
0.04426,1.396733053,0.04426,5.846884707,
0.04428,2.493023936,0.04428,5.846884707,
0.0443,2.127593642,0.0443,5.481454413,
0.04432,3.223884524,0.04432,5.481454413,
0.04434,4.685605701,0.04434,5.116024118,
0.04436,3.223884524,0.04436,4.750593824,
0.04438,5.416466289,0.04438,5.481454413,
0.0444,5.416466289,0.0444,5.481454413,
0.04442,5.416466289,0.04442,5.481454413,
0.04444,6.512757172,0.04444,5.481454413,
0.04446,6.147326877,0.04446,5.846884707,
0.04448,5.416466289,0.04448,5.116024118,
0.0445,6.147326877,0.0445,5.481454413,
0.04452,4.320175407,0.04452,5.481454413,
0.04454,2.493023936,0.04454,5.481454413,
0.04456,4.685605701,0.04456,5.481454413,
0.04458,4.320175407,0.04458,5.116024118,
0.0446,2.127593642,0.0446,4.750593824,
0.04462,2.85845423,0.04462,6.212315001,
0.04464,2.493023936,0.04464,5.481454413,
0.04466,0.3004421707,0.04466,5.481454413,
0.04468,-0.06498812352,0.04468,5.481454413,
0.0447,-0.4304184177,0.0447,5.846884707,
0.04472,-1.161279006,0.04472,5.116024118,
0.04474,-0.4304184177,0.04474,5.481454413,
0.04476,-2.257569889,0.04476,5.481454413,
0.04478,-3.353860771,0.04478,5.116024118,
0.0448,-2.623000183,0.0448,5.481454413,
0.04482,-3.719291065,0.04482,5.116024118,
0.04484,-6.277303124,0.04484,5.116024118,
0.04486,-4.815581948,0.04486,5.481454413,
0.04488,-4.450151654,0.04488,5.116024118,
0.0449,-5.181012242,0.0449,4.750593824,
0.04492,-4.815581948,0.04492,5.846884707,
0.04494,-8.104454595,0.04494,5.481454413,
0.04496,-5.181012242,0.04496,5.481454413,
0.04498,-4.815581948,0.04498,5.846884707,
0.045,-3.719291065,0.045,5.116024118,
0.04502,-4.084721359,0.04502,5.116024118,
0.04504,-3.353860771,0.04504,5.846884707,
0.04506,-3.353860771,0.04506,5.481454413,
0.04508,-2.257569889,0.04508,5.481454413,
0.0451,-1.161279006,0.0451,5.481454413,
0.04512,-1.161279006,0.04512,5.481454413,
0.04514,-0.4304184177,0.04514,5.481454413,
0.04516,0.6658724648,0.04516,5.846884707,
0.04518,-0.4304184177,0.04518,5.481454413,
0.0452,1.396733053,0.0452,5.116024118,
0.04522,1.396733053,0.04522,5.481454413,
0.04524,4.320175407,0.04524,5.481454413,
0.04526,3.223884524,0.04526,5.116024118,
0.04528,3.954745112,0.04528,5.481454413,
0.0453,7.974478348,0.0453,5.846884707,
0.04532,3.223884524,0.04532,5.116024118,
0.04534,3.954745112,0.04534,5.481454413,
0.04536,5.416466289,0.04536,5.846884707,
0.04538,5.416466289,0.04538,6.212315001,
0.0454,5.051035995,0.0454,5.846884707,
0.04542,5.051035995,0.04542,5.116024118,
0.04544,4.685605701,0.04544,5.846884707,
0.04546,4.685605701,0.04546,5.116024118,
0.04548,3.589314818,0.04548,5.481454413,
0.0455,3.223884524,0.0455,6.212315001,
0.04552,3.954745112,0.04552,5.481454413,
0.04554,2.127593642,0.04554,5.481454413,
0.04556,2.127593642,0.04556,5.846884707,
0.04558,1.031302759,0.04558,5.481454413,
0.0456,-0.06498812352,0.0456,5.481454413,
0.04562,0.3004421707,0.04562,5.846884707,
0.04564,-1.5267093,0.04564,5.481454413,
0.04566,-1.5267093,0.04566,5.481454413,
0.04568,-2.257569889,0.04568,6.212315001,
0.0457,-3.353860771,0.0457,5.846884707,
0.04572,-4.084721359,0.04572,5.116024118,
0.04574,-2.623000183,0.04574,5.481454413,
0.04576,-5.181012242,0.04576,5.846884707,
0.04578,-4.815581948,0.04578,5.846884707,
0.0458,-6.277303124,0.0458,6.577745295,
0.04582,-5.546442536,0.04582,5.481454413,
0.04584,-5.91187283,0.04584,5.116024118,
0.04586,-5.546442536,0.04586,6.212315001,
0.04588,-6.277303124,0.04588,5.846884707,
0.0459,-5.546442536,0.0459,5.481454413,
0.04592,-4.815581948,0.04592,6.212315001,
0.04594,-5.91187283,0.04594,6.943175589,
0.04596,-4.815581948,0.04596,5.481454413,
0.04598,-0.06498812352,0.04598,5.481454413,
0.046,-3.719291065,0.046,5.481454413,
0.04602,-2.623000183,0.04602,5.481454413,
0.04604,-2.257569889,0.04604,5.846884707,
0.04606,-1.161279006,0.04606,5.846884707,
0.04608,-0.7958487119,0.04608,5.116024118,
0.0461,-1.892139594,0.0461,6.212315001,
0.04612,0.6658724648,0.04612,5.481454413,
0.04614,2.85845423,0.04614,6.577745295,
0.04616,1.396733053,0.04616,6.212315001,
0.04618,2.85845423,0.04618,5.481454413,
0.0462,4.685605701,0.0462,5.481454413,
0.04622,3.589314818,0.04622,5.846884707,
0.04624,4.685605701,0.04624,6.212315001,
0.04626,5.416466289,0.04626,5.481454413,
0.04628,5.416466289,0.04628,5.481454413,
0.0463,5.416466289,0.0463,5.481454413,
0.04632,4.320175407,0.04632,5.846884707,
0.04634,5.416466289,0.04634,4.38516353,
0.04636,3.589314818,0.04636,5.481454413,
0.04638,3.954745112,0.04638,5.481454413,
0.0464,5.051035995,0.0464,5.846884707,
0.04642,3.954745112,0.04642,5.846884707,
0.04644,3.589314818,0.04644,4.750593824,
0.04646,2.493023936,0.04646,5.846884707,
0.04648,2.85845423,0.04648,5.481454413,
0.0465,1.762163347,0.0465,5.116024118,
0.04652,1.031302759,0.04652,5.846884707,
0.04654,-0.06498812352,0.04654,7.308605883,
0.04656,-0.7958487119,0.04656,5.481454413,
0.04658,-3.353860771,0.04658,6.212315001,
0.0466,-1.892139594,0.0466,5.846884707,
0.04662,-2.257569889,0.04662,5.481454413,
0.04664,-1.892139594,0.04664,4.38516353,
0.04666,-3.719291065,0.04666,5.481454413,
0.04668,-3.719291065,0.04668,5.481454413,
0.0467,-3.719291065,0.0467,5.846884707,
0.04672,-5.181012242,0.04672,5.116024118,
0.04674,-4.450151654,0.04674,5.846884707,
0.04676,-4.450151654,0.04676,5.116024118,
0.04678,-5.91187283,0.04678,5.846884707,
0.0468,-4.815581948,0.0468,5.481454413,
0.04682,-7.008163713,0.04682,5.481454413,
0.04684,-5.181012242,0.04684,6.577745295,
0.04686,-4.450151654,0.04686,5.116024118,
0.04688,-4.084721359,0.04688,6.212315001,
0.0469,-3.353860771,0.0469,5.846884707,
0.04692,-4.084721359,0.04692,5.481454413,
0.04694,-2.988430477,0.04694,5.116024118,
0.04696,-3.353860771,0.04696,5.481454413,
0.04698,-1.161279006,0.04698,5.481454413,
0.047,-0.7958487119,0.047,5.481454413,
0.04702,-1.161279006,0.04702,5.481454413,
0.04704,0.6658724648,0.04704,4.750593824,
0.04706,2.85845423,0.04706,5.846884707,
0.04708,3.223884524,0.04708,6.212315001,
0.0471,1.762163347,0.0471,5.846884707,
0.04712,3.954745112,0.04712,5.846884707,
0.04714,3.589314818,0.04714,7.308605883,
0.04716,3.223884524,0.04716,5.481454413,
0.04718,5.051035995,0.04718,5.846884707,
0.0472,5.416466289,0.0472,5.116024118,
0.04722,4.685605701,0.04722,5.481454413,
0.04724,5.781896583,0.04724,4.019733236,
0.04726,5.051035995,0.04726,5.481454413,
0.04728,6.512757172,0.04728,5.481454413,
0.0473,5.416466289,0.0473,5.481454413,
0.04732,5.051035995,0.04732,5.846884707,
0.04734,3.589314818,0.04734,4.750593824,
0.04736,3.223884524,0.04736,5.846884707,
0.04738,3.589314818,0.04738,5.846884707,
0.0474,4.320175407,0.0474,5.116024118,
0.04742,2.493023936,0.04742,5.846884707,
0.04744,1.396733053,0.04744,6.212315001,
0.04746,3.223884524,0.04746,5.481454413,
0.04748,0.6658724648,0.04748,5.846884707,
0.0475,-0.7958487119,0.0475,5.846884707,
0.04752,-1.161279006,0.04752,5.846884707,
0.04754,-0.4304184177,0.04754,6.212315001,
0.04756,-1.892139594,0.04756,5.481454413,
0.04758,-2.988430477,0.04758,5.846884707,
0.0476,-2.988430477,0.0476,5.846884707,
0.04762,-4.084721359,0.04762,5.846884707,
0.04764,-4.084721359,0.04764,5.116024118,
0.04766,-4.815581948,0.04766,5.481454413,
0.04768,-5.546442536,0.04768,5.481454413,
0.0477,-4.815581948,0.0477,5.846884707,
0.04772,-4.084721359,0.04772,5.481454413,
0.04774,-5.91187283,0.04774,6.212315001,
0.04776,-5.181012242,0.04776,5.481454413,
0.04778,-4.450151654,0.04778,5.846884707,
0.0478,-3.353860771,0.0478,6.212315001,
0.04782,-3.719291065,0.04782,5.481454413,
0.04784,-2.988430477,0.04784,5.846884707,
0.04786,-2.988430477,0.04786,5.846884707,
0.04788,-2.623000183,0.04788,5.481454413,
0.0479,-1.892139594,0.0479,5.481454413,
0.04792,-0.7958487119,0.04792,5.846884707,
0.04794,0.3004421707,0.04794,5.481454413,
0.04796,1.031302759,0.04796,5.481454413,
0.04798,0.3004421707,0.04798,5.481454413,
0.048,2.493023936,0.048,5.116024118,
0.04802,2.493023936,0.04802,5.481454413,
0.04804,3.589314818,0.04804,5.846884707,
0.04806,3.954745112,0.04806,5.846884707,
0.04808,3.589314818,0.04808,5.846884707,
0.0481,4.320175407,0.0481,5.481454413,
0.04812,4.320175407,0.04812,5.481454413,
0.04814,4.685605701,0.04814,5.846884707,
0.04816,5.781896583,0.04816,5.481454413,
0.04818,5.051035995,0.04818,5.481454413,
0.0482,5.781896583,0.0482,5.116024118,
0.04822,6.147326877,0.04822,5.116024118,
0.04824,4.320175407,0.04824,5.481454413,
0.04826,5.051035995,0.04826,5.846884707,
0.04828,3.589314818,0.04828,5.481454413,
0.0483,3.589314818,0.0483,5.846884707,
0.04832,3.954745112,0.04832,5.846884707,
0.04834,2.493023936,0.04834,5.846884707,
0.04836,2.493023936,0.04836,5.481454413,
0.04838,2.493023936,0.04838,6.212315001,
0.0484,-0.4304184177,0.0484,5.481454413,
0.04842,0.3004421707,0.04842,5.116024118,
0.04844,-0.7958487119,0.04844,6.212315001,
0.04846,-1.161279006,0.04846,5.846884707,
0.04848,-1.892139594,0.04848,5.116024118,
0.0485,0.3004421707,0.0485,6.212315001,
0.04852,-2.257569889,0.04852,4.750593824,
0.04854,-4.084721359,0.04854,5.116024118,
0.04856,-4.084721359,0.04856,5.846884707,
0.04858,-5.181012242,0.04858,5.481454413,
0.0486,-5.181012242,0.0486,5.116024118,
0.04862,-4.815581948,0.04862,6.212315001,
0.04864,-5.546442536,0.04864,5.846884707,
0.04866,-5.181012242,0.04866,5.116024118,
0.04868,-4.815581948,0.04868,5.481454413,
0.0487,-6.277303124,0.0487,5.481454413,
0.04872,-4.450151654,0.04872,5.116024118,
0.04874,-4.450151654,0.04874,5.846884707,
0.04876,1.762163347,0.04876,5.481454413,
0.04878,-4.450151654,0.04878,5.481454413,
0.0488,-2.988430477,0.0488,5.846884707,
0.04882,-4.450151654,0.04882,5.481454413,
0.04884,-1.5267093,0.04884,4.750593824,
0.04886,-1.892139594,0.04886,6.212315001,
0.04888,-0.7958487119,0.04888,5.481454413,
0.0489,-0.4304184177,0.0489,5.481454413,
0.04892,1.396733053,0.04892,5.481454413,
0.04894,1.396733053,0.04894,5.846884707,
0.04896,2.127593642,0.04896,4.38516353,
0.04898,2.493023936,0.04898,5.846884707,
0.049,3.223884524,0.049,5.481454413,
0.04902,4.685605701,0.04902,5.481454413,
0.04904,5.416466289,0.04904,6.212315001,
0.04906,5.051035995,0.04906,5.846884707,
0.04908,5.416466289,0.04908,5.481454413,
0.0491,4.320175407,0.0491,6.212315001,
0.04912,5.051035995,0.04912,5.846884707,
0.04914,4.685605701,0.04914,5.116024118,
0.04916,6.147326877,0.04916,6.212315001,
0.04918,5.051035995,0.04918,5.846884707,
0.0492,4.320175407,0.0492,5.481454413,
0.04922,4.320175407,0.04922,6.212315001,
0.04924,2.85845423,0.04924,5.481454413,
0.04926,2.85845423,0.04926,4.38516353,
0.04928,2.85845423,0.04928,5.846884707,
0.0493,1.396733053,0.0493,5.481454413,
0.04932,1.031302759,0.04932,5.116024118,
0.04934,-0.4304184177,0.04934,6.212315001,
0.04936,-0.4304184177,0.04936,6.577745295,
0.04938,-0.7958487119,0.04938,5.481454413,
0.0494,-0.7958487119,0.0494,5.846884707,
0.04942,-2.988430477,0.04942,5.846884707,
0.04944,-2.988430477,0.04944,5.481454413,
0.04946,-2.623000183,0.04946,4.750593824,
0.04948,-3.353860771,0.04948,5.481454413,
0.0495,-5.91187283,0.0495,5.116024118,
0.04952,-4.450151654,0.04952,5.846884707,
0.04954,-6.642733419,0.04954,5.481454413,
0.04956,-4.450151654,0.04956,5.481454413,
0.04958,-5.181012242,0.04958,5.846884707,
0.0496,-6.277303124,0.0496,5.481454413,
0.04962,-5.546442536,0.04962,5.116024118,
0.04964,-4.815581948,0.04964,5.846884707,
0.04966,-5.546442536,0.04966,5.116024118,
0.04968,-3.353860771,0.04968,5.481454413,
0.0497,-2.623000183,0.0497,6.212315001,
0.04972,-4.450151654,0.04972,5.481454413,
0.04974,-3.353860771,0.04974,5.481454413,
0.04976,-1.892139594,0.04976,5.481454413,
0.04978,-2.623000183,0.04978,5.481454413,
0.0498,-2.257569889,0.0498,5.846884707,
0.04982,0.3004421707,0.04982,5.846884707,
0.04984,1.031302759,0.04984,5.481454413,
0.04986,0.6658724648,0.04986,5.846884707,
0.04988,2.493023936,0.04988,6.212315001,
0.0499,2.493023936,0.0499,5.116024118,
0.04992,1.762163347,0.04992,5.481454413,
0.04994,4.685605701,0.04994,6.212315001,
0.04996,3.954745112,0.04996,5.481454413,
0.04998,5.781896583,0.04998,5.481454413,
0.05,3.589314818,0.05,5.846884707,
0.05002,5.416466289,0.05002,5.481454413,
0.05004,5.051035995,0.05004,5.481454413,
0.05006,4.685605701,0.05006,5.481454413,
0.05008,3.223884524,0.05008,5.846884707,
0.0501,5.781896583,0.0501,5.481454413,
0.05012,5.051035995,0.05012,6.212315001,
0.05014,3.589314818,0.05014,5.846884707,
0.05016,3.589314818,0.05016,5.846884707,
0.05018,3.223884524,0.05018,6.212315001,
0.0502,2.85845423,0.0502,5.846884707,
0.05022,2.85845423,0.05022,5.481454413,
0.05024,3.954745112,0.05024,5.846884707,
0.05026,-0.06498812352,0.05026,5.481454413,
0.05028,1.031302759,0.05028,5.481454413,
0.0503,-0.7958487119,0.0503,5.846884707,
0.05032,-1.5267093,0.05032,5.481454413,
0.05034,-1.892139594,0.05034,5.846884707,
0.05036,-1.892139594,0.05036,5.846884707,
0.05038,-3.719291065,0.05038,5.846884707,
0.0504,-3.719291065,0.0504,5.481454413,
0.05042,-4.450151654,0.05042,5.481454413,
0.05044,-6.642733419,0.05044,5.846884707,
0.05046,-4.815581948,0.05046,5.846884707,
0.05048,-3.719291065,0.05048,5.846884707,
0.0505,-5.181012242,0.0505,5.846884707,
0.05052,-3.719291065,0.05052,5.481454413,
0.05054,-6.277303124,0.05054,5.846884707,
0.05056,-4.815581948,0.05056,6.212315001,
0.05058,-4.815581948,0.05058,5.481454413,
0.0506,-4.450151654,0.0506,5.846884707,
0.05062,-3.353860771,0.05062,5.846884707,
0.05064,-2.988430477,0.05064,5.481454413,
0.05066,-2.257569889,0.05066,5.481454413,
0.05068,-3.353860771,0.05068,5.481454413,
0.0507,-1.161279006,0.0507,5.846884707,
0.05072,-0.4304184177,0.05072,5.846884707,
0.05074,-0.7958487119,0.05074,5.846884707,
0.05076,1.396733053,0.05076,5.846884707,
0.05078,3.223884524,0.05078,5.846884707,
0.0508,0.6658724648,0.0508,5.846884707,
0.05082,2.493023936,0.05082,5.846884707,
0.05084,3.589314818,0.05084,5.846884707,
0.05086,3.589314818,0.05086,5.846884707,
0.05088,5.781896583,0.05088,5.481454413,
0.0509,5.051035995,0.0509,6.212315001,
0.05092,3.954745112,0.05092,5.846884707,
0.05094,5.781896583,0.05094,5.846884707,
0.05096,5.416466289,0.05096,5.846884707,
0.05098,3.223884524,0.05098,5.846884707,
0.051,5.781896583,0.051,5.846884707,
0.05102,5.416466289,0.05102,5.846884707,
0.05104,4.685605701,0.05104,5.846884707,
0.05106,5.051035995,0.05106,4.38516353,
0.05108,4.685605701,0.05108,6.212315001,
0.0511,3.589314818,0.0511,5.846884707,
0.05112,3.589314818,0.05112,5.481454413,
0.05114,5.416466289,0.05114,5.846884707,
0.05116,2.127593642,0.05116,5.846884707,
0.05118,2.493023936,0.05118,5.481454413,
0.0512,1.031302759,0.0512,5.846884707,
0.05122,-0.7958487119,0.05122,5.481454413,
0.05124,-0.06498812352,0.05124,5.481454413,
0.05126,-1.161279006,0.05126,5.481454413,
0.05128,-1.892139594,0.05128,5.481454413,
0.0513,-2.988430477,0.0513,5.481454413,
0.05132,-2.257569889,0.05132,5.846884707,
0.05134,-4.450151654,0.05134,5.116024118,
0.05136,-4.084721359,0.05136,5.481454413,
0.05138,-5.546442536,0.05138,5.481454413,
0.0514,-5.91187283,0.0514,5.481454413,
0.05142,-5.181012242,0.05142,5.846884707,
0.05144,-4.084721359,0.05144,5.846884707,
0.05146,-5.546442536,0.05146,5.481454413,
0.05148,-4.815581948,0.05148,5.846884707,
0.0515,-4.815581948,0.0515,5.846884707,
0.05152,-2.988430477,0.05152,5.116024118,
0.05154,-4.084721359,0.05154,5.846884707,
0.05156,-4.815581948,0.05156,6.212315001,
0.05158,-2.257569889,0.05158,5.846884707,
0.0516,-3.353860771,0.0516,5.116024118,
0.05162,-2.623000183,0.05162,5.846884707,
0.05164,-1.892139594,0.05164,5.846884707,
0.05166,-1.161279006,0.05166,5.481454413,
0.05168,-0.06498812352,0.05168,6.577745295,
0.0517,0.6658724648,0.0517,5.481454413,
0.05172,1.762163347,0.05172,5.481454413,
0.05174,2.493023936,0.05174,6.212315001,
0.05176,2.85845423,0.05176,5.481454413,
0.05178,3.223884524,0.05178,4.750593824,
0.0518,3.954745112,0.0518,5.481454413,
0.05182,0.6658724648,0.05182,5.116024118,
0.05184,5.051035995,0.05184,5.481454413,
0.05186,5.416466289,0.05186,5.481454413,
0.05188,5.051035995,0.05188,5.846884707,
0.0519,5.781896583,0.0519,5.481454413,
0.05192,5.416466289,0.05192,5.481454413,
0.05194,5.416466289,0.05194,5.116024118,
0.05196,6.512757172,0.05196,5.116024118,
0.05198,5.051035995,0.05198,5.481454413,
0.052,5.051035995,0.052,5.481454413,
0.05202,4.685605701,0.05202,5.116024118,
0.05204,3.223884524,0.05204,5.481454413,
0.05206,3.589314818,0.05206,5.481454413,
0.05208,2.493023936,0.05208,4.38516353,
0.0521,1.396733053,0.0521,6.212315001,
0.05212,1.762163347,0.05212,5.481454413,
0.05214,1.031302759,0.05214,5.116024118,
0.05216,-0.06498812352,0.05216,5.116024118,
0.05218,-3.353860771,0.05218,6.212315001,
0.0522,-1.5267093,0.0522,5.116024118,
0.05222,-2.623000183,0.05222,5.116024118,
0.05224,-2.623000183,0.05224,5.481454413,
0.05226,-4.450151654,0.05226,5.481454413,
0.05228,-4.084721359,0.05228,6.212315001,
0.0523,-6.642733419,0.0523,5.846884707,
0.05232,-5.546442536,0.05232,5.116024118,
0.05234,-4.084721359,0.05234,5.846884707,
0.05236,-5.181012242,0.05236,5.116024118,
0.05238,-4.450151654,0.05238,3.654302942,
0.0524,-4.084721359,0.0524,5.846884707,
0.05242,-7.008163713,0.05242,5.116024118,
0.05244,-6.642733419,0.05244,4.750593824,
0.05246,-4.084721359,0.05246,5.481454413,
0.05248,-3.719291065,0.05248,6.943175589,
0.0525,-4.084721359,0.0525,5.116024118,
0.05252,-3.719291065,0.05252,5.481454413,
0.05254,-2.988430477,0.05254,5.481454413,
0.05256,-2.623000183,0.05256,5.116024118,
0.05258,-2.257569889,0.05258,5.116024118,
0.0526,-1.5267093,0.0526,5.846884707,
0.05262,-2.988430477,0.05262,5.481454413,
0.05264,1.031302759,0.05264,5.846884707,
0.05266,1.031302759,0.05266,5.481454413,
0.05268,2.127593642,0.05268,4.019733236,
0.0527,3.223884524,0.0527,5.481454413,
0.05272,3.954745112,0.05272,5.481454413,
0.05274,3.954745112,0.05274,5.116024118,
0.05276,5.051035995,0.05276,5.846884707,
0.05278,5.781896583,0.05278,5.481454413,
0.0528,6.147326877,0.0528,5.116024118,
0.05282,5.781896583,0.05282,5.481454413,
0.05284,5.781896583,0.05284,5.846884707,
0.05286,5.416466289,0.05286,5.116024118,
0.05288,5.781896583,0.05288,6.577745295,
0.0529,6.147326877,0.0529,5.846884707,
0.05292,3.223884524,0.05292,5.116024118,
0.05294,3.954745112,0.05294,5.481454413,
0.05296,3.954745112,0.05296,5.481454413,
0.05298,3.223884524,0.05298,4.38516353,
0.053,2.493023936,0.053,6.212315001,
0.05302,2.493023936,0.05302,5.846884707,
0.05304,0.3004421707,0.05304,5.116024118,
0.05306,3.223884524,0.05306,5.846884707,
0.05308,-0.06498812352,0.05308,4.750593824,
0.0531,-1.161279006,0.0531,4.750593824,
0.05312,-1.161279006,0.05312,5.846884707,
0.05314,-0.7958487119,0.05314,5.846884707,
0.05316,-2.988430477,0.05316,5.116024118,
0.05318,-3.719291065,0.05318,6.212315001,
0.0532,-4.450151654,0.0532,5.481454413,
0.05322,-5.546442536,0.05322,5.116024118,
0.05324,-5.546442536,0.05324,5.846884707,
0.05326,-4.450151654,0.05326,5.481454413,
0.05328,-5.91187283,0.05328,5.481454413,
0.0533,-5.546442536,0.0533,5.846884707,
0.05332,-5.546442536,0.05332,5.481454413,
0.05334,-5.91187283,0.05334,5.116024118,
0.05336,-4.815581948,0.05336,5.481454413,
0.05338,-3.719291065,0.05338,5.481454413,
0.0534,-3.719291065,0.0534,5.481454413,
0.05342,-4.084721359,0.05342,5.481454413,
0.05344,-3.719291065,0.05344,5.116024118,
0.05346,-6.277303124,0.05346,5.116024118,
0.05348,-2.623000183,0.05348,5.846884707,
0.0535,-1.5267093,0.0535,5.481454413,
0.05352,-1.161279006,0.05352,5.116024118,
0.05354,0.3004421707,0.05354,5.481454413,
0.05356,0.6658724648,0.05356,5.481454413,
0.05358,0.3004421707,0.05358,5.116024118,
0.0536,2.127593642,0.0536,5.846884707,
0.05362,4.320175407,0.05362,5.481454413,
0.05364,2.493023936,0.05364,4.750593824,
0.05366,3.589314818,0.05366,5.481454413,
0.05368,3.589314818,0.05368,5.481454413,
0.0537,4.685605701,0.0537,4.750593824,
0.05372,5.416466289,0.05372,6.212315001,
0.05374,5.416466289,0.05374,5.116024118,
0.05376,4.685605701,0.05376,5.481454413,
0.05378,6.512757172,0.05378,6.943175589,
0.0538,7.974478348,0.0538,5.481454413,
0.05382,5.781896583,0.05382,5.116024118,
0.05384,6.147326877,0.05384,5.481454413,
0.05386,5.416466289,0.05386,5.846884707,
0.05388,3.223884524,0.05388,5.116024118,
0.0539,4.320175407,0.0539,5.846884707,
0.05392,3.223884524,0.05392,5.481454413,
0.05394,3.589314818,0.05394,5.481454413,
0.05396,1.762163347,0.05396,6.212315001,
0.05398,0.6658724648,0.05398,5.481454413,
0.054,-0.06498812352,0.054,5.116024118,
0.05402,-0.7958487119,0.05402,6.212315001,
0.05404,-1.5267093,0.05404,5.481454413,
0.05406,-1.5267093,0.05406,5.481454413,
0.05408,-1.161279006,0.05408,5.846884707,
0.0541,-2.988430477,0.0541,5.481454413,
0.05412,-3.719291065,0.05412,5.116024118,
0.05414,-3.719291065,0.05414,5.846884707,
0.05416,-5.546442536,0.05416,6.212315001,
0.05418,-5.546442536,0.05418,5.481454413,
0.0542,-4.084721359,0.0542,5.846884707,
0.05422,-5.546442536,0.05422,5.846884707,
0.05424,-5.546442536,0.05424,5.481454413,
0.05426,-4.815581948,0.05426,5.846884707,
0.05428,-5.546442536,0.05428,5.846884707,
0.0543,-4.815581948,0.0543,5.481454413,
0.05432,-2.623000183,0.05432,5.846884707,
0.05434,-4.815581948,0.05434,5.481454413,
0.05436,-4.084721359,0.05436,5.481454413,
0.05438,-3.719291065,0.05438,6.212315001,
0.0544,-3.719291065,0.0544,5.846884707,
0.05442,-2.623000183,0.05442,5.481454413,
0.05444,-0.7958487119,0.05444,5.846884707,
0.05446,-0.7958487119,0.05446,5.481454413,
0.05448,-0.4304184177,0.05448,5.481454413,
0.0545,0.3004421707,0.0545,6.212315001,
0.05452,0.3004421707,0.05452,5.481454413,
0.05454,2.85845423,0.05454,5.481454413,
0.05456,2.493023936,0.05456,5.846884707,
0.05458,2.85845423,0.05458,5.116024118,
0.0546,3.223884524,0.0546,5.116024118,
0.05462,4.685605701,0.05462,6.212315001,
0.05464,4.685605701,0.05464,5.481454413,
0.05466,5.051035995,0.05466,5.481454413,
0.05468,5.416466289,0.05468,6.212315001,
0.0547,5.416466289,0.0547,6.212315001,
0.05472,4.685605701,0.05472,5.481454413,
0.05474,5.416466289,0.05474,5.846884707,
0.05476,5.051035995,0.05476,5.846884707,
0.05478,3.954745112,0.05478,5.481454413,
0.0548,5.781896583,0.0548,5.481454413,
0.05482,3.589314818,0.05482,5.116024118,
0.05484,3.223884524,0.05484,5.846884707,
0.05486,2.493023936,0.05486,5.846884707,
0.05488,1.762163347,0.05488,5.481454413,
0.0549,1.762163347,0.0549,4.38516353,
0.05492,1.031302759,0.05492,5.846884707,
0.05494,-1.5267093,0.05494,5.116024118,
0.05496,-1.5267093,0.05496,5.481454413,
0.05498,-0.7958487119,0.05498,6.212315001,
0.055,-2.988430477,0.055,6.212315001,
0.05502,-2.257569889,0.05502,5.481454413,
0.05504,-2.623000183,0.05504,5.846884707,
0.05506,-4.084721359,0.05506,5.481454413,
0.05508,-4.815581948,0.05508,5.116024118,
0.0551,-4.450151654,0.0551,5.116024118,
0.05512,-5.91187283,0.05512,5.116024118,
0.05514,-5.546442536,0.05514,5.481454413,
0.05516,-5.546442536,0.05516,6.212315001,
0.05518,-5.546442536,0.05518,5.481454413,
0.0552,-5.546442536,0.0552,5.116024118,
0.05522,-5.91187283,0.05522,6.212315001,
0.05524,-5.546442536,0.05524,5.481454413,
0.05526,-3.719291065,0.05526,5.481454413,
0.05528,-4.450151654,0.05528,5.846884707,
0.0553,-5.181012242,0.0553,6.212315001,
0.05532,-3.719291065,0.05532,5.481454413,
0.05534,-1.892139594,0.05534,5.846884707,
0.05536,-1.892139594,0.05536,4.750593824,
0.05538,-0.7958487119,0.05538,5.481454413,
0.0554,-0.4304184177,0.0554,5.116024118,
0.05542,-1.5267093,0.05542,5.116024118,
0.05544,1.031302759,0.05544,5.481454413,
0.05546,1.396733053,0.05546,5.846884707,
0.05548,1.762163347,0.05548,5.846884707,
0.0555,3.954745112,0.0555,6.577745295,
0.05552,4.320175407,0.05552,5.846884707,
0.05554,4.320175407,0.05554,5.116024118,
0.05556,4.685605701,0.05556,5.116024118,
0.05558,5.051035995,0.05558,5.846884707,
0.0556,5.051035995,0.0556,4.750593824,
0.05562,4.320175407,0.05562,5.481454413,
0.05564,3.954745112,0.05564,6.212315001,
0.05566,4.685605701,0.05566,5.846884707,
0.05568,5.416466289,0.05568,5.481454413,
0.0557,4.685605701,0.0557,6.577745295,
0.05572,4.320175407,0.05572,5.481454413,
0.05574,5.051035995,0.05574,5.116024118,
0.05576,3.589314818,0.05576,6.212315001,
0.05578,2.127593642,0.05578,5.116024118,
0.0558,1.396733053,0.0558,4.750593824,
0.05582,2.493023936,0.05582,5.846884707,
0.05584,1.396733053,0.05584,5.846884707,
0.05586,1.031302759,0.05586,5.846884707,
0.05588,-0.4304184177,0.05588,6.212315001,
0.0559,-0.4304184177,0.0559,5.116024118,
0.05592,-2.988430477,0.05592,5.846884707,
0.05594,-1.5267093,0.05594,5.846884707,
0.05596,-2.257569889,0.05596,5.481454413,
0.05598,-2.623000183,0.05598,6.212315001,
0.056,-4.450151654,0.056,6.212315001,
0.05602,-3.353860771,0.05602,5.116024118,
0.05604,-4.450151654,0.05604,5.846884707,
0.05606,-5.181012242,0.05606,5.481454413,
0.05608,-4.815581948,0.05608,5.481454413,
0.0561,-5.181012242,0.0561,5.481454413,
0.05612,-5.91187283,0.05612,5.116024118,
0.05614,-5.91187283,0.05614,5.481454413,
0.05616,-5.181012242,0.05616,6.212315001,
0.05618,-5.91187283,0.05618,5.116024118,
0.0562,-5.546442536,0.0562,5.116024118,
0.05622,-2.623000183,0.05622,5.846884707,
0.05624,-4.450151654,0.05624,5.481454413,
0.05626,-4.084721359,0.05626,5.481454413,
0.05628,-1.892139594,0.05628,5.846884707,
0.0563,-1.161279006,0.0563,5.846884707,
0.05632,-0.7958487119,0.05632,5.846884707,
0.05634,1.031302759,0.05634,5.846884707,
0.05636,0.6658724648,0.05636,5.846884707,
0.05638,0.6658724648,0.05638,5.481454413,
0.0564,2.127593642,0.0564,6.577745295,
0.05642,2.85845423,0.05642,5.846884707,
0.05644,3.223884524,0.05644,5.481454413,
0.05646,4.320175407,0.05646,6.212315001,
0.05648,3.589314818,0.05648,5.846884707,
0.0565,4.685605701,0.0565,5.481454413,
0.05652,4.320175407,0.05652,5.846884707,
0.05654,5.416466289,0.05654,5.846884707,
0.05656,5.416466289,0.05656,5.481454413,
0.05658,4.685605701,0.05658,5.846884707,
0.0566,5.051035995,0.0566,5.846884707,
0.05662,6.878187466,0.05662,5.846884707,
0.05664,5.416466289,0.05664,5.846884707,
0.05666,3.954745112,0.05666,5.846884707,
0.05668,4.685605701,0.05668,5.481454413,
0.0567,3.223884524,0.0567,5.846884707,
0.05672,2.127593642,0.05672,5.481454413,
0.05674,2.127593642,0.05674,5.481454413,
0.05676,1.762163347,0.05676,5.846884707,
0.05678,0.3004421707,0.05678,5.481454413,
0.0568,0.3004421707,0.0568,5.116024118,
0.05682,-1.161279006,0.05682,5.481454413,
0.05684,-2.257569889,0.05684,5.481454413,
0.05686,-1.5267093,0.05686,5.481454413,
0.05688,-2.988430477,0.05688,6.212315001,
0.0569,-3.353860771,0.0569,5.481454413,
0.05692,-2.623000183,0.05692,5.481454413,
0.05694,-4.084721359,0.05694,5.846884707,
0.05696,-4.450151654,0.05696,5.846884707,
0.05698,-5.181012242,0.05698,6.212315001,
0.057,-4.084721359,0.057,6.212315001,
0.05702,-5.181012242,0.05702,5.481454413,
0.05704,-5.546442536,0.05704,5.481454413,
0.05706,-3.353860771,0.05706,5.116024118,
0.05708,-4.815581948,0.05708,5.481454413,
0.0571,-5.181012242,0.0571,5.481454413,
0.05712,-5.546442536,0.05712,5.481454413,
0.05714,-4.084721359,0.05714,5.481454413,
0.05716,-3.719291065,0.05716,5.846884707,
0.05718,-3.719291065,0.05718,5.846884707,
0.0572,-2.257569889,0.0572,5.846884707,
0.05722,-4.084721359,0.05722,5.481454413,
0.05724,-1.5267093,0.05724,5.846884707,
0.05726,-1.161279006,0.05726,5.846884707,
0.05728,-0.06498812352,0.05728,5.116024118,
0.0573,-0.06498812352,0.0573,5.481454413,
0.05732,1.396733053,0.05732,5.481454413,
0.05734,0.3004421707,0.05734,6.212315001,
0.05736,2.127593642,0.05736,5.481454413,
0.05738,2.85845423,0.05738,5.481454413,
0.0574,4.320175407,0.0574,5.846884707,
0.05742,3.589314818,0.05742,5.481454413,
0.05744,4.685605701,0.05744,5.481454413,
0.05746,4.685605701,0.05746,5.846884707,
0.05748,4.685605701,0.05748,5.481454413,
0.0575,4.685605701,0.0575,5.116024118,
0.05752,4.320175407,0.05752,6.212315001,
0.05754,5.416466289,0.05754,5.481454413,
0.05756,4.685605701,0.05756,5.481454413,
0.05758,5.051035995,0.05758,5.846884707,
0.0576,3.954745112,0.0576,5.116024118,
0.05762,2.85845423,0.05762,5.116024118,
0.05764,3.223884524,0.05764,5.846884707,
0.05766,3.223884524,0.05766,5.846884707,
0.05768,2.85845423,0.05768,5.116024118,
0.0577,2.493023936,0.0577,6.212315001,
0.05772,1.031302759,0.05772,5.116024118,
0.05774,-0.06498812352,0.05774,5.481454413,
0.05776,-0.4304184177,0.05776,5.846884707,
0.05778,-0.4304184177,0.05778,5.116024118,
0.0578,-2.988430477,0.0578,5.846884707,
0.05782,-1.5267093,0.05782,7.308605883,
0.05784,-3.353860771,0.05784,5.481454413,
0.05786,-3.353860771,0.05786,5.116024118,
0.05788,-4.450151654,0.05788,5.846884707,
0.0579,-5.181012242,0.0579,5.481454413,
0.05792,-4.815581948,0.05792,5.116024118,
0.05794,-4.815581948,0.05794,5.846884707,
0.05796,-5.91187283,0.05796,5.481454413,
0.05798,-5.546442536,0.05798,5.481454413,
0.058,-5.181012242,0.058,6.212315001,
0.05802,-5.91187283,0.05802,4.38516353,
0.05804,-4.815581948,0.05804,5.116024118,
0.05806,-4.815581948,0.05806,5.846884707,
0.05808,-3.719291065,0.05808,5.846884707,
0.0581,-4.450151654,0.0581,5.116024118,
0.05812,-3.353860771,0.05812,7.308605883,
0.05814,-3.353860771,0.05814,5.846884707,
0.05816,-1.892139594,0.05816,5.116024118,
0.05818,-1.892139594,0.05818,5.846884707,
0.0582,-0.06498812352,0.0582,5.846884707,
0.05822,-0.4304184177,0.05822,3.654302942,
0.05824,1.762163347,0.05824,5.846884707,
0.05826,1.031302759,0.05826,5.116024118,
0.05828,2.493023936,0.05828,5.481454413,
0.0583,2.493023936,0.0583,5.846884707,
0.05832,3.223884524,0.05832,6.577745295,
0.05834,4.320175407,0.05834,4.750593824,
0.05836,4.320175407,0.05836,6.212315001,
