"A0_accX_x","A0_accX_y","A1_rmsX_x","A1_rmsX_y"
0,2.144841951,0,4.38516353,
2e-05,2.87570254,2e-05,4.750593824,
4e-05,3.606563128,4e-05,4.750593824,
6e-05,3.606563128,6e-05,4.38516353,
8e-05,3.241132834,8e-05,4.750593824,
0.0001,3.606563128,0.0001,4.38516353,
0.00012,2.87570254,0.00012,4.019733236,
0.00014,3.606563128,0.00014,4.750593824,
0.00016,2.87570254,0.00016,4.750593824,
0.00018,3.241132834,0.00018,4.38516353,
0.0002,2.87570254,0.0002,4.019733236,
0.00022,0.6831207747,0.00022,4.38516353,
0.00024,3.606563128,0.00024,4.38516353,
0.00026,0.6831207747,0.00026,4.38516353,
0.00028,1.779411657,0.00028,4.38516353,
0.0003,1.048551069,0.0003,4.38516353,
0.00032,1.048551069,0.00032,4.750593824,
0.00034,-1.144030696,0.00034,4.750593824,
0.00036,-0.778600402,0.00036,4.38516353,
0.00038,-1.50946099,0.00038,4.38516353,
0.0004,-1.144030696,0.0004,4.38516353,
0.00042,-2.605751873,0.00042,4.38516353,
0.00044,-2.971182167,0.00044,4.38516353,
0.00046,-2.971182167,0.00046,4.38516353,
0.00048,-1.874891284,0.00048,4.019733236,
0.0005,-2.605751873,0.0005,4.750593824,
0.00052,-3.336612461,0.00052,4.38516353,
0.00054,-3.336612461,0.00054,4.38516353,
0.00056,-2.240321579,0.00056,4.38516353,
0.00058,-3.702042755,0.00058,4.750593824,
0.0006,-2.971182167,0.0006,4.38516353,
0.00062,-2.605751873,0.00062,4.38516353,
0.00064,-3.336612461,0.00064,4.750593824,
0.00066,-2.971182167,0.00066,4.019733236,
0.00068,-2.605751873,0.00068,4.750593824,
0.0007,-0.04773981363,0.0007,4.38516353,
0.00072,-0.778600402,0.00072,4.38516353,
0.00074,0.3176904805,0.00074,4.019733236,
0.00076,-1.144030696,0.00076,4.38516353,
0.00078,-0.778600402,0.00078,4.38516353,
0.0008,0.6831207747,0.0008,3.654302942,
0.00082,2.510272246,0.00082,5.116024118,
0.00084,3.606563128,0.00084,4.019733236,
0.00086,1.779411657,0.00086,4.38516353,
0.00088,2.87570254,0.00088,4.38516353,
0.0009,2.87570254,0.0009,4.38516353,
0.00092,2.144841951,0.00092,4.019733236,
0.00094,3.241132834,0.00094,4.750593824,
0.00096,3.606563128,0.00096,4.38516353,
0.00098,3.241132834,0.00098,4.38516353,
0.001,3.606563128,0.001,4.38516353,
0.00102,4.702854011,0.00102,4.019733236,
0.00104,3.606563128,0.00104,4.38516353,
0.00106,4.337423716,0.00106,4.750593824,
0.00108,3.606563128,0.00108,4.38516353,
0.0011,3.241132834,0.0011,4.019733236,
0.00112,2.510272246,0.00112,4.750593824,
0.00114,3.241132834,0.00114,4.019733236,
0.00116,2.510272246,0.00116,4.38516353,
0.00118,1.048551069,0.00118,4.019733236,
0.0012,-0.04773981363,0.0012,4.019733236,
0.00122,0.3176904805,0.00122,3.288872648,
0.00124,0.6831207747,0.00124,4.38516353,
0.00126,-1.144030696,0.00126,4.019733236,
0.00128,-0.4131701078,0.00128,4.38516353,
0.0013,-0.4131701078,0.0013,4.38516353,
0.00132,-1.874891284,0.00132,4.019733236,
0.00134,-1.50946099,0.00134,4.750593824,
0.00136,-2.605751873,0.00136,4.38516353,
0.00138,-2.240321579,0.00138,4.019733236,
0.0014,-1.50946099,0.0014,4.750593824,
0.00142,-2.240321579,0.00142,4.38516353,
0.00144,-3.336612461,0.00144,4.019733236,
0.00146,-2.971182167,0.00146,4.38516353,
0.00148,-3.702042755,0.00148,4.019733236,
0.0015,-2.971182167,0.0015,4.019733236,
0.00152,-4.06747305,0.00152,3.288872648,
0.00154,-3.702042755,0.00154,4.38516353,
0.00156,-4.798333638,0.00156,4.38516353,
0.00158,-3.702042755,0.00158,4.750593824,
0.0016,-2.605751873,0.0016,4.38516353,
0.00162,-2.971182167,0.00162,5.116024118,
0.00164,-1.874891284,0.00164,4.750593824,
0.00166,-0.778600402,0.00166,4.38516353,
0.00168,-2.240321579,0.00168,3.654302942,
0.0017,0.3176904805,0.0017,4.750593824,
0.00172,0.6831207747,0.00172,4.019733236,
0.00174,0.6831207747,0.00174,4.019733236,
0.00176,1.779411657,0.00176,4.38516353,
0.00178,0.6831207747,0.00178,4.38516353,
0.0018,1.779411657,0.0018,4.019733236,
0.00182,2.87570254,0.00182,5.481454413,
0.00184,1.779411657,0.00184,4.38516353,
0.00186,2.510272246,0.00186,4.019733236,
0.00188,2.87570254,0.00188,4.750593824,
0.0019,3.241132834,0.0019,4.019733236,
0.00192,5.433714599,0.00192,3.288872648,
0.00194,4.702854011,0.00194,4.750593824,
0.00196,2.87570254,0.00196,4.019733236,
0.00198,3.971993422,0.00198,4.38516353,
0.002,2.87570254,0.002,4.750593824,
0.00202,1.413981363,0.00202,5.116024118,
0.00204,2.87570254,0.00204,4.019733236,
0.00206,4.702854011,0.00206,5.116024118,
0.00208,2.144841951,0.00208,3.288872648,
0.0021,2.87570254,0.0021,4.38516353,
0.00212,1.048551069,0.00212,3.654302942,
0.00214,1.413981363,0.00214,4.38516353,
0.00216,0.6831207747,0.00216,4.019733236,
0.00218,0.6831207747,0.00218,4.38516353,
0.0022,-0.778600402,0.0022,4.019733236,
0.00222,3.606563128,0.00222,4.019733236,
0.00224,-0.778600402,0.00224,4.750593824,
0.00226,-1.50946099,0.00226,4.38516353,
0.00228,-1.874891284,0.00228,4.019733236,
0.0023,-2.605751873,0.0023,4.750593824,
0.00232,-3.336612461,0.00232,4.019733236,
0.00234,-2.971182167,0.00234,4.38516353,
0.00236,-4.06747305,0.00236,4.38516353,
0.00238,-4.432903344,0.00238,4.38516353,
0.0024,-4.06747305,0.0024,4.019733236,
0.00242,-3.336612461,0.00242,4.750593824,
0.00244,-4.06747305,0.00244,4.38516353,
0.00246,-4.06747305,0.00246,4.019733236,
0.00248,-3.336612461,0.00248,5.116024118,
0.0025,-3.702042755,0.0025,4.38516353,
0.00252,-3.336612461,0.00252,3.654302942,
0.00254,-3.336612461,0.00254,4.750593824,
0.00256,-3.336612461,0.00256,4.38516353,
0.00258,-1.874891284,0.00258,3.654302942,
0.0026,-1.144030696,0.0026,4.38516353,
0.00262,-1.50946099,0.00262,4.38516353,
0.00264,-0.778600402,0.00264,4.019733236,
0.00266,-0.778600402,0.00266,4.750593824,
0.00268,-0.4131701078,0.00268,4.38516353,
0.0027,1.413981363,0.0027,4.019733236,
0.00272,1.413981363,0.00272,4.750593824,
0.00274,1.779411657,0.00274,4.38516353,
0.00276,1.048551069,0.00276,4.019733236,
0.00278,2.510272246,0.00278,4.750593824,
0.0028,2.510272246,0.0028,4.38516353,
0.00282,2.510272246,0.00282,4.38516353,
0.00284,4.702854011,0.00284,4.38516353,
0.00286,3.606563128,0.00286,4.38516353,
0.00288,3.971993422,0.00288,4.38516353,
0.0029,5.799144893,0.0029,4.750593824,
0.00292,3.971993422,0.00292,4.019733236,
0.00294,3.606563128,0.00294,4.019733236,
0.00296,5.068284305,0.00296,4.750593824,
0.00298,2.510272246,0.00298,4.38516353,
0.003,2.510272246,0.003,4.019733236,
0.00302,2.144841951,0.00302,4.750593824,
0.00304,1.413981363,0.00304,4.750593824,
0.00306,1.413981363,0.00306,4.019733236,
0.00308,1.413981363,0.00308,4.750593824,
0.0031,1.048551069,0.0031,4.750593824,
0.00312,-0.04773981363,0.00312,4.019733236,
0.00314,-0.4131701078,0.00314,4.750593824,
0.00316,-2.605751873,0.00316,4.750593824,
0.00318,-0.778600402,0.00318,4.38516353,
0.0032,-1.144030696,0.0032,4.750593824,
0.00322,-1.874891284,0.00322,4.38516353,
0.00324,-4.432903344,0.00324,4.019733236,
0.00326,-2.605751873,0.00326,5.116024118,
0.00328,-3.336612461,0.00328,4.38516353,
0.0033,-2.971182167,0.0033,4.38516353,
0.00332,-2.971182167,0.00332,4.750593824,
0.00334,-3.336612461,0.00334,4.750593824,
0.00336,-2.605751873,0.00336,4.38516353,
0.00338,-4.798333638,0.00338,4.750593824,
0.0034,-3.702042755,0.0034,5.116024118,
0.00342,-3.702042755,0.00342,4.750593824,
0.00344,-2.605751873,0.00344,5.116024118,
0.00346,-3.702042755,0.00346,4.019733236,
0.00348,-2.605751873,0.00348,4.750593824,
0.0035,-2.240321579,0.0035,4.38516353,
0.00352,-3.336612461,0.00352,4.750593824,
0.00354,-0.4131701078,0.00354,5.116024118,
0.00356,-1.144030696,0.00356,4.38516353,
0.00358,-0.4131701078,0.00358,4.38516353,
0.0036,1.779411657,0.0036,4.38516353,
0.00362,0.6831207747,0.00362,4.750593824,
0.00364,0.6831207747,0.00364,4.38516353,
0.00366,3.606563128,0.00366,4.019733236,
0.00368,1.048551069,0.00368,4.750593824,
0.0037,2.510272246,0.0037,4.38516353,
0.00372,2.144841951,0.00372,4.019733236,
0.00374,2.510272246,0.00374,4.019733236,
0.00376,2.510272246,0.00376,4.38516353,
0.00378,4.337423716,0.00378,4.019733236,
0.0038,3.971993422,0.0038,4.750593824,
0.00382,3.241132834,0.00382,4.750593824,
0.00384,3.241132834,0.00384,4.019733236,
0.00386,3.606563128,0.00386,4.750593824,
0.00388,2.144841951,0.00388,4.38516353,
0.0039,3.241132834,0.0039,4.019733236,
0.00392,2.87570254,0.00392,4.38516353,
0.00394,2.144841951,0.00394,4.750593824,
0.00396,2.510272246,0.00396,4.38516353,
0.00398,2.144841951,0.00398,4.750593824,
0.004,1.048551069,0.004,4.38516353,
0.00402,0.6831207747,0.00402,4.38516353,
0.00404,-0.778600402,0.00404,3.654302942,
0.00406,-0.04773981363,0.00406,4.750593824,
0.00408,-1.144030696,0.00408,4.38516353,
0.0041,-0.778600402,0.0041,4.750593824,
0.00412,-1.50946099,0.00412,4.750593824,
0.00414,-2.240321579,0.00414,5.116024118,
0.00416,-2.240321579,0.00416,4.750593824,
0.00418,-2.605751873,0.00418,4.38516353,
0.0042,-3.336612461,0.0042,4.38516353,
0.00422,-4.432903344,0.00422,4.750593824,
0.00424,-2.971182167,0.00424,5.481454413,
0.00426,-3.336612461,0.00426,4.38516353,
0.00428,-4.06747305,0.00428,4.750593824,
0.0043,-3.336612461,0.0043,4.750593824,
0.00432,-4.432903344,0.00432,4.019733236,
0.00434,-3.702042755,0.00434,3.654302942,
0.00436,-2.971182167,0.00436,4.750593824,
0.00438,-3.336612461,0.00438,4.019733236,
0.0044,-2.605751873,0.0044,4.750593824,
0.00442,-2.240321579,0.00442,4.019733236,
0.00444,-1.144030696,0.00444,5.116024118,
0.00446,-2.240321579,0.00446,4.38516353,
0.00448,-2.605751873,0.00448,4.019733236,
0.0045,-2.971182167,0.0045,3.654302942,
0.00452,-0.778600402,0.00452,4.38516353,
0.00454,-0.4131701078,0.00454,4.38516353,
0.00456,2.144841951,0.00456,4.38516353,
0.00458,3.241132834,0.00458,4.750593824,
0.0046,1.413981363,0.0046,4.38516353,
0.00462,1.048551069,0.00462,4.38516353,
0.00464,2.144841951,0.00464,4.38516353,
0.00466,1.413981363,0.00466,4.750593824,
0.00468,4.337423716,0.00468,3.288872648,
0.0047,3.606563128,0.0047,4.750593824,
0.00472,0.6831207747,0.00472,4.38516353,
0.00474,4.337423716,0.00474,4.750593824,
0.00476,6.164575187,0.00476,4.38516353,
0.00478,2.510272246,0.00478,4.38516353,
0.0048,3.606563128,0.0048,3.288872648,
0.00482,3.241132834,0.00482,4.019733236,
0.00484,2.87570254,0.00484,3.654302942,
0.00486,2.510272246,0.00486,4.38516353,
0.00488,3.241132834,0.00488,4.38516353,
0.0049,1.413981363,0.0049,4.750593824,
0.00492,1.779411657,0.00492,4.38516353,
0.00494,2.144841951,0.00494,4.750593824,
0.00496,-0.4131701078,0.00496,4.38516353,
0.00498,0.3176904805,0.00498,4.750593824,
0.005,0.3176904805,0.005,4.019733236,
0.00502,0.3176904805,0.00502,4.38516353,
0.00504,-0.4131701078,0.00504,4.750593824,
0.00506,-1.144030696,0.00506,4.38516353,
0.00508,-1.144030696,0.00508,4.750593824,
0.0051,-2.605751873,0.0051,4.38516353,
0.00512,-1.874891284,0.00512,3.654302942,
0.00514,-2.605751873,0.00514,4.019733236,
0.00516,-4.798333638,0.00516,4.019733236,
0.00518,-4.06747305,0.00518,4.750593824,
0.0052,-2.240321579,0.0052,5.116024118,
0.00522,-3.336612461,0.00522,3.654302942,
0.00524,-3.336612461,0.00524,4.019733236,
0.00526,-1.50946099,0.00526,3.654302942,
0.00528,-3.702042755,0.00528,4.019733236,
0.0053,-2.605751873,0.0053,4.38516353,
0.00532,-2.240321579,0.00532,4.019733236,
0.00534,-0.778600402,0.00534,3.654302942,
0.00536,-2.240321579,0.00536,4.019733236,
0.00538,-1.874891284,0.00538,4.019733236,
0.0054,-1.874891284,0.0054,3.654302942,
0.00542,-0.4131701078,0.00542,4.750593824,
0.00544,0.3176904805,0.00544,4.019733236,
0.00546,-4.432903344,0.00546,3.654302942,
0.00548,1.048551069,0.00548,4.750593824,
0.0055,1.048551069,0.0055,4.019733236,
0.00552,1.779411657,0.00552,4.019733236,
0.00554,3.606563128,0.00554,4.38516353,
0.00556,1.779411657,0.00556,4.019733236,
0.00558,2.510272246,0.00558,4.019733236,
0.0056,3.971993422,0.0056,4.019733236,
0.00562,2.87570254,0.00562,4.019733236,
0.00564,2.87570254,0.00564,4.38516353,
0.00566,5.433714599,0.00566,4.019733236,
0.00568,6.164575187,0.00568,4.38516353,
0.0057,3.241132834,0.0057,4.019733236,
0.00572,4.337423716,0.00572,4.38516353,
0.00574,2.87570254,0.00574,4.38516353,
0.00576,2.144841951,0.00576,3.654302942,
0.00578,3.971993422,0.00578,4.019733236,
0.0058,4.337423716,0.0058,4.38516353,
0.00582,1.413981363,0.00582,3.654302942,
0.00584,2.144841951,0.00584,4.38516353,
0.00586,1.779411657,0.00586,4.38516353,
0.00588,1.048551069,0.00588,3.288872648,
0.0059,0.6831207747,0.0059,4.38516353,
0.00592,1.048551069,0.00592,4.750593824,
0.00594,-0.778600402,0.00594,4.019733236,
0.00596,-0.4131701078,0.00596,4.750593824,
0.00598,-0.778600402,0.00598,4.38516353,
0.006,-1.874891284,0.006,4.019733236,
0.00602,-1.50946099,0.00602,4.750593824,
0.00604,-3.702042755,0.00604,4.38516353,
0.00606,-2.605751873,0.00606,4.019733236,
0.00608,-3.702042755,0.00608,4.38516353,
0.0061,-4.798333638,0.0061,4.38516353,
0.00612,-2.971182167,0.00612,4.019733236,
0.00614,-3.702042755,0.00614,4.019733236,
0.00616,-3.702042755,0.00616,4.019733236,
0.00618,-3.702042755,0.00618,4.019733236,
0.0062,-3.702042755,0.0062,4.38516353,
0.00622,-1.874891284,0.00622,4.019733236,
0.00624,-4.06747305,0.00624,3.654302942,
0.00626,-4.432903344,0.00626,4.38516353,
0.00628,-2.971182167,0.00628,4.38516353,
0.0063,-3.702042755,0.0063,4.019733236,
0.00632,-2.971182167,0.00632,4.38516353,
0.00634,-0.778600402,0.00634,4.019733236,
0.00636,-1.50946099,0.00636,4.38516353,
0.00638,-1.144030696,0.00638,4.38516353,
0.0064,0.6831207747,0.0064,4.38516353,
0.00642,0.6831207747,0.00642,4.019733236,
0.00644,1.779411657,0.00644,4.750593824,
0.00646,1.779411657,0.00646,4.38516353,
0.00648,2.144841951,0.00648,4.019733236,
0.0065,2.87570254,0.0065,4.38516353,
0.00652,3.971993422,0.00652,4.38516353,
0.00654,2.144841951,0.00654,4.019733236,
0.00656,3.241132834,0.00656,4.38516353,
0.00658,3.606563128,0.00658,4.38516353,
0.0066,3.606563128,0.0066,4.019733236,
0.00662,4.337423716,0.00662,4.019733236,
0.00664,4.337423716,0.00664,4.38516353,
0.00666,1.413981363,0.00666,3.288872648,
0.00668,3.971993422,0.00668,4.019733236,
0.0067,3.241132834,0.0067,4.38516353,
0.00672,3.606563128,0.00672,4.019733236,
0.00674,2.510272246,0.00674,4.38516353,
0.00676,3.241132834,0.00676,5.846884707,
0.00678,1.413981363,0.00678,4.019733236,
0.0068,2.144841951,0.0068,4.019733236,
0.00682,1.413981363,0.00682,4.38516353,
0.00684,-0.778600402,0.00684,4.019733236,
0.00686,-0.4131701078,0.00686,3.654302942,
0.00688,-0.04773981363,0.00688,4.019733236,
0.0069,1.413981363,0.0069,4.38516353,
0.00692,-1.874891284,0.00692,4.750593824,
0.00694,-2.240321579,0.00694,4.38516353,
0.00696,-4.432903344,0.00696,4.019733236,
0.00698,-1.50946099,0.00698,5.116024118,
0.007,-3.336612461,0.007,4.019733236,
0.00702,-3.336612461,0.00702,4.750593824,
0.00704,-1.50946099,0.00704,4.38516353,
0.00706,-4.06747305,0.00706,4.750593824,
0.00708,-4.432903344,0.00708,4.750593824,
0.0071,-2.971182167,0.0071,4.750593824,
0.00712,-3.702042755,0.00712,4.38516353,
0.00714,-2.971182167,0.00714,4.38516353,
0.00716,-2.240321579,0.00716,4.38516353,
0.00718,-3.336612461,0.00718,4.38516353,
0.0072,-2.971182167,0.0072,4.019733236,
0.00722,-2.605751873,0.00722,5.116024118,
0.00724,-1.50946099,0.00724,4.019733236,
0.00726,-2.605751873,0.00726,5.846884707,
0.00728,-3.702042755,0.00728,4.750593824,
0.0073,-1.50946099,0.0073,4.38516353,
0.00732,-0.4131701078,0.00732,4.019733236,
0.00734,0.6831207747,0.00734,5.116024118,
0.00736,-1.144030696,0.00736,2.923442353,
0.00738,-0.04773981363,0.00738,4.019733236,
0.0074,1.048551069,0.0074,4.019733236,
0.00742,2.87570254,0.00742,4.38516353,
0.00744,1.779411657,0.00744,4.019733236,
0.00746,3.971993422,0.00746,6.212315001,
0.00748,3.241132834,0.00748,4.750593824,
0.0075,4.337423716,0.0075,4.019733236,
0.00752,3.971993422,0.00752,4.750593824,
0.00754,1.048551069,0.00754,4.019733236,
0.00756,3.606563128,0.00756,3.654302942,
0.00758,2.87570254,0.00758,4.38516353,
0.0076,3.241132834,0.0076,3.654302942,
0.00762,5.799144893,0.00762,4.019733236,
0.00764,2.144841951,0.00764,4.750593824,
0.00766,1.779411657,0.00766,4.019733236,
0.00768,3.241132834,0.00768,4.019733236,
0.0077,2.510272246,0.0077,5.481454413,
0.00772,1.048551069,0.00772,4.019733236,
0.00774,-0.04773981363,0.00774,4.019733236,
0.00776,0.3176904805,0.00776,5.481454413,
0.00778,-0.778600402,0.00778,4.38516353,
0.0078,-0.04773981363,0.0078,4.019733236,
0.00782,-1.144030696,0.00782,4.38516353,
0.00784,-2.605751873,0.00784,4.019733236,
0.00786,-2.240321579,0.00786,4.38516353,
0.00788,-2.971182167,0.00788,4.750593824,
0.0079,-3.336612461,0.0079,4.38516353,
0.00792,-4.06747305,0.00792,4.38516353,
0.00794,-1.874891284,0.00794,4.750593824,
0.00796,-1.50946099,0.00796,3.654302942,
0.00798,-3.702042755,0.00798,4.38516353,
0.008,-2.605751873,0.008,5.116024118,
0.00802,-4.06747305,0.00802,4.019733236,
0.00804,-3.336612461,0.00804,4.019733236,
0.00806,-3.702042755,0.00806,4.750593824,
0.00808,-3.336612461,0.00808,4.019733236,
0.0081,-2.605751873,0.0081,4.019733236,
0.00812,-3.702042755,0.00812,4.750593824,
0.00814,-2.605751873,0.00814,4.38516353,
0.00816,-2.240321579,0.00816,3.654302942,
0.00818,2.144841951,0.00818,4.750593824,
0.0082,-1.50946099,0.0082,4.38516353,
0.00822,-0.778600402,0.00822,4.38516353,
0.00824,-0.4131701078,0.00824,5.116024118,
0.00826,-1.144030696,0.00826,4.750593824,
0.00828,-0.4131701078,0.00828,4.019733236,
0.0083,1.048551069,0.0083,4.38516353,
0.00832,3.241132834,0.00832,4.38516353,
0.00834,1.779411657,0.00834,4.019733236,
0.00836,1.779411657,0.00836,4.750593824,
0.00838,2.144841951,0.00838,4.38516353,
0.0084,3.241132834,0.0084,4.019733236,
0.00842,3.606563128,0.00842,4.750593824,
0.00844,2.87570254,0.00844,4.38516353,
0.00846,3.606563128,0.00846,3.654302942,
0.00848,3.971993422,0.00848,5.116024118,
0.0085,2.510272246,0.0085,4.38516353,
0.00852,3.971993422,0.00852,4.019733236,
0.00854,2.510272246,0.00854,4.750593824,
0.00856,0.3176904805,0.00856,4.019733236,
0.00858,2.144841951,0.00858,4.019733236,
0.0086,3.606563128,0.0086,4.38516353,
0.00862,2.144841951,0.00862,4.019733236,
0.00864,1.413981363,0.00864,4.38516353,
0.00866,1.779411657,0.00866,4.750593824,
0.00868,2.87570254,0.00868,4.750593824,
0.0087,-0.4131701078,0.0087,4.019733236,
0.00872,-0.04773981363,0.00872,4.38516353,
0.00874,-0.4131701078,0.00874,4.019733236,
0.00876,-1.144030696,0.00876,4.019733236,
0.00878,-2.605751873,0.00878,4.750593824,
0.0088,-1.874891284,0.0088,4.38516353,
0.00882,-1.50946099,0.00882,4.38516353,
0.00884,-3.702042755,0.00884,4.38516353,
0.00886,-3.336612461,0.00886,4.019733236,
0.00888,-3.336612461,0.00888,4.750593824,
0.0089,-3.702042755,0.0089,4.38516353,
0.00892,-2.605751873,0.00892,4.38516353,
0.00894,-2.240321579,0.00894,5.116024118,
0.00896,-3.336612461,0.00896,4.750593824,
0.00898,-2.605751873,0.00898,4.019733236,
0.009,-1.874891284,0.009,5.116024118,
0.00902,-2.605751873,0.00902,4.38516353,
0.00904,-4.06747305,0.00904,3.654302942,
0.00906,-2.971182167,0.00906,4.38516353,
0.00908,-2.971182167,0.00908,4.38516353,
0.0091,-2.240321579,0.0091,3.654302942,
0.00912,-0.778600402,0.00912,4.750593824,
0.00914,-1.874891284,0.00914,4.38516353,
0.00916,-0.778600402,0.00916,4.019733236,
0.00918,-0.04773981363,0.00918,4.38516353,
0.0092,0.3176904805,0.0092,4.38516353,
0.00922,1.413981363,0.00922,4.750593824,
0.00924,2.144841951,0.00924,4.750593824,
0.00926,1.779411657,0.00926,5.116024118,
0.00928,2.87570254,0.00928,4.019733236,
0.0093,2.87570254,0.0093,4.750593824,
0.00932,2.510272246,0.00932,4.38516353,
0.00934,3.241132834,0.00934,4.38516353,
0.00936,4.337423716,0.00936,4.38516353,
0.00938,2.510272246,0.00938,4.38516353,
0.0094,2.87570254,0.0094,4.38516353,
0.00942,4.337423716,0.00942,4.750593824,
0.00944,4.337423716,0.00944,4.750593824,
0.00946,3.606563128,0.00946,4.019733236,
0.00948,2.87570254,0.00948,4.38516353,
0.0095,2.510272246,0.0095,4.38516353,
0.00952,2.87570254,0.00952,4.38516353,
0.00954,2.87570254,0.00954,4.38516353,
0.00956,2.87570254,0.00956,4.38516353,
0.00958,1.413981363,0.00958,5.116024118,
0.0096,1.048551069,0.0096,4.750593824,
0.00962,1.048551069,0.00962,4.38516353,
0.00964,1.048551069,0.00964,4.38516353,
0.00966,0.3176904805,0.00966,4.38516353,
0.00968,-1.874891284,0.00968,4.019733236,
0.0097,-0.4131701078,0.0097,4.38516353,
0.00972,-1.144030696,0.00972,4.38516353,
0.00974,-1.50946099,0.00974,4.38516353,
0.00976,-2.240321579,0.00976,4.019733236,
0.00978,-2.971182167,0.00978,4.019733236,
0.0098,-3.702042755,0.0098,4.38516353,
0.00982,-2.971182167,0.00982,4.019733236,
0.00984,-4.06747305,0.00984,4.38516353,
0.00986,-3.702042755,0.00986,4.38516353,
0.00988,-3.336612461,0.00988,4.750593824,
0.0099,-2.971182167,0.0099,4.38516353,
0.00992,-4.432903344,0.00992,4.38516353,
0.00994,-2.240321579,0.00994,4.38516353,
0.00996,-2.605751873,0.00996,4.38516353,
0.00998,-2.240321579,0.00998,3.654302942,
0.01,-2.240321579,0.01,4.019733236,
0.01002,-2.605751873,0.01002,4.38516353,
0.01004,-1.50946099,0.01004,4.019733236,
0.01006,-1.874891284,0.01006,4.750593824,
0.01008,-2.240321579,0.01008,4.750593824,
0.0101,-0.4131701078,0.0101,4.38516353,
0.01012,-0.04773981363,0.01012,4.38516353,
0.01014,-0.4131701078,0.01014,4.38516353,
0.01016,1.048551069,0.01016,4.38516353,
0.01018,1.048551069,0.01018,3.654302942,
0.0102,2.510272246,0.0102,4.019733236,
0.01022,2.144841951,0.01022,4.38516353,
0.01024,1.048551069,0.01024,4.38516353,
0.01026,2.87570254,0.01026,4.019733236,
0.01028,2.87570254,0.01028,2.923442353,
0.0103,2.144841951,0.0103,4.750593824,
0.01032,1.779411657,0.01032,4.38516353,
0.01034,3.606563128,0.01034,4.019733236,
0.01036,1.413981363,0.01036,4.750593824,
0.01038,3.241132834,0.01038,5.116024118,
0.0104,3.971993422,0.0104,4.38516353,
0.01042,3.606563128,0.01042,5.116024118,
0.01044,3.241132834,0.01044,4.019733236,
0.01046,2.87570254,0.01046,4.019733236,
0.01048,1.048551069,0.01048,4.750593824,
0.0105,2.510272246,0.0105,4.38516353,
0.01052,3.241132834,0.01052,4.019733236,
0.01054,1.048551069,0.01054,4.38516353,
0.01056,-0.4131701078,0.01056,4.38516353,
0.01058,-0.04773981363,0.01058,3.288872648,
0.0106,-2.240321579,0.0106,5.116024118,
0.01062,-1.874891284,0.01062,4.38516353,
0.01064,-1.50946099,0.01064,4.019733236,
0.01066,-1.50946099,0.01066,4.750593824,
0.01068,-1.874891284,0.01068,5.116024118,
0.0107,-1.50946099,0.0107,4.019733236,
0.01072,-2.605751873,0.01072,4.38516353,
0.01074,-2.605751873,0.01074,4.38516353,
0.01076,-2.240321579,0.01076,4.019733236,
0.01078,-3.336612461,0.01078,4.019733236,
0.0108,-4.432903344,0.0108,4.019733236,
0.01082,-4.06747305,0.01082,4.019733236,
0.01084,-2.971182167,0.01084,4.750593824,
0.01086,-3.702042755,0.01086,4.38516353,
0.01088,-0.4131701078,0.01088,4.38516353,
0.0109,-4.06747305,0.0109,4.750593824,
0.01092,-4.432903344,0.01092,4.019733236,
0.01094,-1.874891284,0.01094,4.38516353,
0.01096,-2.240321579,0.01096,4.750593824,
0.01098,-2.605751873,0.01098,4.38516353,
0.011,-1.144030696,0.011,4.019733236,
0.01102,2.510272246,0.01102,4.750593824,
0.01104,-0.04773981363,0.01104,4.38516353,
0.01106,-0.04773981363,0.01106,4.750593824,
0.01108,1.048551069,0.01108,4.38516353,
0.0111,0.3176904805,0.0111,4.38516353,
0.01112,1.413981363,0.01112,4.38516353,
0.01114,2.144841951,0.01114,5.116024118,
0.01116,2.510272246,0.01116,4.019733236,
0.01118,2.144841951,0.01118,4.750593824,
0.0112,4.337423716,0.0112,4.750593824,
0.01122,3.606563128,0.01122,4.38516353,
0.01124,3.606563128,0.01124,4.38516353,
0.01126,3.971993422,0.01126,4.750593824,
0.01128,3.606563128,0.01128,4.019733236,
0.0113,1.779411657,0.0113,4.019733236,
0.01132,3.241132834,0.01132,4.38516353,
0.01134,4.337423716,0.01134,4.019733236,
0.01136,2.87570254,0.01136,4.38516353,
0.01138,3.241132834,0.01138,5.116024118,
0.0114,1.413981363,0.0114,4.38516353,
0.01142,2.144841951,0.01142,4.019733236,
0.01144,2.510272246,0.01144,4.750593824,
0.01146,0.3176904805,0.01146,4.38516353,
0.01148,0.6831207747,0.01148,4.019733236,
0.0115,0.6831207747,0.0115,4.750593824,
0.01152,0.3176904805,0.01152,4.019733236,
0.01154,-1.144030696,0.01154,4.019733236,
0.01156,-0.778600402,0.01156,4.750593824,
0.01158,-1.50946099,0.01158,4.38516353,
0.0116,-3.336612461,0.0116,4.019733236,
0.01162,-2.240321579,0.01162,4.750593824,
0.01164,-4.798333638,0.01164,4.019733236,
0.01166,-2.605751873,0.01166,4.750593824,
0.01168,-3.702042755,0.01168,4.38516353,
0.0117,-5.89462452,0.0117,4.38516353,
0.01172,-2.605751873,0.01172,4.750593824,
0.01174,-3.702042755,0.01174,4.750593824,
0.01176,-3.336612461,0.01176,4.38516353,
0.01178,-2.971182167,0.01178,5.116024118,
0.0118,-2.605751873,0.0118,4.750593824,
0.01182,-3.336612461,0.01182,4.019733236,
0.01184,-3.702042755,0.01184,4.38516353,
0.01186,-2.971182167,0.01186,4.750593824,
0.01188,-2.605751873,0.01188,4.38516353,
0.0119,-4.798333638,0.0119,4.750593824,
0.01192,-2.240321579,0.01192,4.38516353,
0.01194,-0.778600402,0.01194,4.38516353,
0.01196,0.6831207747,0.01196,4.38516353,
0.01198,-0.4131701078,0.01198,4.38516353,
0.012,-0.04773981363,0.012,4.019733236,
0.01202,1.048551069,0.01202,4.38516353,
0.01204,1.413981363,0.01204,4.38516353,
0.01206,2.144841951,0.01206,4.38516353,
0.01208,4.337423716,0.01208,4.750593824,
0.0121,2.144841951,0.0121,4.750593824,
0.01212,3.241132834,0.01212,4.38516353,
0.01214,3.241132834,0.01214,4.38516353,
0.01216,2.87570254,0.01216,4.750593824,
0.01218,3.241132834,0.01218,4.019733236,
0.0122,2.510272246,0.0122,4.750593824,
0.01222,3.241132834,0.01222,4.38516353,
0.01224,3.971993422,0.01224,4.019733236,
0.01226,3.971993422,0.01226,4.38516353,
0.01228,1.048551069,0.01228,4.38516353,
0.0123,4.337423716,0.0123,3.654302942,
0.01232,2.87570254,0.01232,4.38516353,
0.01234,1.048551069,0.01234,4.750593824,
0.01236,2.144841951,0.01236,4.38516353,
0.01238,1.048551069,0.01238,4.38516353,
0.0124,1.048551069,0.0124,5.481454413,
0.01242,1.048551069,0.01242,4.019733236,
0.01244,0.6831207747,0.01244,4.38516353,
0.01246,-1.874891284,0.01246,4.750593824,
0.01248,-0.4131701078,0.01248,3.654302942,
0.0125,-1.874891284,0.0125,2.923442353,
0.01252,-1.144030696,0.01252,4.019733236,
0.01254,-1.50946099,0.01254,4.38516353,
0.01256,-2.240321579,0.01256,5.116024118,
0.01258,-2.971182167,0.01258,4.38516353,
0.0126,-3.702042755,0.0126,5.846884707,
0.01262,-2.971182167,0.01262,4.750593824,
0.01264,-3.702042755,0.01264,4.38516353,
0.01266,-2.971182167,0.01266,4.38516353,
0.01268,-3.336612461,0.01268,4.38516353,
0.0127,-2.971182167,0.0127,3.654302942,
0.01272,-4.432903344,0.01272,3.654302942,
0.01274,-2.971182167,0.01274,4.750593824,
0.01276,-3.702042755,0.01276,4.38516353,
0.01278,-2.605751873,0.01278,4.750593824,
0.0128,-1.50946099,0.0128,4.38516353,
0.01282,-2.240321579,0.01282,4.38516353,
0.01284,-1.144030696,0.01284,4.38516353,
0.01286,-1.144030696,0.01286,4.750593824,
0.01288,-0.778600402,0.01288,4.38516353,
0.0129,-0.04773981363,0.0129,4.019733236,
0.01292,-1.144030696,0.01292,4.750593824,
0.01294,1.413981363,0.01294,4.38516353,
0.01296,0.6831207747,0.01296,4.019733236,
0.01298,1.779411657,0.01298,4.750593824,
0.013,2.510272246,0.013,4.019733236,
0.01302,3.606563128,0.01302,4.019733236,
0.01304,2.87570254,0.01304,4.38516353,
0.01306,2.87570254,0.01306,4.38516353,
0.01308,3.241132834,0.01308,4.019733236,
0.0131,2.510272246,0.0131,5.481454413,
0.01312,2.87570254,0.01312,4.38516353,
0.01314,2.87570254,0.01314,4.019733236,
0.01316,3.971993422,0.01316,4.750593824,
0.01318,3.971993422,0.01318,4.38516353,
0.0132,4.702854011,0.0132,3.654302942,
0.01322,3.971993422,0.01322,4.38516353,
0.01324,2.510272246,0.01324,4.019733236,
0.01326,3.241132834,0.01326,4.38516353,
0.01328,1.413981363,0.01328,4.38516353,
0.0133,2.144841951,0.0133,5.116024118,
0.01332,1.048551069,0.01332,4.019733236,
0.01334,2.144841951,0.01334,4.750593824,
0.01336,0.3176904805,0.01336,4.750593824,
0.01338,-0.4131701078,0.01338,4.38516353,
0.0134,0.3176904805,0.0134,4.019733236,
0.01342,0.3176904805,0.01342,4.750593824,
0.01344,-0.4131701078,0.01344,4.38516353,
0.01346,-2.240321579,0.01346,4.38516353,
0.01348,-1.50946099,0.01348,4.38516353,
0.0135,-2.240321579,0.0135,4.38516353,
0.01352,-2.240321579,0.01352,4.750593824,
0.01354,-2.605751873,0.01354,4.750593824,
0.01356,-3.336612461,0.01356,4.750593824,
0.01358,-5.529194226,0.01358,4.019733236,
0.0136,-4.432903344,0.0136,4.019733236,
0.01362,-5.529194226,0.01362,4.38516353,
0.01364,-3.336612461,0.01364,2.558012059,
0.01366,-4.06747305,0.01366,4.019733236,
0.01368,-2.971182167,0.01368,4.38516353,
0.0137,-2.971182167,0.0137,4.019733236,
0.01372,-1.50946099,0.01372,4.019733236,
0.01374,-2.240321579,0.01374,4.38516353,
0.01376,-2.605751873,0.01376,4.019733236,
0.01378,-1.50946099,0.01378,4.019733236,
0.0138,-0.04773981363,0.0138,4.38516353,
0.01382,-2.240321579,0.01382,4.019733236,
0.01384,-0.04773981363,0.01384,3.654302942,
0.01386,0.6831207747,0.01386,4.019733236,
0.01388,-0.04773981363,0.01388,4.019733236,
0.0139,0.3176904805,0.0139,4.38516353,
0.01392,1.779411657,0.01392,4.019733236,
0.01394,1.779411657,0.01394,3.654302942,
0.01396,3.241132834,0.01396,4.019733236,
0.01398,2.510272246,0.01398,4.019733236,
0.014,3.241132834,0.014,3.654302942,
0.01402,3.241132834,0.01402,4.38516353,
0.01404,5.068284305,0.01404,4.019733236,
0.01406,1.413981363,0.01406,3.654302942,
0.01408,3.971993422,0.01408,4.38516353,
0.0141,3.241132834,0.0141,4.38516353,
0.01412,3.606563128,0.01412,4.019733236,
0.01414,3.606563128,0.01414,4.019733236,
0.01416,3.971993422,0.01416,4.750593824,
0.01418,3.241132834,0.01418,4.019733236,
0.0142,3.241132834,0.0142,4.019733236,
0.01422,2.144841951,0.01422,4.38516353,
0.01424,1.779411657,0.01424,3.654302942,
0.01426,1.413981363,0.01426,4.38516353,
0.01428,0.6831207747,0.01428,4.38516353,
0.0143,0.6831207747,0.0143,4.019733236,
0.01432,0.3176904805,0.01432,4.019733236,
0.01434,0.6831207747,0.01434,4.38516353,
0.01436,-0.778600402,0.01436,3.654302942,
0.01438,-1.144030696,0.01438,4.38516353,
0.0144,-0.778600402,0.0144,4.019733236,
0.01442,-4.798333638,0.01442,4.019733236,
0.01444,-1.874891284,0.01444,3.654302942,
0.01446,-3.336612461,0.01446,4.38516353,
0.01448,-4.06747305,0.01448,4.019733236,
0.0145,-1.874891284,0.0145,4.38516353,
0.01452,-3.702042755,0.01452,4.019733236,
0.01454,-3.702042755,0.01454,4.019733236,
0.01456,-3.702042755,0.01456,4.38516353,
0.01458,-1.874891284,0.01458,4.38516353,
0.0146,-3.336612461,0.0146,4.019733236,
0.01462,-3.336612461,0.01462,4.019733236,
0.01464,-2.605751873,0.01464,4.38516353,
0.01466,-2.605751873,0.01466,4.38516353,
0.01468,-0.4131701078,0.01468,4.019733236,
0.0147,-1.50946099,0.0147,4.019733236,
0.01472,-1.50946099,0.01472,4.019733236,
0.01474,-0.778600402,0.01474,4.019733236,
0.01476,1.048551069,0.01476,4.019733236,
0.01478,-0.04773981363,0.01478,3.654302942,
0.0148,1.413981363,0.0148,4.019733236,
0.01482,1.413981363,0.01482,4.38516353,
0.01484,1.413981363,0.01484,3.654302942,
0.01486,2.510272246,0.01486,4.38516353,
0.01488,2.510272246,0.01488,4.750593824,
0.0149,1.779411657,0.0149,4.019733236,
0.01492,5.799144893,0.01492,3.288872648,
0.01494,3.971993422,0.01494,4.019733236,
0.01496,3.241132834,0.01496,3.654302942,
0.01498,3.971993422,0.01498,4.38516353,
0.015,4.337423716,0.015,4.019733236,
0.01502,3.606563128,0.01502,5.116024118,
0.01504,3.241132834,0.01504,4.38516353,
0.01506,3.971993422,0.01506,4.38516353,
0.01508,3.971993422,0.01508,4.750593824,
0.0151,2.144841951,0.0151,4.750593824,
0.01512,3.241132834,0.01512,3.654302942,
0.01514,2.510272246,0.01514,4.750593824,
0.01516,3.606563128,0.01516,4.38516353,
0.01518,2.510272246,0.01518,4.38516353,
0.0152,1.413981363,0.0152,4.38516353,
0.01522,0.3176904805,0.01522,5.116024118,
0.01524,1.413981363,0.01524,4.750593824,
0.01526,0.3176904805,0.01526,4.38516353,
0.01528,0.6831207747,0.01528,4.38516353,
0.0153,-0.778600402,0.0153,4.019733236,
0.01532,-1.50946099,0.01532,4.38516353,
0.01534,-1.874891284,0.01534,4.38516353,
0.01536,-2.605751873,0.01536,4.38516353,
0.01538,-1.874891284,0.01538,4.750593824,
0.0154,-3.702042755,0.0154,4.38516353,
0.01542,-4.432903344,0.01542,4.38516353,
0.01544,-4.06747305,0.01544,4.750593824,
0.01546,-3.336612461,0.01546,4.38516353,
0.01548,-3.702042755,0.01548,4.38516353,
0.0155,-3.702042755,0.0155,4.019733236,
0.01552,-3.702042755,0.01552,3.288872648,
0.01554,-2.240321579,0.01554,4.750593824,
0.01556,-4.432903344,0.01556,4.38516353,
0.01558,-2.605751873,0.01558,4.019733236,
0.0156,-2.240321579,0.0156,4.750593824,
0.01562,-3.702042755,0.01562,4.019733236,
0.01564,-3.702042755,0.01564,4.019733236,
0.01566,-1.50946099,0.01566,5.116024118,
0.01568,-1.50946099,0.01568,4.019733236,
0.0157,-0.4131701078,0.0157,4.019733236,
0.01572,-0.04773981363,0.01572,5.116024118,
0.01574,-0.04773981363,0.01574,3.654302942,
0.01576,-0.04773981363,0.01576,4.38516353,
0.01578,1.413981363,0.01578,4.750593824,
0.0158,0.3176904805,0.0158,4.019733236,
0.01582,1.779411657,0.01582,4.38516353,
0.01584,3.971993422,0.01584,4.750593824,
0.01586,2.510272246,0.01586,4.019733236,
0.01588,2.87570254,0.01588,4.019733236,
0.0159,3.241132834,0.0159,4.750593824,
0.01592,3.971993422,0.01592,4.019733236,
0.01594,2.87570254,0.01594,4.019733236,
0.01596,3.971993422,0.01596,4.750593824,
0.01598,1.413981363,0.01598,4.38516353,
0.016,3.606563128,0.016,4.019733236,
0.01602,2.510272246,0.01602,4.750593824,
0.01604,4.337423716,0.01604,4.38516353,
0.01606,2.510272246,0.01606,4.019733236,
0.01608,2.144841951,0.01608,4.750593824,
0.0161,2.144841951,0.0161,4.019733236,
0.01612,-0.04773981363,0.01612,4.019733236,
0.01614,1.413981363,0.01614,5.116024118,
0.01616,-0.778600402,0.01616,4.38516353,
0.01618,-0.4131701078,0.01618,3.654302942,
0.0162,0.6831207747,0.0162,4.019733236,
0.01622,-2.240321579,0.01622,4.019733236,
0.01624,-2.605751873,0.01624,3.654302942,
0.01626,-2.240321579,0.01626,4.750593824,
0.01628,-2.971182167,0.01628,4.38516353,
0.0163,-2.240321579,0.0163,3.654302942,
0.01632,-4.432903344,0.01632,4.750593824,
0.01634,-4.432903344,0.01634,4.019733236,
0.01636,-2.240321579,0.01636,4.38516353,
0.01638,-4.798333638,0.01638,4.750593824,
0.0164,-4.06747305,0.0164,4.38516353,
0.01642,-4.432903344,0.01642,4.019733236,
0.01644,-1.50946099,0.01644,4.750593824,
0.01646,-4.432903344,0.01646,4.38516353,
0.01648,-4.06747305,0.01648,4.019733236,
0.0165,-3.336612461,0.0165,4.750593824,
0.01652,-3.702042755,0.01652,4.38516353,
0.01654,-1.50946099,0.01654,4.019733236,
0.01656,-1.874891284,0.01656,4.38516353,
0.01658,-1.50946099,0.01658,4.38516353,
0.0166,-2.971182167,0.0166,4.019733236,
0.01662,-0.778600402,0.01662,4.750593824,
0.01664,1.048551069,0.01664,4.38516353,
0.01666,-0.4131701078,0.01666,4.019733236,
0.01668,0.6831207747,0.01668,4.750593824,
0.0167,0.6831207747,0.0167,4.019733236,
0.01672,0.3176904805,0.01672,4.019733236,
0.01674,-0.04773981363,0.01674,5.116024118,
0.01676,-0.778600402,0.01676,4.38516353,
0.01678,2.144841951,0.01678,4.019733236,
0.0168,2.87570254,0.0168,4.750593824,
0.01682,3.606563128,0.01682,4.019733236,
0.01684,1.413981363,0.01684,4.019733236,
0.01686,3.606563128,0.01686,4.750593824,
0.01688,3.606563128,0.01688,4.38516353,
0.0169,5.068284305,0.0169,4.38516353,
0.01692,3.241132834,0.01692,4.38516353,
0.01694,2.144841951,0.01694,4.38516353,
0.01696,3.241132834,0.01696,4.019733236,
0.01698,2.87570254,0.01698,4.38516353,
0.017,1.413981363,0.017,3.654302942,
0.01702,0.6831207747,0.01702,4.019733236,
0.01704,0.6831207747,0.01704,4.750593824,
0.01706,1.048551069,0.01706,4.019733236,
0.01708,1.048551069,0.01708,4.019733236,
0.0171,0.3176904805,0.0171,4.750593824,
0.01712,1.048551069,0.01712,4.38516353,
0.01714,-0.4131701078,0.01714,3.654302942,
0.01716,-0.778600402,0.01716,4.750593824,
0.01718,-1.144030696,0.01718,4.019733236,
0.0172,-1.874891284,0.0172,4.019733236,
0.01722,-1.50946099,0.01722,4.750593824,
0.01724,-2.971182167,0.01724,4.750593824,
0.01726,-3.702042755,0.01726,4.019733236,
0.01728,-3.702042755,0.01728,4.750593824,
0.0173,-2.971182167,0.0173,4.019733236,
0.01732,-4.06747305,0.01732,4.38516353,
0.01734,-4.798333638,0.01734,4.750593824,
0.01736,-4.432903344,0.01736,4.38516353,
0.01738,-3.336612461,0.01738,4.38516353,
0.0174,-2.971182167,0.0174,4.38516353,
0.01742,-1.874891284,0.01742,4.750593824,
0.01744,-3.336612461,0.01744,4.750593824,
0.01746,-2.605751873,0.01746,4.38516353,
0.01748,-4.432903344,0.01748,3.288872648,
0.0175,-1.144030696,0.0175,4.38516353,
0.01752,-0.778600402,0.01752,4.38516353,
0.01754,-0.04773981363,0.01754,4.019733236,
0.01756,-1.144030696,0.01756,4.019733236,
0.01758,-0.04773981363,0.01758,4.750593824,
0.0176,-0.4131701078,0.0176,4.750593824,
0.01762,2.87570254,0.01762,4.019733236,
0.01764,0.6831207747,0.01764,5.116024118,
0.01766,1.048551069,0.01766,4.38516353,
0.01768,4.702854011,0.01768,4.019733236,
0.0177,2.87570254,0.0177,4.750593824,
0.01772,2.510272246,0.01772,4.38516353,
0.01774,2.144841951,0.01774,4.019733236,
0.01776,2.87570254,0.01776,4.750593824,
0.01778,2.510272246,0.01778,4.750593824,
0.0178,3.971993422,0.0178,4.019733236,
0.01782,4.337423716,0.01782,5.116024118,
0.01784,4.702854011,0.01784,4.38516353,
0.01786,3.241132834,0.01786,4.38516353,
0.01788,3.606563128,0.01788,5.116024118,
0.0179,1.779411657,0.0179,4.019733236,
0.01792,2.87570254,0.01792,4.019733236,
0.01794,2.510272246,0.01794,5.846884707,
0.01796,2.510272246,0.01796,4.38516353,
0.01798,2.144841951,0.01798,4.019733236,
0.018,0.6831207747,0.018,4.38516353,
0.01802,1.413981363,0.01802,4.750593824,
0.01804,0.6831207747,0.01804,3.654302942,
0.01806,0.3176904805,0.01806,4.750593824,
0.01808,-0.04773981363,0.01808,4.38516353,
0.0181,-0.4131701078,0.0181,4.38516353,
0.01812,-1.874891284,0.01812,4.019733236,
0.01814,-3.336612461,0.01814,3.654302942,
0.01816,-1.50946099,0.01816,4.019733236,
0.01818,-2.605751873,0.01818,4.38516353,
0.0182,-2.971182167,0.0182,4.750593824,
0.01822,-2.971182167,0.01822,4.38516353,
0.01824,-3.336612461,0.01824,5.481454413,
0.01826,-4.432903344,0.01826,4.38516353,
0.01828,-3.336612461,0.01828,4.019733236,
0.0183,-3.336612461,0.0183,4.750593824,
0.01832,-1.50946099,0.01832,5.116024118,
0.01834,-1.874891284,0.01834,2.558012059,
0.01836,-1.50946099,0.01836,4.750593824,
0.01838,-2.971182167,0.01838,4.38516353,
0.0184,-2.605751873,0.0184,4.38516353,
0.01842,-1.874891284,0.01842,4.750593824,
0.01844,-1.874891284,0.01844,4.750593824,
0.01846,-0.4131701078,0.01846,4.019733236,
0.01848,-1.874891284,0.01848,4.38516353,
0.0185,-1.50946099,0.0185,4.38516353,
0.01852,-0.778600402,0.01852,4.38516353,
0.01854,0.6831207747,0.01854,5.846884707,
0.01856,0.3176904805,0.01856,4.38516353,
0.01858,2.510272246,0.01858,4.38516353,
0.0186,1.779411657,0.0186,4.38516353,
0.01862,1.048551069,0.01862,4.750593824,
0.01864,2.510272246,0.01864,2.923442353,
0.01866,4.337423716,0.01866,5.116024118,
0.01868,2.87570254,0.01868,4.38516353,
0.0187,2.144841951,0.0187,4.019733236,
0.01872,2.510272246,0.01872,4.750593824,
0.01874,3.971993422,0.01874,5.846884707,
0.01876,3.971993422,0.01876,4.38516353,
0.01878,3.971993422,0.01878,4.750593824,
0.0188,1.779411657,0.0188,3.288872648,
0.01882,3.241132834,0.01882,4.38516353,
0.01884,5.433714599,0.01884,4.38516353,
0.01886,1.779411657,0.01886,4.750593824,
0.01888,2.510272246,0.01888,4.38516353,
0.0189,1.413981363,0.0189,4.38516353,
0.01892,1.048551069,0.01892,4.019733236,
0.01894,0.3176904805,0.01894,3.654302942,
0.01896,2.144841951,0.01896,4.750593824,
0.01898,-0.04773981363,0.01898,4.38516353,
0.019,-0.4131701078,0.019,4.38516353,
0.01902,-1.50946099,0.01902,4.38516353,
0.01904,-2.240321579,0.01904,5.481454413,
0.01906,-1.50946099,0.01906,4.750593824,
0.01908,-2.240321579,0.01908,4.750593824,
0.0191,-1.874891284,0.0191,4.38516353,
0.01912,-2.240321579,0.01912,4.019733236,
0.01914,-2.971182167,0.01914,4.750593824,
0.01916,-4.798333638,0.01916,4.750593824,
0.01918,-4.432903344,0.01918,4.38516353,
0.0192,-3.336612461,0.0192,4.750593824,
0.01922,-3.336612461,0.01922,4.750593824,
0.01924,-1.50946099,0.01924,3.654302942,
0.01926,-2.971182167,0.01926,5.116024118,
0.01928,-1.874891284,0.01928,3.654302942,
0.0193,-3.702042755,0.0193,4.019733236,
0.01932,-2.971182167,0.01932,4.019733236,
0.01934,-1.874891284,0.01934,4.750593824,
0.01936,-1.144030696,0.01936,4.019733236,
0.01938,-1.50946099,0.01938,3.288872648,
0.0194,-1.144030696,0.0194,4.019733236,
0.01942,-0.778600402,0.01942,4.38516353,
0.01944,-2.240321579,0.01944,4.019733236,
0.01946,-0.04773981363,0.01946,3.654302942,
0.01948,0.6831207747,0.01948,4.38516353,
0.0195,0.6831207747,0.0195,4.019733236,
0.01952,1.779411657,0.01952,4.019733236,
0.01954,1.779411657,0.01954,4.019733236,
0.01956,2.510272246,0.01956,4.019733236,
0.01958,1.779411657,0.01958,4.019733236,
0.0196,3.241132834,0.0196,4.38516353,
0.01962,3.241132834,0.01962,3.654302942,
0.01964,3.971993422,0.01964,4.750593824,
0.01966,1.779411657,0.01966,3.654302942,
0.01968,3.606563128,0.01968,4.019733236,
0.0197,4.702854011,0.0197,4.38516353,
0.01972,5.068284305,0.01972,4.019733236,
0.01974,2.87570254,0.01974,3.654302942,
0.01976,2.87570254,0.01976,4.38516353,
0.01978,3.241132834,0.01978,4.019733236,
0.0198,1.413981363,0.0198,3.654302942,
0.01982,3.241132834,0.01982,4.750593824,
0.01984,2.144841951,0.01984,4.38516353,
0.01986,1.413981363,0.01986,4.019733236,
0.01988,1.413981363,0.01988,4.38516353,
0.0199,1.048551069,0.0199,4.750593824,
0.01992,0.3176904805,0.01992,4.019733236,
0.01994,0.3176904805,0.01994,4.38516353,
0.01996,-0.778600402,0.01996,4.38516353,
0.01998,-1.874891284,0.01998,4.019733236,
0.02,-1.50946099,0.02,4.38516353,
0.02002,-1.144030696,0.02002,4.38516353,
0.02004,-1.144030696,0.02004,4.38516353,
0.02006,-3.702042755,0.02006,4.38516353,
0.02008,-2.605751873,0.02008,4.750593824,
0.0201,-3.702042755,0.0201,3.654302942,
0.02012,-3.336612461,0.02012,4.750593824,
0.02014,-3.702042755,0.02014,4.38516353,
0.02016,-5.89462452,0.02016,4.38516353,
0.02018,-3.336612461,0.02018,4.750593824,
0.0202,-2.605751873,0.0202,4.019733236,
0.02022,-3.336612461,0.02022,4.019733236,
0.02024,-2.605751873,0.02024,4.38516353,
0.02026,-2.971182167,0.02026,3.288872648,
0.02028,-3.336612461,0.02028,3.654302942,
0.0203,-1.874891284,0.0203,3.288872648,
0.02032,-2.971182167,0.02032,4.019733236,
0.02034,-1.874891284,0.02034,4.019733236,
0.02036,1.048551069,0.02036,4.38516353,
0.02038,-0.4131701078,0.02038,4.38516353,
0.0204,-0.4131701078,0.0204,4.38516353,
0.02042,0.6831207747,0.02042,4.019733236,
0.02044,0.6831207747,0.02044,4.750593824,
0.02046,2.510272246,0.02046,4.38516353,
0.02048,2.87570254,0.02048,3.654302942,
0.0205,2.510272246,0.0205,4.019733236,
0.02052,2.510272246,0.02052,4.38516353,
0.02054,4.337423716,0.02054,4.019733236,
0.02056,3.606563128,0.02056,4.38516353,
0.02058,3.241132834,0.02058,4.38516353,
0.0206,3.971993422,0.0206,4.38516353,
0.02062,3.971993422,0.02062,4.750593824,
0.02064,5.068284305,0.02064,4.38516353,
0.02066,4.702854011,0.02066,4.019733236,
0.02068,3.971993422,0.02068,5.116024118,
0.0207,3.241132834,0.0207,4.750593824,
0.02072,2.87570254,0.02072,4.38516353,
0.02074,2.87570254,0.02074,4.750593824,
0.02076,2.510272246,0.02076,4.750593824,
0.02078,1.413981363,0.02078,4.38516353,
0.0208,1.048551069,0.0208,4.750593824,
0.02082,0.3176904805,0.02082,4.38516353,
0.02084,0.6831207747,0.02084,4.38516353,
0.02086,-0.4131701078,0.02086,4.019733236,
0.02088,-0.778600402,0.02088,4.38516353,
0.0209,-0.04773981363,0.0209,4.38516353,
0.02092,-0.778600402,0.02092,4.750593824,
0.02094,-1.144030696,0.02094,4.38516353,
0.02096,-2.971182167,0.02096,5.116024118,
0.02098,-2.971182167,0.02098,4.38516353,
0.021,-2.971182167,0.021,4.38516353,
0.02102,-2.971182167,0.02102,4.019733236,
0.02104,-4.06747305,0.02104,4.750593824,
0.02106,-4.432903344,0.02106,5.481454413,
0.02108,-1.50946099,0.02108,4.38516353,
0.0211,-3.336612461,0.0211,4.750593824,
0.02112,-4.06747305,0.02112,4.750593824,
0.02114,-3.336612461,0.02114,4.019733236,
0.02116,-2.605751873,0.02116,4.019733236,
0.02118,-1.874891284,0.02118,4.750593824,
0.0212,-3.702042755,0.0212,4.019733236,
0.02122,-2.971182167,0.02122,4.38516353,
0.02124,-2.605751873,0.02124,4.38516353,
0.02126,-2.605751873,0.02126,3.654302942,
0.02128,-1.144030696,0.02128,4.750593824,
0.0213,-0.778600402,0.0213,4.38516353,
0.02132,2.510272246,0.02132,4.019733236,
0.02134,0.6831207747,0.02134,4.38516353,
0.02136,0.6831207747,0.02136,6.212315001,
0.02138,2.144841951,0.02138,4.38516353,
0.0214,1.048551069,0.0214,4.750593824,
0.02142,1.779411657,0.02142,4.750593824,
0.02144,2.144841951,0.02144,4.019733236,
0.02146,3.971993422,0.02146,4.019733236,
0.02148,2.87570254,0.02148,4.38516353,
0.0215,0.6831207747,0.0215,3.288872648,
0.02152,2.87570254,0.02152,5.116024118,
0.02154,2.87570254,0.02154,4.750593824,
0.02156,3.606563128,0.02156,5.116024118,
0.02158,3.971993422,0.02158,4.750593824,
0.0216,1.413981363,0.0216,4.38516353,
0.02162,3.971993422,0.02162,4.019733236,
0.02164,2.144841951,0.02164,4.750593824,
0.02166,2.87570254,0.02166,4.750593824,
0.02168,2.510272246,0.02168,4.019733236,
0.0217,2.144841951,0.0217,4.750593824,
0.02172,1.048551069,0.02172,4.38516353,
0.02174,0.6831207747,0.02174,4.019733236,
0.02176,-0.04773981363,0.02176,3.654302942,
0.02178,-4.06747305,0.02178,4.019733236,
0.0218,0.3176904805,0.0218,4.38516353,
0.02182,-2.605751873,0.02182,4.750593824,
0.02184,1.779411657,0.02184,4.38516353,
0.02186,-2.605751873,0.02186,5.116024118,
0.02188,0.3176904805,0.02188,4.750593824,
0.0219,-3.336612461,0.0219,4.38516353,
0.02192,-2.240321579,0.02192,4.38516353,
0.02194,-2.971182167,0.02194,4.38516353,
0.02196,-3.702042755,0.02196,3.654302942,
0.02198,-4.06747305,0.02198,4.019733236,
0.022,-3.336612461,0.022,4.750593824,
0.02202,-4.06747305,0.02202,4.019733236,
0.02204,-3.702042755,0.02204,4.38516353,
0.02206,-3.702042755,0.02206,5.116024118,
0.02208,-2.971182167,0.02208,4.38516353,
0.0221,-3.702042755,0.0221,4.019733236,
0.02212,-4.06747305,0.02212,4.750593824,
0.02214,-2.971182167,0.02214,4.38516353,
0.02216,-2.240321579,0.02216,4.38516353,
0.02218,-0.4131701078,0.02218,5.116024118,
0.0222,-1.874891284,0.0222,4.38516353,
0.02222,-0.4131701078,0.02222,4.019733236,
0.02224,-0.4131701078,0.02224,5.116024118,
0.02226,-0.04773981363,0.02226,4.019733236,
0.02228,-2.605751873,0.02228,4.019733236,
0.0223,1.048551069,0.0223,4.750593824,
0.02232,1.413981363,0.02232,4.38516353,
0.02234,1.048551069,0.02234,4.019733236,
0.02236,2.510272246,0.02236,5.116024118,
0.02238,3.606563128,0.02238,4.019733236,
0.0224,3.606563128,0.0224,4.019733236,
0.02242,3.241132834,0.02242,4.750593824,
0.02244,2.87570254,0.02244,4.019733236,
0.02246,3.971993422,0.02246,4.019733236,
0.02248,3.606563128,0.02248,4.750593824,
0.0225,6.895435776,0.0225,4.38516353,
0.02252,2.87570254,0.02252,4.019733236,
0.02254,3.606563128,0.02254,4.750593824,
0.02256,3.241132834,0.02256,4.750593824,
0.02258,2.144841951,0.02258,4.38516353,
0.0226,1.048551069,0.0226,4.750593824,
0.02262,2.144841951,0.02262,3.654302942,
0.02264,1.779411657,0.02264,4.019733236,
0.02266,1.048551069,0.02266,4.38516353,
0.02268,1.779411657,0.02268,4.38516353,
0.0227,-0.04773981363,0.0227,3.654302942,
0.02272,0.6831207747,0.02272,5.116024118,
0.02274,-0.04773981363,0.02274,4.38516353,
0.02276,-1.50946099,0.02276,4.019733236,
0.02278,-0.04773981363,0.02278,5.116024118,
0.0228,-2.605751873,0.0228,3.654302942,
0.02282,-2.605751873,0.02282,4.019733236,
0.02284,-2.240321579,0.02284,4.750593824,
0.02286,-2.605751873,0.02286,4.019733236,
0.02288,-4.06747305,0.02288,4.019733236,
0.0229,-3.702042755,0.0229,4.750593824,
0.02292,-3.336612461,0.02292,4.38516353,
0.02294,-3.702042755,0.02294,4.019733236,
0.02296,-3.336612461,0.02296,4.38516353,
0.02298,-4.06747305,0.02298,4.38516353,
0.023,-4.06747305,0.023,4.019733236,
0.02302,-3.702042755,0.02302,4.750593824,
0.02304,-2.971182167,0.02304,4.38516353,
0.02306,-1.874891284,0.02306,4.019733236,
0.02308,-2.240321579,0.02308,4.750593824,
0.0231,-0.4131701078,0.0231,4.38516353,
0.02312,-2.605751873,0.02312,4.38516353,
0.02314,-1.144030696,0.02314,4.750593824,
0.02316,-0.4131701078,0.02316,4.38516353,
0.02318,0.6831207747,0.02318,4.38516353,
0.0232,1.048551069,0.0232,4.38516353,
0.02322,-0.4131701078,0.02322,4.38516353,
0.02324,1.413981363,0.02324,4.38516353,
0.02326,-0.778600402,0.02326,4.38516353,
0.02328,2.87570254,0.02328,4.750593824,
0.0233,2.87570254,0.0233,4.38516353,
0.02332,2.87570254,0.02332,4.019733236,
0.02334,2.87570254,0.02334,4.38516353,
0.02336,3.241132834,0.02336,4.38516353,
0.02338,3.606563128,0.02338,4.38516353,
0.0234,3.971993422,0.0234,4.38516353,
0.02342,6.530005481,0.02342,4.019733236,
0.02344,3.971993422,0.02344,4.38516353,
0.02346,3.606563128,0.02346,4.38516353,
0.02348,3.606563128,0.02348,4.38516353,
0.0235,4.337423716,0.0235,4.019733236,
0.02352,3.241132834,0.02352,4.38516353,
0.02354,2.87570254,0.02354,4.019733236,
0.02356,2.510272246,0.02356,4.750593824,
0.02358,2.510272246,0.02358,4.019733236,
0.0236,1.779411657,0.0236,4.019733236,
0.02362,0.3176904805,0.02362,4.750593824,
0.02364,-1.874891284,0.02364,4.38516353,
0.02366,0.3176904805,0.02366,4.38516353,
0.02368,-0.4131701078,0.02368,5.116024118,
0.0237,-0.4131701078,0.0237,4.38516353,
0.02372,-0.4131701078,0.02372,4.38516353,
0.02374,-2.240321579,0.02374,5.116024118,
0.02376,-2.605751873,0.02376,4.38516353,
0.02378,-3.336612461,0.02378,4.750593824,
0.0238,-2.605751873,0.0238,4.750593824,
0.02382,-2.240321579,0.02382,4.38516353,
0.02384,-3.336612461,0.02384,4.38516353,
0.02386,-3.702042755,0.02386,5.116024118,
0.02388,-4.798333638,0.02388,5.116024118,
0.0239,-3.336612461,0.0239,4.38516353,
0.02392,-3.336612461,0.02392,4.750593824,
0.02394,-2.605751873,0.02394,4.750593824,
0.02396,-2.240321579,0.02396,4.750593824,
0.02398,-1.50946099,0.02398,3.654302942,
0.024,-3.336612461,0.024,4.750593824,
0.02402,-3.336612461,0.02402,4.38516353,
0.02404,-0.4131701078,0.02404,4.750593824,
0.02406,-1.144030696,0.02406,4.019733236,
0.02408,-0.778600402,0.02408,5.481454413,
0.0241,-0.04773981363,0.0241,4.750593824,
0.02412,0.3176904805,0.02412,4.750593824,
0.02414,2.144841951,0.02414,4.750593824,
0.02416,-0.04773981363,0.02416,4.38516353,
0.02418,1.048551069,0.02418,3.288872648,
0.0242,3.241132834,0.0242,4.019733236,
0.02422,2.87570254,0.02422,4.750593824,
0.02424,1.779411657,0.02424,4.38516353,
0.02426,3.241132834,0.02426,4.019733236,
0.02428,5.068284305,0.02428,5.116024118,
0.0243,3.241132834,0.0243,3.654302942,
0.02432,3.241132834,0.02432,4.38516353,
0.02434,4.337423716,0.02434,4.38516353,
0.02436,3.606563128,0.02436,4.38516353,
0.02438,3.971993422,0.02438,3.654302942,
0.0244,5.068284305,0.0244,5.116024118,
0.02442,3.241132834,0.02442,4.38516353,
0.02444,3.241132834,0.02444,4.38516353,
0.02446,3.241132834,0.02446,4.750593824,
0.02448,2.510272246,0.02448,3.654302942,
0.0245,2.87570254,0.0245,4.38516353,
0.02452,1.413981363,0.02452,4.750593824,
0.02454,-0.04773981363,0.02454,4.750593824,
0.02456,1.048551069,0.02456,4.019733236,
0.02458,-0.04773981363,0.02458,5.116024118,
0.0246,-1.50946099,0.0246,4.38516353,
0.02462,-0.04773981363,0.02462,4.38516353,
0.02464,-1.144030696,0.02464,4.750593824,
0.02466,-1.50946099,0.02466,4.38516353,
0.02468,-2.240321579,0.02468,3.288872648,
0.0247,-2.605751873,0.0247,4.750593824,
0.02472,-2.605751873,0.02472,4.750593824,
0.02474,-2.971182167,0.02474,4.38516353,
0.02476,-3.336612461,0.02476,4.750593824,
0.02478,-1.50946099,0.02478,4.750593824,
0.0248,-2.605751873,0.0248,4.019733236,
0.02482,-4.06747305,0.02482,4.750593824,
0.02484,-4.798333638,0.02484,4.750593824,
0.02486,-2.971182167,0.02486,3.654302942,
0.02488,-2.605751873,0.02488,5.481454413,
0.0249,-5.163763932,0.0249,4.38516353,
0.02492,-4.432903344,0.02492,4.38516353,
0.02494,0.6831207747,0.02494,4.750593824,
0.02496,-2.971182167,0.02496,4.38516353,
0.02498,-1.144030696,0.02498,3.288872648,
0.025,-1.50946099,0.025,3.654302942,
0.02502,-0.04773981363,0.02502,4.38516353,
0.02504,-0.04773981363,0.02504,4.019733236,
0.02506,0.6831207747,0.02506,3.654302942,
0.02508,0.3176904805,0.02508,4.750593824,
0.0251,-0.778600402,0.0251,4.38516353,
0.02512,1.779411657,0.02512,3.654302942,
0.02514,2.87570254,0.02514,4.38516353,
0.02516,2.510272246,0.02516,3.288872648,
0.02518,3.241132834,0.02518,4.38516353,
0.0252,2.144841951,0.0252,4.019733236,
0.02522,4.337423716,0.02522,4.38516353,
0.02524,1.779411657,0.02524,4.019733236,
0.02526,3.606563128,0.02526,4.019733236,
0.02528,2.87570254,0.02528,3.654302942,
0.0253,5.433714599,0.0253,4.019733236,
0.02532,2.87570254,0.02532,4.019733236,
0.02534,3.241132834,0.02534,4.750593824,
0.02536,4.337423716,0.02536,4.019733236,
0.02538,2.87570254,0.02538,4.019733236,
0.0254,3.241132834,0.0254,4.750593824,
0.02542,3.241132834,0.02542,4.38516353,
0.02544,2.144841951,0.02544,4.38516353,
0.02546,1.048551069,0.02546,4.38516353,
0.02548,0.3176904805,0.02548,4.750593824,
0.0255,1.413981363,0.0255,4.019733236,
0.02552,0.6831207747,0.02552,4.38516353,
0.02554,-0.778600402,0.02554,4.019733236,
0.02556,-0.4131701078,0.02556,4.019733236,
0.02558,-1.874891284,0.02558,4.38516353,
0.0256,-2.240321579,0.0256,4.38516353,
0.02562,-2.240321579,0.02562,4.38516353,
0.02564,-2.971182167,0.02564,4.019733236,
0.02566,-2.605751873,0.02566,4.019733236,
0.02568,-2.605751873,0.02568,4.38516353,
0.0257,-3.702042755,0.0257,4.38516353,
0.02572,-2.605751873,0.02572,4.38516353,
0.02574,-3.702042755,0.02574,4.750593824,
0.02576,-2.971182167,0.02576,4.38516353,
0.02578,-4.798333638,0.02578,4.38516353,
0.0258,-2.605751873,0.0258,4.019733236,
0.02582,-3.702042755,0.02582,4.019733236,
0.02584,-2.605751873,0.02584,4.38516353,
0.02586,-4.432903344,0.02586,4.38516353,
0.02588,-2.240321579,0.02588,4.750593824,
0.0259,-1.144030696,0.0259,4.019733236,
0.02592,-1.144030696,0.02592,4.38516353,
0.02594,-2.240321579,0.02594,4.38516353,
0.02596,-0.778600402,0.02596,4.38516353,
0.02598,-1.874891284,0.02598,3.654302942,
0.026,0.3176904805,0.026,4.38516353,
0.02602,0.3176904805,0.02602,4.750593824,
0.02604,0.3176904805,0.02604,4.750593824,
0.02606,2.510272246,0.02606,4.019733236,
0.02608,2.144841951,0.02608,4.750593824,
0.0261,1.779411657,0.0261,4.750593824,
0.02612,2.87570254,0.02612,4.38516353,
0.02614,5.433714599,0.02614,5.116024118,
0.02616,1.779411657,0.02616,4.38516353,
0.02618,4.337423716,0.02618,4.38516353,
0.0262,3.241132834,0.0262,4.38516353,
0.02622,3.241132834,0.02622,4.38516353,
0.02624,4.337423716,0.02624,4.38516353,
0.02626,2.87570254,0.02626,4.38516353,
0.02628,2.87570254,0.02628,4.38516353,
0.0263,3.241132834,0.0263,4.019733236,
0.02632,3.241132834,0.02632,4.38516353,
0.02634,2.144841951,0.02634,4.750593824,
0.02636,1.413981363,0.02636,4.019733236,
0.02638,1.779411657,0.02638,5.116024118,
0.0264,0.6831207747,0.0264,4.750593824,
0.02642,0.6831207747,0.02642,4.750593824,
0.02644,-1.144030696,0.02644,4.019733236,
0.02646,1.048551069,0.02646,4.38516353,
0.02648,-0.4131701078,0.02648,4.019733236,
0.0265,-0.4131701078,0.0265,4.38516353,
0.02652,-2.240321579,0.02652,4.750593824,
0.02654,-1.144030696,0.02654,4.019733236,
0.02656,-1.874891284,0.02656,4.750593824,
0.02658,-2.605751873,0.02658,4.38516353,
0.0266,-2.971182167,0.0266,4.019733236,
0.02662,-2.971182167,0.02662,4.38516353,
0.02664,-2.971182167,0.02664,4.750593824,
0.02666,-2.971182167,0.02666,4.019733236,
0.02668,-3.336612461,0.02668,4.750593824,
0.0267,-4.06747305,0.0267,4.38516353,
0.02672,-3.702042755,0.02672,4.38516353,
0.02674,-2.971182167,0.02674,4.750593824,
0.02676,-5.529194226,0.02676,4.38516353,
0.02678,-6.260054815,0.02678,4.38516353,
0.0268,-3.336612461,0.0268,4.38516353,
0.02682,-2.971182167,0.02682,4.38516353,
0.02684,-2.240321579,0.02684,4.38516353,
0.02686,-1.144030696,0.02686,4.38516353,
0.02688,-1.144030696,0.02688,4.38516353,
0.0269,-0.04773981363,0.0269,4.019733236,
0.02692,0.6831207747,0.02692,4.38516353,
0.02694,0.3176904805,0.02694,4.38516353,
0.02696,1.048551069,0.02696,4.38516353,
0.02698,1.048551069,0.02698,4.019733236,
0.027,2.510272246,0.027,4.38516353,
0.02702,2.144841951,0.02702,4.38516353,
0.02704,2.510272246,0.02704,4.750593824,
0.02706,2.87570254,0.02706,4.38516353,
0.02708,3.241132834,0.02708,4.019733236,
0.0271,3.241132834,0.0271,4.38516353,
0.02712,3.606563128,0.02712,4.38516353,
0.02714,3.971993422,0.02714,4.750593824,
0.02716,3.971993422,0.02716,4.38516353,
0.02718,3.606563128,0.02718,4.38516353,
0.0272,4.337423716,0.0272,4.38516353,
0.02722,5.068284305,0.02722,4.750593824,
0.02724,2.144841951,0.02724,4.750593824,
0.02726,2.87570254,0.02726,4.019733236,
0.02728,1.779411657,0.02728,4.38516353,
0.0273,1.048551069,0.0273,4.750593824,
0.02732,1.779411657,0.02732,4.38516353,
0.02734,0.6831207747,0.02734,4.750593824,
0.02736,-0.4131701078,0.02736,4.019733236,
0.02738,0.3176904805,0.02738,3.654302942,
0.0274,-0.4131701078,0.0274,4.750593824,
0.02742,-1.874891284,0.02742,4.38516353,
0.02744,-0.778600402,0.02744,4.38516353,
0.02746,-1.874891284,0.02746,4.750593824,
0.02748,-3.702042755,0.02748,4.750593824,
0.0275,-1.874891284,0.0275,4.750593824,
0.02752,-2.240321579,0.02752,4.750593824,
0.02754,-3.702042755,0.02754,4.38516353,
0.02756,-2.971182167,0.02756,4.019733236,
0.02758,-3.702042755,0.02758,4.38516353,
0.0276,-3.702042755,0.0276,4.750593824,
0.02762,-3.336612461,0.02762,4.38516353,
0.02764,-2.605751873,0.02764,4.38516353,
0.02766,-3.702042755,0.02766,4.38516353,
0.02768,-5.163763932,0.02768,4.38516353,
0.0277,-1.874891284,0.0277,4.38516353,
0.02772,-3.702042755,0.02772,4.38516353,
0.02774,-2.605751873,0.02774,4.38516353,
0.02776,-1.874891284,0.02776,5.116024118,
0.02778,-1.874891284,0.02778,4.019733236,
0.0278,-1.144030696,0.0278,5.116024118,
0.02782,-0.4131701078,0.02782,4.750593824,
0.02784,-0.4131701078,0.02784,4.750593824,
0.02786,0.6831207747,0.02786,4.38516353,
0.02788,1.413981363,0.02788,4.38516353,
0.0279,-0.04773981363,0.0279,2.923442353,
0.02792,1.413981363,0.02792,4.38516353,
0.02794,2.510272246,0.02794,4.38516353,
0.02796,1.413981363,0.02796,4.019733236,
0.02798,3.241132834,0.02798,4.019733236,
0.028,3.241132834,0.028,4.38516353,
0.02802,2.87570254,0.02802,3.654302942,
0.02804,3.971993422,0.02804,4.38516353,
0.02806,2.87570254,0.02806,4.38516353,
0.02808,3.241132834,0.02808,3.654302942,
0.0281,5.799144893,0.0281,4.750593824,
0.02812,4.337423716,0.02812,4.019733236,
0.02814,3.606563128,0.02814,3.654302942,
0.02816,3.606563128,0.02816,4.019733236,
0.02818,2.87570254,0.02818,4.38516353,
0.0282,2.87570254,0.0282,4.38516353,
0.02822,2.87570254,0.02822,4.019733236,
0.02824,1.779411657,0.02824,4.019733236,
0.02826,2.510272246,0.02826,3.654302942,
0.02828,1.413981363,0.02828,4.38516353,
0.0283,-0.04773981363,0.0283,3.288872648,
0.02832,-0.04773981363,0.02832,4.019733236,
0.02834,0.6831207747,0.02834,4.38516353,
0.02836,-0.04773981363,0.02836,4.38516353,
0.02838,-0.778600402,0.02838,3.654302942,
0.0284,-1.874891284,0.0284,3.654302942,
0.02842,-2.971182167,0.02842,4.38516353,
0.02844,-4.06747305,0.02844,4.38516353,
0.02846,-2.240321579,0.02846,4.019733236,
0.02848,-3.336612461,0.02848,4.019733236,
0.0285,-4.432903344,0.0285,5.116024118,
0.02852,-4.432903344,0.02852,4.38516353,
0.02854,-3.336612461,0.02854,4.750593824,
0.02856,-3.702042755,0.02856,4.019733236,
0.02858,-2.605751873,0.02858,4.750593824,
0.0286,-3.336612461,0.0286,4.38516353,
0.02862,-1.144030696,0.02862,4.019733236,
0.02864,-2.605751873,0.02864,4.38516353,
0.02866,-2.971182167,0.02866,4.38516353,
0.02868,-2.971182167,0.02868,4.019733236,
0.0287,-0.778600402,0.0287,4.019733236,
0.02872,-1.50946099,0.02872,4.38516353,
0.02874,-2.605751873,0.02874,4.019733236,
0.02876,1.048551069,0.02876,4.38516353,
0.02878,-0.04773981363,0.02878,4.38516353,
0.0288,0.6831207747,0.0288,4.019733236,
0.02882,-0.04773981363,0.02882,4.750593824,
0.02884,1.413981363,0.02884,3.654302942,
0.02886,1.779411657,0.02886,4.019733236,
0.02888,2.144841951,0.02888,4.750593824,
0.0289,1.413981363,0.0289,4.38516353,
0.02892,3.606563128,0.02892,4.019733236,
0.02894,3.241132834,0.02894,4.38516353,
0.02896,3.606563128,0.02896,4.019733236,
0.02898,3.606563128,0.02898,4.019733236,
0.029,4.337423716,0.029,5.116024118,
0.02902,5.068284305,0.02902,4.019733236,
0.02904,3.971993422,0.02904,3.654302942,
0.02906,3.971993422,0.02906,4.750593824,
0.02908,4.337423716,0.02908,4.38516353,
0.0291,3.241132834,0.0291,3.654302942,
0.02912,1.779411657,0.02912,4.019733236,
0.02914,2.87570254,0.02914,4.38516353,
0.02916,1.413981363,0.02916,3.654302942,
0.02918,2.144841951,0.02918,4.750593824,
0.0292,1.048551069,0.0292,4.019733236,
0.02922,-0.4131701078,0.02922,3.654302942,
0.02924,0.6831207747,0.02924,4.019733236,
0.02926,-1.50946099,0.02926,4.38516353,
0.02928,-0.4131701078,0.02928,4.019733236,
0.0293,-0.778600402,0.0293,4.019733236,
0.02932,-0.778600402,0.02932,4.750593824,
0.02934,-2.605751873,0.02934,3.654302942,
0.02936,-1.50946099,0.02936,4.38516353,
0.02938,-2.605751873,0.02938,4.38516353,
0.0294,-3.336612461,0.0294,4.019733236,
0.02942,-0.778600402,0.02942,4.38516353,
0.02944,-2.971182167,0.02944,4.019733236,
0.02946,-1.874891284,0.02946,3.654302942,
0.02948,-2.605751873,0.02948,4.38516353,
0.0295,-2.605751873,0.0295,4.38516353,
0.02952,-3.336612461,0.02952,3.654302942,
0.02954,-2.605751873,0.02954,4.38516353,
0.02956,-3.336612461,0.02956,4.38516353,
0.02958,-2.971182167,0.02958,3.654302942,
0.0296,-3.336612461,0.0296,4.019733236,
0.02962,-4.06747305,0.02962,4.38516353,
0.02964,-3.336612461,0.02964,4.019733236,
0.02966,-1.144030696,0.02966,4.38516353,
0.02968,-1.144030696,0.02968,4.38516353,
0.0297,-0.778600402,0.0297,4.019733236,
0.02972,1.048551069,0.02972,4.38516353,
0.02974,1.413981363,0.02974,4.750593824,
0.02976,0.3176904805,0.02976,4.019733236,
0.02978,0.6831207747,0.02978,4.019733236,
0.0298,0.6831207747,0.0298,4.019733236,
0.02982,3.971993422,0.02982,4.38516353,
0.02984,2.510272246,0.02984,4.019733236,
0.02986,2.87570254,0.02986,3.654302942,
0.02988,3.971993422,0.02988,4.750593824,
0.0299,2.87570254,0.0299,4.019733236,
0.02992,4.337423716,0.02992,4.019733236,
0.02994,3.606563128,0.02994,4.750593824,
0.02996,3.971993422,0.02996,4.019733236,
0.02998,4.337423716,0.02998,4.019733236,
0.03,3.241132834,0.03,4.750593824,
0.03002,2.510272246,0.03002,4.019733236,
0.03004,2.510272246,0.03004,4.019733236,
0.03006,2.144841951,0.03006,4.750593824,
0.03008,2.144841951,0.03008,4.019733236,
0.0301,1.048551069,0.0301,4.019733236,
0.03012,-0.04773981363,0.03012,4.750593824,
0.03014,1.413981363,0.03014,4.38516353,
0.03016,1.779411657,0.03016,4.38516353,
0.03018,-1.144030696,0.03018,4.38516353,
0.0302,-1.874891284,0.0302,4.019733236,
0.03022,-1.50946099,0.03022,4.019733236,
0.03024,-2.605751873,0.03024,4.38516353,
0.03026,-1.874891284,0.03026,4.38516353,
0.03028,-0.04773981363,0.03028,5.116024118,
0.0303,-2.240321579,0.0303,4.750593824,
0.03032,-2.971182167,0.03032,3.288872648,
0.03034,-3.336612461,0.03034,4.019733236,
0.03036,-3.702042755,0.03036,4.750593824,
0.03038,-4.432903344,0.03038,4.019733236,
0.0304,-3.702042755,0.0304,4.38516353,
0.03042,-4.432903344,0.03042,4.38516353,
0.03044,-2.971182167,0.03044,4.750593824,
0.03046,-3.702042755,0.03046,4.38516353,
0.03048,-2.971182167,0.03048,4.38516353,
0.0305,-2.971182167,0.0305,4.38516353,
0.03052,-1.874891284,0.03052,4.38516353,
0.03054,-2.605751873,0.03054,4.38516353,
0.03056,-1.50946099,0.03056,4.38516353,
0.03058,-0.778600402,0.03058,4.019733236,
0.0306,-1.50946099,0.0306,4.38516353,
0.03062,0.6831207747,0.03062,4.38516353,
0.03064,-0.04773981363,0.03064,4.019733236,
0.03066,0.6831207747,0.03066,4.019733236,
0.03068,0.6831207747,0.03068,4.38516353,
0.0307,2.144841951,0.0307,4.38516353,
0.03072,1.413981363,0.03072,4.38516353,
0.03074,2.87570254,0.03074,4.750593824,
0.03076,2.144841951,0.03076,4.38516353,
0.03078,3.241132834,0.03078,4.019733236,
0.0308,3.606563128,0.0308,5.116024118,
0.03082,2.87570254,0.03082,4.38516353,
0.03084,2.144841951,0.03084,4.019733236,
0.03086,3.971993422,0.03086,4.750593824,
0.03088,3.241132834,0.03088,4.38516353,
0.0309,3.971993422,0.0309,4.019733236,
0.03092,5.433714599,0.03092,4.750593824,
0.03094,3.606563128,0.03094,4.38516353,
0.03096,5.433714599,0.03096,3.654302942,
0.03098,2.510272246,0.03098,4.750593824,
0.031,2.510272246,0.031,4.750593824,
0.03102,1.779411657,0.03102,4.38516353,
0.03104,1.048551069,0.03104,4.750593824,
0.03106,1.779411657,0.03106,4.019733236,
0.03108,0.3176904805,0.03108,4.38516353,
0.0311,0.3176904805,0.0311,4.38516353,
0.03112,0.3176904805,0.03112,4.38516353,
0.03114,-1.144030696,0.03114,4.019733236,
0.03116,-1.50946099,0.03116,4.750593824,
0.03118,-2.240321579,0.03118,4.38516353,
0.0312,-1.50946099,0.0312,4.38516353,
0.03122,-2.240321579,0.03122,4.38516353,
0.03124,-2.240321579,0.03124,4.38516353,
0.03126,-2.971182167,0.03126,4.38516353,
0.03128,-3.702042755,0.03128,4.38516353,
0.0313,-3.336612461,0.0313,4.019733236,
0.03132,-5.163763932,0.03132,4.38516353,
0.03134,-4.06747305,0.03134,4.38516353,
0.03136,-3.702042755,0.03136,4.38516353,
0.03138,-4.798333638,0.03138,4.019733236,
0.0314,-2.971182167,0.0314,4.750593824,
0.03142,-3.336612461,0.03142,3.654302942,
0.03144,-3.702042755,0.03144,4.38516353,
0.03146,-2.971182167,0.03146,4.38516353,
0.03148,-3.336612461,0.03148,4.38516353,
0.0315,-1.874891284,0.0315,4.38516353,
0.03152,-1.144030696,0.03152,5.481454413,
0.03154,-1.874891284,0.03154,4.38516353,
0.03156,-1.144030696,0.03156,4.38516353,
0.03158,1.048551069,0.03158,4.38516353,
0.0316,1.048551069,0.0316,5.116024118,
0.03162,1.413981363,0.03162,4.38516353,
0.03164,0.6831207747,0.03164,4.750593824,
0.03166,1.779411657,0.03166,4.750593824,
0.03168,2.510272246,0.03168,4.019733236,
0.0317,2.87570254,0.0317,5.116024118,
0.03172,0.6831207747,0.03172,4.019733236,
0.03174,3.606563128,0.03174,4.38516353,
0.03176,2.510272246,0.03176,4.38516353,
0.03178,3.241132834,0.03178,4.38516353,
0.0318,3.241132834,0.0318,4.38516353,
0.03182,3.241132834,0.03182,6.212315001,
0.03184,3.606563128,0.03184,4.38516353,
0.03186,3.606563128,0.03186,4.38516353,
0.03188,3.241132834,0.03188,4.38516353,
0.0319,5.433714599,0.0319,4.38516353,
0.03192,2.87570254,0.03192,5.481454413,
0.03194,2.87570254,0.03194,4.019733236,
0.03196,1.048551069,0.03196,4.019733236,
0.03198,1.779411657,0.03198,4.019733236,
0.032,1.048551069,0.032,4.750593824,
0.03202,0.3176904805,0.03202,2.558012059,
0.03204,-0.04773981363,0.03204,4.019733236,
0.03206,-1.144030696,0.03206,4.38516353,
0.03208,-2.240321579,0.03208,4.38516353,
0.0321,-1.144030696,0.0321,4.019733236,
0.03212,-1.144030696,0.03212,4.38516353,
0.03214,-1.144030696,0.03214,4.38516353,
0.03216,-1.874891284,0.03216,5.116024118,
0.03218,-2.605751873,0.03218,5.116024118,
0.0322,-4.798333638,0.0322,4.38516353,
0.03222,-2.971182167,0.03222,4.750593824,
0.03224,-4.432903344,0.03224,4.38516353,
0.03226,-3.702042755,0.03226,4.38516353,
0.03228,-3.336612461,0.03228,4.019733236,
0.0323,-2.971182167,0.0323,4.019733236,
0.03232,-4.06747305,0.03232,4.019733236,
0.03234,-0.778600402,0.03234,4.38516353,
0.03236,-3.702042755,0.03236,4.750593824,
0.03238,-3.336612461,0.03238,4.38516353,
0.0324,-1.874891284,0.0324,4.750593824,
0.03242,-1.874891284,0.03242,5.481454413,
0.03244,-2.240321579,0.03244,4.38516353,
0.03246,-1.144030696,0.03246,4.38516353,
0.03248,-1.50946099,0.03248,4.750593824,
0.0325,-1.144030696,0.0325,4.38516353,
0.03252,1.413981363,0.03252,4.019733236,
0.03254,-1.144030696,0.03254,5.116024118,
0.03256,1.048551069,0.03256,4.38516353,
0.03258,-0.04773981363,0.03258,4.38516353,
0.0326,2.144841951,0.0326,5.116024118,
0.03262,2.510272246,0.03262,3.288872648,
0.03264,2.87570254,0.03264,4.38516353,
0.03266,3.241132834,0.03266,5.116024118,
0.03268,1.779411657,0.03268,4.38516353,
0.0327,2.87570254,0.0327,4.38516353,
0.03272,3.606563128,0.03272,4.38516353,
0.03274,3.606563128,0.03274,4.019733236,
0.03276,3.971993422,0.03276,4.38516353,
0.03278,3.971993422,0.03278,4.750593824,
0.0328,2.87570254,0.0328,4.38516353,
0.03282,2.87570254,0.03282,4.019733236,
0.03284,4.702854011,0.03284,4.38516353,
0.03286,2.144841951,0.03286,3.654302942,
0.03288,2.510272246,0.03288,4.38516353,
0.0329,1.779411657,0.0329,5.481454413,
0.03292,-0.04773981363,0.03292,4.750593824,
0.03294,2.144841951,0.03294,4.38516353,
0.03296,1.779411657,0.03296,4.750593824,
0.03298,-1.874891284,0.03298,4.750593824,
0.033,-0.04773981363,0.033,4.019733236,
0.03302,-0.778600402,0.03302,5.116024118,
0.03304,-0.778600402,0.03304,4.750593824,
0.03306,-1.50946099,0.03306,4.019733236,
0.03308,-1.874891284,0.03308,4.38516353,
0.0331,-2.971182167,0.0331,4.019733236,
0.03312,-1.50946099,0.03312,4.019733236,
0.03314,-1.874891284,0.03314,4.38516353,
0.03316,-3.336612461,0.03316,4.019733236,
0.03318,-2.971182167,0.03318,4.019733236,
0.0332,-2.240321579,0.0332,4.750593824,
0.03322,-4.798333638,0.03322,4.38516353,
0.03324,-1.874891284,0.03324,4.019733236,
0.03326,-2.240321579,0.03326,4.750593824,
0.03328,-4.432903344,0.03328,4.38516353,
0.0333,-2.605751873,0.0333,4.38516353,
0.03332,-2.240321579,0.03332,4.38516353,
0.03334,-2.605751873,0.03334,4.019733236,
0.03336,-2.971182167,0.03336,4.019733236,
0.03338,-0.4131701078,0.03338,4.750593824,
0.0334,-1.874891284,0.0334,4.38516353,
0.03342,-0.04773981363,0.03342,4.019733236,
0.03344,-0.778600402,0.03344,4.750593824,
0.03346,-0.4131701078,0.03346,4.750593824,
0.03348,0.3176904805,0.03348,4.019733236,
0.0335,1.413981363,0.0335,4.38516353,
0.03352,1.048551069,0.03352,4.38516353,
0.03354,2.144841951,0.03354,4.019733236,
0.03356,2.510272246,0.03356,3.654302942,
0.03358,2.510272246,0.03358,3.654302942,
0.0336,3.971993422,0.0336,4.019733236,
0.03362,4.702854011,0.03362,4.38516353,
0.03364,3.606563128,0.03364,4.019733236,
0.03366,3.606563128,0.03366,4.750593824,
0.03368,3.971993422,0.03368,4.38516353,
0.0337,3.241132834,0.0337,4.019733236,
0.03372,4.337423716,0.03372,4.019733236,
0.03374,3.971993422,0.03374,4.38516353,
0.03376,2.144841951,0.03376,4.38516353,
0.03378,3.606563128,0.03378,4.38516353,
0.0338,3.241132834,0.0338,4.019733236,
0.03382,2.510272246,0.03382,3.288872648,
0.03384,0.6831207747,0.03384,4.019733236,
0.03386,0.6831207747,0.03386,4.38516353,
0.03388,-0.4131701078,0.03388,3.654302942,
0.0339,1.779411657,0.0339,4.38516353,
0.03392,-0.778600402,0.03392,4.019733236,
0.03394,-0.04773981363,0.03394,3.288872648,
0.03396,-0.778600402,0.03396,4.38516353,
0.03398,-1.144030696,0.03398,4.38516353,
0.034,-1.874891284,0.034,3.654302942,
0.03402,-1.874891284,0.03402,4.38516353,
0.03404,-1.874891284,0.03404,4.38516353,
0.03406,-2.971182167,0.03406,3.288872648,
0.03408,-3.336612461,0.03408,4.019733236,
0.0341,-2.971182167,0.0341,4.38516353,
0.03412,-2.971182167,0.03412,4.019733236,
0.03414,-2.971182167,0.03414,4.38516353,
0.03416,-4.432903344,0.03416,4.750593824,
0.03418,-3.702042755,0.03418,4.38516353,
0.0342,-0.778600402,0.0342,4.38516353,
0.03422,-3.702042755,0.03422,4.019733236,
0.03424,-2.240321579,0.03424,3.654302942,
0.03426,-2.240321579,0.03426,4.019733236,
0.03428,-1.874891284,0.03428,3.654302942,
0.0343,-1.874891284,0.0343,4.019733236,
0.03432,-1.144030696,0.03432,4.019733236,
0.03434,-0.778600402,0.03434,4.019733236,
0.03436,-1.144030696,0.03436,4.019733236,
0.03438,-0.04773981363,0.03438,4.38516353,
0.0344,0.6831207747,0.0344,4.38516353,
0.03442,0.3176904805,0.03442,3.654302942,
0.03444,1.048551069,0.03444,4.019733236,
0.03446,2.510272246,0.03446,4.019733236,
0.03448,2.87570254,0.03448,4.019733236,
0.0345,3.241132834,0.0345,4.019733236,
0.03452,2.144841951,0.03452,4.38516353,
0.03454,2.144841951,0.03454,4.019733236,
0.03456,3.606563128,0.03456,4.019733236,
0.03458,3.971993422,0.03458,4.019733236,
0.0346,3.971993422,0.0346,4.019733236,
0.03462,4.337423716,0.03462,4.019733236,
0.03464,4.337423716,0.03464,4.019733236,
0.03466,3.606563128,0.03466,4.019733236,
0.03468,3.606563128,0.03468,4.019733236,
0.0347,2.87570254,0.0347,4.019733236,
0.03472,2.87570254,0.03472,3.654302942,
0.03474,2.87570254,0.03474,4.38516353,
0.03476,2.510272246,0.03476,4.019733236,
0.03478,1.048551069,0.03478,3.288872648,
0.0348,1.048551069,0.0348,4.38516353,
0.03482,1.048551069,0.03482,4.38516353,
0.03484,2.87570254,0.03484,4.019733236,
0.03486,-0.04773981363,0.03486,4.750593824,
0.03488,-0.778600402,0.03488,4.019733236,
0.0349,-1.144030696,0.0349,3.654302942,
0.03492,-1.144030696,0.03492,4.38516353,
0.03494,-0.778600402,0.03494,4.019733236,
0.03496,-2.240321579,0.03496,4.019733236,
0.03498,-1.50946099,0.03498,4.38516353,
0.035,-3.336612461,0.035,4.38516353,
0.03502,-2.605751873,0.03502,3.654302942,
0.03504,-4.432903344,0.03504,4.38516353,
0.03506,-3.702042755,0.03506,4.019733236,
0.03508,-3.702042755,0.03508,3.654302942,
0.0351,-2.971182167,0.0351,4.019733236,
0.03512,-3.336612461,0.03512,4.38516353,
0.03514,-4.06747305,0.03514,4.750593824,
0.03516,-2.971182167,0.03516,5.116024118,
0.03518,-2.971182167,0.03518,4.019733236,
0.0352,-2.240321579,0.0352,4.019733236,
0.03522,-1.50946099,0.03522,4.019733236,
0.03524,-2.240321579,0.03524,2.923442353,
0.03526,-2.240321579,0.03526,4.019733236,
0.03528,-0.4131701078,0.03528,4.38516353,
0.0353,-0.778600402,0.0353,4.38516353,
0.03532,-0.04773981363,0.03532,4.019733236,
0.03534,0.3176904805,0.03534,4.750593824,
0.03536,0.6831207747,0.03536,4.019733236,
0.03538,1.048551069,0.03538,4.019733236,
0.0354,1.048551069,0.0354,4.750593824,
0.03542,4.337423716,0.03542,4.38516353,
0.03544,2.510272246,0.03544,3.654302942,
0.03546,4.702854011,0.03546,4.38516353,
0.03548,2.87570254,0.03548,4.38516353,
0.0355,3.606563128,0.0355,4.750593824,
0.03552,3.606563128,0.03552,4.019733236,
0.03554,2.87570254,0.03554,2.923442353,
0.03556,3.971993422,0.03556,4.019733236,
0.03558,5.068284305,0.03558,4.38516353,
0.0356,2.144841951,0.0356,4.38516353,
0.03562,3.606563128,0.03562,4.38516353,
0.03564,2.144841951,0.03564,5.116024118,
0.03566,2.87570254,0.03566,4.38516353,
0.03568,2.144841951,0.03568,4.019733236,
0.0357,2.144841951,0.0357,4.750593824,
0.03572,1.048551069,0.03572,4.019733236,
0.03574,1.413981363,0.03574,4.019733236,
0.03576,0.6831207747,0.03576,4.750593824,
0.03578,0.3176904805,0.03578,4.38516353,
0.0358,-0.4131701078,0.0358,4.38516353,
0.03582,-0.4131701078,0.03582,4.38516353,
0.03584,-1.144030696,0.03584,3.654302942,
0.03586,-2.971182167,0.03586,4.750593824,
0.03588,-1.874891284,0.03588,4.38516353,
0.0359,-1.874891284,0.0359,4.019733236,
0.03592,-1.144030696,0.03592,4.750593824,
0.03594,-4.432903344,0.03594,5.116024118,
0.03596,-0.04773981363,0.03596,4.019733236,
0.03598,-4.798333638,0.03598,4.38516353,
0.036,-2.605751873,0.036,4.38516353,
0.03602,-3.336612461,0.03602,4.019733236,
0.03604,-4.432903344,0.03604,4.019733236,
0.03606,-3.702042755,0.03606,4.38516353,
0.03608,-3.702042755,0.03608,4.38516353,
0.0361,-0.4131701078,0.0361,4.38516353,
0.03612,-3.702042755,0.03612,4.38516353,
0.03614,-2.240321579,0.03614,4.750593824,
0.03616,-4.432903344,0.03616,4.750593824,
0.03618,-0.4131701078,0.03618,4.38516353,
0.0362,-1.144030696,0.0362,4.750593824,
0.03622,-0.04773981363,0.03622,4.750593824,
0.03624,-1.50946099,0.03624,4.750593824,
0.03626,2.144841951,0.03626,3.654302942,
0.03628,1.413981363,0.03628,4.019733236,
0.0363,0.6831207747,0.0363,4.38516353,
0.03632,1.048551069,0.03632,4.38516353,
0.03634,1.048551069,0.03634,4.38516353,
0.03636,2.87570254,0.03636,4.38516353,
0.03638,3.606563128,0.03638,4.019733236,
0.0364,1.779411657,0.0364,4.750593824,
0.03642,3.241132834,0.03642,4.019733236,
0.03644,3.971993422,0.03644,4.38516353,
0.03646,5.068284305,0.03646,4.38516353,
0.03648,4.337423716,0.03648,4.019733236,
0.0365,3.606563128,0.0365,4.38516353,
0.03652,4.337423716,0.03652,4.750593824,
0.03654,3.971993422,0.03654,3.654302942,
0.03656,2.144841951,0.03656,4.38516353,
0.03658,3.606563128,0.03658,4.38516353,
0.0366,2.510272246,0.0366,4.019733236,
0.03662,3.241132834,0.03662,4.019733236,
0.03664,1.779411657,0.03664,4.38516353,
0.03666,-0.04773981363,0.03666,4.019733236,
0.03668,1.413981363,0.03668,4.38516353,
0.0367,0.6831207747,0.0367,4.38516353,
0.03672,-0.778600402,0.03672,3.288872648,
0.03674,0.6831207747,0.03674,3.654302942,
0.03676,0.3176904805,0.03676,4.019733236,
0.03678,-2.605751873,0.03678,4.38516353,
0.0368,-1.50946099,0.0368,4.38516353,
0.03682,-2.240321579,0.03682,4.019733236,
0.03684,-2.240321579,0.03684,3.654302942,
0.03686,-1.874891284,0.03686,4.019733236,
0.03688,-3.336612461,0.03688,4.38516353,
0.0369,-3.702042755,0.0369,4.019733236,
0.03692,-3.336612461,0.03692,4.38516353,
0.03694,-3.336612461,0.03694,4.38516353,
0.03696,-4.432903344,0.03696,4.38516353,
0.03698,-2.971182167,0.03698,4.38516353,
0.037,-3.336612461,0.037,4.38516353,
0.03702,-5.529194226,0.03702,4.019733236,
0.03704,-1.874891284,0.03704,4.38516353,
0.03706,-3.336612461,0.03706,4.019733236,
0.03708,-2.605751873,0.03708,3.288872648,
0.0371,-2.240321579,0.0371,4.019733236,
0.03712,-2.240321579,0.03712,4.38516353,
0.03714,-0.778600402,0.03714,4.019733236,
0.03716,-0.04773981363,0.03716,4.019733236,
0.03718,0.3176904805,0.03718,4.38516353,
0.0372,0.6831207747,0.0372,4.019733236,
0.03722,1.413981363,0.03722,4.38516353,
0.03724,2.510272246,0.03724,4.38516353,
0.03726,2.510272246,0.03726,4.019733236,
0.03728,2.144841951,0.03728,3.654302942,
0.0373,3.241132834,0.0373,4.019733236,
0.03732,1.413981363,0.03732,3.654302942,
0.03734,3.606563128,0.03734,4.019733236,
0.03736,4.337423716,0.03736,4.019733236,
0.03738,5.068284305,0.03738,3.654302942,
0.0374,5.433714599,0.0374,4.38516353,
0.03742,4.702854011,0.03742,4.38516353,
0.03744,3.606563128,0.03744,4.019733236,
0.03746,4.702854011,0.03746,4.38516353,
0.03748,3.606563128,0.03748,4.38516353,
0.0375,2.510272246,0.0375,4.019733236,
0.03752,2.510272246,0.03752,4.019733236,
0.03754,2.510272246,0.03754,4.019733236,
0.03756,1.413981363,0.03756,3.654302942,
0.03758,1.779411657,0.03758,3.654302942,
0.0376,0.6831207747,0.0376,4.019733236,
0.03762,1.048551069,0.03762,4.019733236,
0.03764,2.510272246,0.03764,4.38516353,
0.03766,-2.240321579,0.03766,4.019733236,
0.03768,-0.4131701078,0.03768,3.654302942,
0.0377,-0.4131701078,0.0377,4.38516353,
0.03772,-1.144030696,0.03772,4.019733236,
0.03774,-0.778600402,0.03774,4.019733236,
0.03776,-3.336612461,0.03776,4.38516353,
0.03778,-1.50946099,0.03778,3.654302942,
0.0378,-3.702042755,0.0378,4.019733236,
0.03782,-2.971182167,0.03782,4.019733236,
0.03784,-2.971182167,0.03784,4.019733236,
0.03786,-2.605751873,0.03786,4.019733236,
0.03788,-3.702042755,0.03788,4.750593824,
0.0379,-2.971182167,0.0379,4.38516353,
0.03792,-2.605751873,0.03792,3.654302942,
0.03794,-2.971182167,0.03794,4.750593824,
0.03796,-2.605751873,0.03796,4.38516353,
0.03798,-2.971182167,0.03798,2.923442353,
0.038,-2.605751873,0.038,4.38516353,
0.03802,-3.336612461,0.03802,4.750593824,
0.03804,-1.50946099,0.03804,3.288872648,
0.03806,-1.144030696,0.03806,4.019733236,
0.03808,-0.778600402,0.03808,4.019733236,
0.0381,1.048551069,0.0381,3.654302942,
0.03812,-0.4131701078,0.03812,4.019733236,
0.03814,0.6831207747,0.03814,4.019733236,
0.03816,0.3176904805,0.03816,4.019733236,
0.03818,1.779411657,0.03818,4.38516353,
0.0382,1.779411657,0.0382,4.38516353,
0.03822,3.241132834,0.03822,3.654302942,
0.03824,2.87570254,0.03824,4.38516353,
0.03826,2.510272246,0.03826,5.116024118,
0.03828,3.606563128,0.03828,3.654302942,
0.0383,3.606563128,0.0383,4.019733236,
0.03832,2.510272246,0.03832,3.654302942,
0.03834,3.606563128,0.03834,4.750593824,
0.03836,1.779411657,0.03836,4.38516353,
0.03838,3.241132834,0.03838,4.019733236,
0.0384,3.971993422,0.0384,4.750593824,
0.03842,1.779411657,0.03842,4.750593824,
0.03844,2.510272246,0.03844,4.019733236,
0.03846,2.144841951,0.03846,4.38516353,
0.03848,1.413981363,0.03848,4.019733236,
0.0385,2.144841951,0.0385,4.019733236,
0.03852,-0.04773981363,0.03852,4.750593824,
0.03854,0.6831207747,0.03854,4.019733236,
0.03856,0.3176904805,0.03856,3.654302942,
0.03858,-0.4131701078,0.03858,4.750593824,
0.0386,-1.144030696,0.0386,4.019733236,
0.03862,-1.50946099,0.03862,4.019733236,
0.03864,-1.874891284,0.03864,4.750593824,
0.03866,-1.50946099,0.03866,5.116024118,
0.03868,-3.336612461,0.03868,4.38516353,
0.0387,-3.336612461,0.0387,4.38516353,
0.03872,-3.336612461,0.03872,4.019733236,
0.03874,-3.336612461,0.03874,4.38516353,
0.03876,-3.702042755,0.03876,4.750593824,
0.03878,-3.702042755,0.03878,4.38516353,
0.0388,-3.336612461,0.0388,4.38516353,
0.03882,-2.240321579,0.03882,4.38516353,
0.03884,-4.798333638,0.03884,4.38516353,
0.03886,-4.06747305,0.03886,3.288872648,
0.03888,-2.240321579,0.03888,4.750593824,
0.0389,-3.702042755,0.0389,4.019733236,
0.03892,-2.971182167,0.03892,4.38516353,
0.03894,-2.605751873,0.03894,5.116024118,
0.03896,-2.605751873,0.03896,6.212315001,
0.03898,-1.874891284,0.03898,4.019733236,
0.039,-1.874891284,0.039,4.750593824,
0.03902,-1.50946099,0.03902,4.38516353,
0.03904,-0.778600402,0.03904,4.38516353,
0.03906,1.048551069,0.03906,4.019733236,
0.03908,-0.04773981363,0.03908,4.38516353,
0.0391,1.048551069,0.0391,4.38516353,
0.03912,3.241132834,0.03912,4.38516353,
0.03914,2.144841951,0.03914,4.019733236,
0.03916,1.779411657,0.03916,2.192581765,
0.03918,2.87570254,0.03918,4.38516353,
0.0392,5.433714599,0.0392,4.38516353,
0.03922,2.510272246,0.03922,4.019733236,
0.03924,3.606563128,0.03924,4.750593824,
0.03926,4.702854011,0.03926,4.019733236,
0.03928,4.702854011,0.03928,4.019733236,
0.0393,5.068284305,0.0393,5.116024118,
0.03932,2.510272246,0.03932,4.38516353,
0.03934,2.510272246,0.03934,4.019733236,
0.03936,3.241132834,0.03936,6.212315001,
0.03938,1.779411657,0.03938,4.38516353,
0.0394,3.241132834,0.0394,4.38516353,
0.03942,2.144841951,0.03942,4.750593824,
0.03944,1.413981363,0.03944,4.019733236,
0.03946,-0.778600402,0.03946,3.654302942,
0.03948,0.3176904805,0.03948,4.38516353,
0.0395,-1.144030696,0.0395,3.654302942,
0.03952,-0.778600402,0.03952,4.019733236,
0.03954,-0.4131701078,0.03954,5.116024118,
0.03956,-1.144030696,0.03956,3.654302942,
0.03958,-2.605751873,0.03958,3.654302942,
0.0396,-4.06747305,0.0396,4.38516353,
0.03962,-2.605751873,0.03962,4.750593824,
0.03964,-2.605751873,0.03964,3.654302942,
0.03966,-0.778600402,0.03966,5.846884707,
0.03968,-3.336612461,0.03968,4.38516353,
0.0397,-4.06747305,0.0397,4.019733236,
0.03972,-3.336612461,0.03972,4.750593824,
0.03974,-3.702042755,0.03974,4.38516353,
0.03976,-2.971182167,0.03976,4.38516353,
0.03978,-4.798333638,0.03978,4.38516353,
0.0398,-4.06747305,0.0398,4.38516353,
0.03982,-2.971182167,0.03982,4.38516353,
0.03984,-1.874891284,0.03984,4.750593824,
0.03986,-2.971182167,0.03986,2.923442353,
0.03988,-3.336612461,0.03988,4.38516353,
0.0399,-1.50946099,0.0399,4.750593824,
0.03992,-1.50946099,0.03992,4.38516353,
0.03994,-0.4131701078,0.03994,4.019733236,
0.03996,-1.144030696,0.03996,4.750593824,
0.03998,0.3176904805,0.03998,4.38516353,
0.04,1.779411657,0.04,4.38516353,
0.04002,2.144841951,0.04002,4.38516353,
0.04004,1.048551069,0.04004,4.019733236,
0.04006,1.048551069,0.04006,4.750593824,
0.04008,1.048551069,0.04008,4.750593824,
0.0401,2.144841951,0.0401,4.019733236,
0.04012,2.510272246,0.04012,4.38516353,
0.04014,0.3176904805,0.04014,4.38516353,
0.04016,3.606563128,0.04016,3.288872648,
0.04018,1.413981363,0.04018,4.38516353,
0.0402,3.606563128,0.0402,4.750593824,
0.04022,2.87570254,0.04022,4.019733236,
0.04024,4.337423716,0.04024,4.750593824,
0.04026,2.87570254,0.04026,4.750593824,
0.04028,5.068284305,0.04028,4.38516353,
0.0403,2.510272246,0.0403,4.750593824,
0.04032,3.971993422,0.04032,4.38516353,
0.04034,2.510272246,0.04034,4.38516353,
0.04036,1.779411657,0.04036,4.750593824,
0.04038,0.6831207747,0.04038,4.38516353,
0.0404,1.048551069,0.0404,4.019733236,
0.04042,0.6831207747,0.04042,4.38516353,
0.04044,-0.04773981363,0.04044,5.116024118,
0.04046,-0.778600402,0.04046,4.38516353,
0.04048,-1.874891284,0.04048,4.38516353,
0.0405,-4.06747305,0.0405,4.38516353,
0.04052,-0.4131701078,0.04052,4.019733236,
0.04054,-1.874891284,0.04054,5.481454413,
0.04056,-1.50946099,0.04056,4.38516353,
0.04058,-2.240321579,0.04058,3.654302942,
0.0406,-2.971182167,0.0406,4.750593824,
0.04062,-4.432903344,0.04062,4.38516353,
0.04064,-3.336612461,0.04064,4.38516353,
0.04066,-2.605751873,0.04066,4.019733236,
0.04068,-4.06747305,0.04068,4.019733236,
0.0407,-2.971182167,0.0407,4.38516353,
0.04072,-3.336612461,0.04072,4.750593824,
0.04074,-2.971182167,0.04074,4.019733236,
0.04076,-1.50946099,0.04076,4.019733236,
0.04078,-3.702042755,0.04078,4.38516353,
0.0408,-3.702042755,0.0408,4.019733236,
0.04082,-0.4131701078,0.04082,4.38516353,
0.04084,-1.50946099,0.04084,4.38516353,
0.04086,-1.144030696,0.04086,4.750593824,
0.04088,-0.04773981363,0.04088,4.38516353,
0.0409,0.3176904805,0.0409,4.38516353,
0.04092,-0.04773981363,0.04092,4.38516353,
0.04094,1.048551069,0.04094,4.38516353,
0.04096,1.413981363,0.04096,4.38516353,
0.04098,1.413981363,0.04098,4.750593824,
0.041,1.779411657,0.041,3.654302942,
0.04102,3.606563128,0.04102,4.38516353,
0.04104,2.510272246,0.04104,4.019733236,
0.04106,2.87570254,0.04106,4.750593824,
0.04108,2.144841951,0.04108,4.38516353,
0.0411,3.606563128,0.0411,4.750593824,
0.04112,4.337423716,0.04112,4.38516353,
0.04114,6.164575187,0.04114,4.38516353,
0.04116,5.068284305,0.04116,5.116024118,
0.04118,1.779411657,0.04118,4.750593824,
0.0412,3.241132834,0.0412,4.38516353,
0.04122,3.606563128,0.04122,4.750593824,
0.04124,2.144841951,0.04124,4.750593824,
0.04126,4.337423716,0.04126,3.288872648,
0.04128,2.144841951,0.04128,4.750593824,
0.0413,1.413981363,0.0413,4.38516353,
0.04132,2.144841951,0.04132,3.654302942,
0.04134,0.6831207747,0.04134,4.750593824,
0.04136,-0.04773981363,0.04136,4.38516353,
0.04138,0.3176904805,0.04138,4.019733236,
0.0414,0.3176904805,0.0414,4.38516353,
0.04142,-1.144030696,0.04142,4.019733236,
0.04144,-0.4131701078,0.04144,4.019733236,
0.04146,-1.874891284,0.04146,4.750593824,
0.04148,-2.605751873,0.04148,4.38516353,
0.0415,-2.240321579,0.0415,4.019733236,
0.04152,-2.605751873,0.04152,4.38516353,
0.04154,-5.163763932,0.04154,4.38516353,
0.04156,-3.336612461,0.04156,4.019733236,
0.04158,-4.06747305,0.04158,4.750593824,
0.0416,-6.260054815,0.0416,4.38516353,
0.04162,-4.798333638,0.04162,4.019733236,
0.04164,-4.798333638,0.04164,4.750593824,
0.04166,-3.702042755,0.04166,4.019733236,
0.04168,-2.605751873,0.04168,3.654302942,
0.0417,-2.605751873,0.0417,4.38516353,
0.04172,-3.336612461,0.04172,4.38516353,
0.04174,-2.971182167,0.04174,4.019733236,
0.04176,-3.702042755,0.04176,4.019733236,
0.04178,-1.50946099,0.04178,4.019733236,
0.0418,-0.778600402,0.0418,4.019733236,
0.04182,0.3176904805,0.04182,4.750593824,
0.04184,-0.4131701078,0.04184,3.654302942,
0.04186,0.3176904805,0.04186,4.019733236,
0.04188,0.3176904805,0.04188,4.38516353,
0.0419,1.048551069,0.0419,4.38516353,
0.04192,0.6831207747,0.04192,4.38516353,
0.04194,2.510272246,0.04194,4.750593824,
0.04196,0.6831207747,0.04196,4.019733236,
0.04198,2.87570254,0.04198,3.288872648,
0.042,3.241132834,0.042,4.38516353,
0.04202,2.87570254,0.04202,4.38516353,
0.04204,1.413981363,0.04204,4.019733236,
0.04206,4.337423716,0.04206,4.750593824,
0.04208,3.971993422,0.04208,4.750593824,
0.0421,3.241132834,0.0421,4.38516353,
0.04212,3.606563128,0.04212,4.38516353,
0.04214,2.87570254,0.04214,4.019733236,
0.04216,3.241132834,0.04216,4.019733236,
0.04218,2.144841951,0.04218,5.846884707,
0.0422,2.144841951,0.0422,4.38516353,
0.04222,1.413981363,0.04222,4.019733236,
0.04224,2.510272246,0.04224,4.38516353,
0.04226,0.3176904805,0.04226,4.38516353,
0.04228,2.144841951,0.04228,3.654302942,
0.0423,0.3176904805,0.0423,4.750593824,
0.04232,-0.04773981363,0.04232,4.38516353,
0.04234,-1.144030696,0.04234,4.019733236,
0.04236,-1.50946099,0.04236,4.38516353,
0.04238,-2.240321579,0.04238,4.019733236,
0.0424,-1.874891284,0.0424,4.019733236,
0.04242,-2.971182167,0.04242,4.750593824,
0.04244,-3.702042755,0.04244,4.38516353,
0.04246,-2.971182167,0.04246,4.019733236,
0.04248,-3.336612461,0.04248,5.846884707,
0.0425,-4.06747305,0.0425,4.750593824,
0.04252,-3.702042755,0.04252,4.019733236,
0.04254,-3.702042755,0.04254,4.750593824,
0.04256,-4.798333638,0.04256,4.019733236,
0.04258,-4.06747305,0.04258,4.38516353,
0.0426,-5.89462452,0.0426,4.750593824,
0.04262,-3.336612461,0.04262,4.38516353,
0.04264,-5.163763932,0.04264,4.019733236,
0.04266,-1.874891284,0.04266,4.750593824,
0.04268,-2.971182167,0.04268,4.019733236,
0.0427,-1.50946099,0.0427,4.019733236,
0.04272,-1.144030696,0.04272,5.116024118,
0.04274,-1.144030696,0.04274,4.38516353,
0.04276,-0.4131701078,0.04276,4.019733236,
0.04278,0.3176904805,0.04278,3.654302942,
0.0428,-0.04773981363,0.0428,4.019733236,
0.04282,1.048551069,0.04282,4.019733236,
0.04284,0.3176904805,0.04284,4.750593824,
0.04286,1.779411657,0.04286,4.38516353,
0.04288,2.144841951,0.04288,4.750593824,
0.0429,2.510272246,0.0429,4.750593824,
0.04292,3.606563128,0.04292,4.38516353,
0.04294,3.241132834,0.04294,4.019733236,
0.04296,2.510272246,0.04296,4.750593824,
0.04298,3.241132834,0.04298,3.654302942,
0.043,2.87570254,0.043,4.019733236,
0.04302,4.702854011,0.04302,4.750593824,
0.04304,3.606563128,0.04304,4.38516353,
0.04306,3.606563128,0.04306,4.38516353,
0.04308,2.144841951,0.04308,4.019733236,
0.0431,1.779411657,0.0431,4.38516353,
0.04312,3.241132834,0.04312,4.38516353,
0.04314,2.510272246,0.04314,4.38516353,
0.04316,1.048551069,0.04316,4.38516353,
0.04318,0.6831207747,0.04318,4.019733236,
0.0432,0.3176904805,0.0432,4.38516353,
0.04322,-0.778600402,0.04322,4.750593824,
0.04324,-0.4131701078,0.04324,4.38516353,
0.04326,-0.04773981363,0.04326,4.38516353,
0.04328,-0.778600402,0.04328,5.116024118,
0.0433,-0.778600402,0.0433,4.38516353,
0.04332,-1.874891284,0.04332,4.38516353,
0.04334,-2.240321579,0.04334,4.38516353,
0.04336,-2.605751873,0.04336,3.654302942,
0.04338,0.3176904805,0.04338,4.019733236,
0.0434,-4.06747305,0.0434,4.750593824,
0.04342,-2.971182167,0.04342,4.38516353,
0.04344,-2.605751873,0.04344,4.38516353,
0.04346,-4.432903344,0.04346,4.750593824,
0.04348,-2.240321579,0.04348,4.38516353,
0.0435,-4.798333638,0.0435,4.750593824,
0.04352,-2.971182167,0.04352,4.38516353,
0.04354,-3.336612461,0.04354,4.019733236,
0.04356,-2.971182167,0.04356,4.750593824,
0.04358,-4.06747305,0.04358,5.116024118,
0.0436,-1.874891284,0.0436,4.38516353,
0.04362,-2.971182167,0.04362,4.750593824,
0.04364,-1.50946099,0.04364,4.750593824,
0.04366,-1.144030696,0.04366,4.750593824,
0.04368,-1.50946099,0.04368,4.750593824,
0.0437,1.048551069,0.0437,4.38516353,
0.04372,0.6831207747,0.04372,4.38516353,
0.04374,-0.778600402,0.04374,4.38516353,
0.04376,0.3176904805,0.04376,4.750593824,
0.04378,1.048551069,0.04378,4.38516353,
0.0438,2.144841951,0.0438,4.750593824,
0.04382,2.510272246,0.04382,4.38516353,
0.04384,2.87570254,0.04384,4.38516353,
0.04386,3.606563128,0.04386,4.38516353,
0.04388,2.144841951,0.04388,4.750593824,
0.0439,4.702854011,0.0439,4.38516353,
0.04392,3.606563128,0.04392,5.116024118,
0.04394,3.606563128,0.04394,4.750593824,
0.04396,2.87570254,0.04396,4.019733236,
0.04398,4.337423716,0.04398,4.38516353,
0.044,3.241132834,0.044,4.750593824,
0.04402,3.241132834,0.04402,4.38516353,
0.04404,2.510272246,0.04404,4.750593824,
0.04406,2.144841951,0.04406,4.38516353,
0.04408,3.606563128,0.04408,4.019733236,
0.0441,1.413981363,0.0441,5.116024118,
0.04412,1.048551069,0.04412,4.750593824,
0.04414,0.3176904805,0.04414,4.38516353,
0.04416,0.3176904805,0.04416,4.38516353,
0.04418,1.779411657,0.04418,4.38516353,
0.0442,-2.240321579,0.0442,4.019733236,
0.04422,-1.144030696,0.04422,4.750593824,
0.04424,-1.50946099,0.04424,4.38516353,
0.04426,-0.778600402,0.04426,4.38516353,
0.04428,-2.240321579,0.04428,4.750593824,
0.0443,-2.240321579,0.0443,4.750593824,
0.04432,-2.605751873,0.04432,4.019733236,
0.04434,-3.702042755,0.04434,4.38516353,
0.04436,-3.336612461,0.04436,4.019733236,
0.04438,-2.971182167,0.04438,4.38516353,
0.0444,-1.50946099,0.0444,4.750593824,
0.04442,-3.702042755,0.04442,4.750593824,
0.04444,-3.336612461,0.04444,4.750593824,
0.04446,-4.06747305,0.04446,5.116024118,
0.04448,-2.971182167,0.04448,4.38516353,
0.0445,-2.605751873,0.0445,4.38516353,
0.04452,-1.144030696,0.04452,4.019733236,
0.04454,-2.971182167,0.04454,4.38516353,
0.04456,-1.50946099,0.04456,4.38516353,
0.04458,-1.50946099,0.04458,4.38516353,
0.0446,-2.971182167,0.0446,4.750593824,
0.04462,2.510272246,0.04462,4.750593824,
0.04464,2.144841951,0.04464,4.750593824,
0.04466,-1.144030696,0.04466,4.38516353,
0.04468,1.048551069,0.04468,4.019733236,
0.0447,-0.778600402,0.0447,4.019733236,
0.04472,-0.778600402,0.04472,4.750593824,
0.04474,1.779411657,0.04474,4.38516353,
0.04476,3.241132834,0.04476,4.750593824,
0.04478,3.241132834,0.04478,4.38516353,
0.0448,3.606563128,0.0448,4.019733236,
0.04482,3.241132834,0.04482,4.38516353,
0.04484,2.87570254,0.04484,4.38516353,
0.04486,3.971993422,0.04486,4.750593824,
0.04488,3.971993422,0.04488,5.116024118,
0.0449,4.337423716,0.0449,4.38516353,
0.04492,3.971993422,0.04492,4.019733236,
0.04494,2.510272246,0.04494,4.38516353,
0.04496,3.241132834,0.04496,4.019733236,
0.04498,3.241132834,0.04498,3.654302942,
0.045,2.87570254,0.045,4.019733236,
0.04502,2.510272246,0.04502,4.38516353,
0.04504,1.413981363,0.04504,4.38516353,
0.04506,-0.4131701078,0.04506,4.019733236,
0.04508,1.048551069,0.04508,4.38516353,
0.0451,0.3176904805,0.0451,4.38516353,
0.04512,0.3176904805,0.04512,4.019733236,
0.04514,-0.4131701078,0.04514,4.38516353,
0.04516,-1.144030696,0.04516,4.750593824,
0.04518,-1.50946099,0.04518,4.019733236,
0.0452,-2.240321579,0.0452,4.019733236,
0.04522,-1.50946099,0.04522,4.38516353,
0.04524,-3.336612461,0.04524,3.654302942,
0.04526,-2.605751873,0.04526,4.019733236,
0.04528,-2.240321579,0.04528,4.38516353,
0.0453,-3.702042755,0.0453,4.019733236,
0.04532,-2.971182167,0.04532,4.38516353,
0.04534,-2.971182167,0.04534,4.38516353,
0.04536,-3.702042755,0.04536,3.654302942,
0.04538,-2.605751873,0.04538,4.38516353,
0.0454,-3.336612461,0.0454,4.38516353,
0.04542,-2.971182167,0.04542,3.654302942,
0.04544,-2.240321579,0.04544,4.019733236,
0.04546,-2.240321579,0.04546,4.019733236,
0.04548,-2.605751873,0.04548,3.654302942,
0.0455,-1.144030696,0.0455,4.38516353,
0.04552,-0.778600402,0.04552,4.38516353,
0.04554,-1.874891284,0.04554,3.654302942,
0.04556,-0.4131701078,0.04556,4.019733236,
0.04558,-0.04773981363,0.04558,4.019733236,
0.0456,0.3176904805,0.0456,3.654302942,
0.04562,0.6831207747,0.04562,4.38516353,
0.04564,1.779411657,0.04564,4.019733236,
0.04566,1.779411657,0.04566,3.654302942,
0.04568,2.144841951,0.04568,4.750593824,
0.0457,1.413981363,0.0457,5.116024118,
0.04572,2.510272246,0.04572,3.288872648,
0.04574,2.87570254,0.04574,4.019733236,
0.04576,2.510272246,0.04576,4.38516353,
0.04578,3.971993422,0.04578,4.019733236,
0.0458,2.510272246,0.0458,3.654302942,
0.04582,3.241132834,0.04582,4.38516353,
0.04584,3.606563128,0.04584,4.750593824,
0.04586,6.164575187,0.04586,4.38516353,
0.04588,3.241132834,0.04588,4.38516353,
0.0459,3.241132834,0.0459,3.654302942,
0.04592,2.87570254,0.04592,4.38516353,
0.04594,2.144841951,0.04594,4.38516353,
0.04596,2.144841951,0.04596,4.38516353,
0.04598,1.048551069,0.04598,4.019733236,
0.046,1.779411657,0.046,5.481454413,
0.04602,1.413981363,0.04602,4.019733236,
0.04604,-0.778600402,0.04604,4.38516353,
0.04606,-1.144030696,0.04606,4.38516353,
0.04608,-0.4131701078,0.04608,4.750593824,
0.0461,-0.4131701078,0.0461,4.750593824,
0.04612,-1.874891284,0.04612,4.750593824,
0.04614,-1.874891284,0.04614,4.38516353,
0.04616,-3.336612461,0.04616,4.750593824,
0.04618,-2.240321579,0.04618,4.019733236,
0.0462,-3.336612461,0.0462,4.019733236,
0.04622,-4.06747305,0.04622,4.38516353,
0.04624,-2.605751873,0.04624,4.38516353,
0.04626,-2.971182167,0.04626,4.38516353,
0.04628,-3.702042755,0.04628,4.019733236,
0.0463,-4.06747305,0.0463,5.116024118,
0.04632,-3.702042755,0.04632,4.750593824,
0.04634,-4.798333638,0.04634,4.38516353,
0.04636,-2.605751873,0.04636,4.019733236,
0.04638,-2.605751873,0.04638,4.38516353,
0.0464,-1.874891284,0.0464,2.923442353,
0.04642,-1.50946099,0.04642,3.654302942,
0.04644,-1.50946099,0.04644,4.750593824,
0.04646,-1.144030696,0.04646,4.38516353,
0.04648,-0.04773981363,0.04648,4.019733236,
0.0465,-0.4131701078,0.0465,6.577745295,
0.04652,-0.04773981363,0.04652,4.750593824,
0.04654,0.3176904805,0.04654,4.38516353,
0.04656,0.6831207747,0.04656,4.750593824,
0.04658,0.6831207747,0.04658,4.38516353,
0.0466,1.779411657,0.0466,3.288872648,
0.04662,1.413981363,0.04662,4.750593824,
0.04664,2.510272246,0.04664,4.38516353,
0.04666,4.702854011,0.04666,4.38516353,
0.04668,3.241132834,0.04668,5.481454413,
0.0467,3.241132834,0.0467,4.750593824,
0.04672,4.337423716,0.04672,4.38516353,
0.04674,2.87570254,0.04674,4.750593824,
0.04676,1.048551069,0.04676,4.38516353,
0.04678,3.606563128,0.04678,4.019733236,
0.0468,4.337423716,0.0468,5.846884707,
0.04682,3.606563128,0.04682,4.38516353,
0.04684,1.413981363,0.04684,4.019733236,
0.04686,2.510272246,0.04686,4.750593824,
0.04688,1.779411657,0.04688,4.38516353,
0.0469,1.413981363,0.0469,2.923442353,
0.04692,3.971993422,0.04692,4.38516353,
0.04694,0.3176904805,0.04694,4.019733236,
0.04696,1.048551069,0.04696,4.750593824,
0.04698,-0.04773981363,0.04698,4.38516353,
0.047,-1.144030696,0.047,4.750593824,
0.04702,-0.778600402,0.04702,4.019733236,
0.04704,-1.50946099,0.04704,4.750593824,
0.04706,-2.605751873,0.04706,4.38516353,
0.04708,-1.50946099,0.04708,4.019733236,
0.0471,-2.605751873,0.0471,3.654302942,
0.04712,-3.336612461,0.04712,4.38516353,
0.04714,-3.702042755,0.04714,4.019733236,
0.04716,-2.605751873,0.04716,4.38516353,
0.04718,-4.06747305,0.04718,4.750593824,
0.0472,-3.336612461,0.0472,3.654302942,
0.04722,-2.605751873,0.04722,4.38516353,
0.04724,-1.874891284,0.04724,4.750593824,
0.04726,-2.605751873,0.04726,4.38516353,
0.04728,-2.240321579,0.04728,4.38516353,
0.0473,-2.605751873,0.0473,4.38516353,
0.04732,-2.240321579,0.04732,4.750593824,
0.04734,-2.605751873,0.04734,4.019733236,
0.04736,-3.336612461,0.04736,4.38516353,
0.04738,-2.971182167,0.04738,4.38516353,
0.0474,-1.50946099,0.0474,4.019733236,
0.04742,-1.144030696,0.04742,4.750593824,
0.04744,-0.778600402,0.04744,4.38516353,
0.04746,0.6831207747,0.04746,4.750593824,
0.04748,0.6831207747,0.04748,4.38516353,
0.0475,2.144841951,0.0475,4.38516353,
0.04752,2.144841951,0.04752,5.116024118,
0.04754,2.510272246,0.04754,5.116024118,
0.04756,3.606563128,0.04756,4.38516353,
0.04758,3.241132834,0.04758,4.750593824,
0.0476,3.971993422,0.0476,4.38516353,
0.04762,2.87570254,0.04762,4.750593824,
0.04764,4.337423716,0.04764,4.750593824,
0.04766,3.241132834,0.04766,4.38516353,
0.04768,4.337423716,0.04768,4.38516353,
0.0477,3.971993422,0.0477,4.38516353,
0.04772,2.144841951,0.04772,4.750593824,
0.04774,4.337423716,0.04774,4.38516353,
0.04776,2.87570254,0.04776,4.750593824,
0.04778,2.510272246,0.04778,4.38516353,
0.0478,3.606563128,0.0478,4.38516353,
0.04782,2.144841951,0.04782,4.750593824,
0.04784,0.6831207747,0.04784,4.019733236,
0.04786,0.6831207747,0.04786,4.38516353,
0.04788,0.6831207747,0.04788,4.019733236,
0.0479,-0.778600402,0.0479,3.654302942,
0.04792,-0.04773981363,0.04792,4.38516353,
0.04794,-0.4131701078,0.04794,4.38516353,
0.04796,-0.4131701078,0.04796,3.654302942,
0.04798,0.3176904805,0.04798,4.019733236,
0.048,-1.874891284,0.048,4.019733236,
0.04802,-2.971182167,0.04802,4.019733236,
0.04804,-2.240321579,0.04804,4.38516353,
0.04806,-2.605751873,0.04806,4.38516353,
0.04808,-3.336612461,0.04808,3.654302942,
0.0481,-1.874891284,0.0481,4.750593824,
0.04812,-3.336612461,0.04812,4.38516353,
0.04814,-2.971182167,0.04814,3.654302942,
0.04816,-3.336612461,0.04816,4.38516353,
0.04818,-2.971182167,0.04818,3.654302942,
0.0482,-4.06747305,0.0482,3.654302942,
0.04822,-3.702042755,0.04822,4.019733236,
0.04824,-2.971182167,0.04824,5.116024118,
0.04826,-2.605751873,0.04826,3.654302942,
0.04828,-1.50946099,0.04828,4.750593824,
0.0483,-1.874891284,0.0483,4.38516353,
0.04832,-1.50946099,0.04832,4.019733236,
0.04834,-1.874891284,0.04834,4.38516353,
0.04836,0.3176904805,0.04836,4.38516353,
0.04838,-0.04773981363,0.04838,4.019733236,
0.0484,1.779411657,0.0484,3.654302942,
0.04842,3.606563128,0.04842,4.38516353,
0.04844,2.87570254,0.04844,4.019733236,
0.04846,2.87570254,0.04846,4.38516353,
0.04848,2.144841951,0.04848,4.019733236,
0.0485,1.779411657,0.0485,4.38516353,
0.04852,3.971993422,0.04852,4.750593824,
0.04854,3.606563128,0.04854,4.38516353,
0.04856,4.337423716,0.04856,3.654302942,
0.04858,3.606563128,0.04858,4.019733236,
0.0486,4.702854011,0.0486,4.38516353,
0.04862,3.241132834,0.04862,4.019733236,
0.04864,4.337423716,0.04864,4.750593824,
0.04866,3.606563128,0.04866,3.654302942,
0.04868,2.87570254,0.04868,4.019733236,
0.0487,3.606563128,0.0487,4.38516353,
0.04872,2.510272246,0.04872,3.654302942,
0.04874,3.606563128,0.04874,4.019733236,
0.04876,2.144841951,0.04876,4.019733236,
0.04878,2.144841951,0.04878,4.019733236,
0.0488,-0.04773981363,0.0488,3.654302942,
0.04882,0.6831207747,0.04882,4.750593824,
0.04884,-0.4131701078,0.04884,3.654302942,
0.04886,-1.144030696,0.04886,3.654302942,
0.04888,1.413981363,0.04888,4.019733236,
0.0489,-0.778600402,0.0489,3.654302942,
0.04892,-2.605751873,0.04892,4.019733236,
0.04894,-2.240321579,0.04894,4.38516353,
0.04896,-2.971182167,0.04896,4.019733236,
0.04898,-1.144030696,0.04898,4.38516353,
0.049,-2.971182167,0.049,4.019733236,
0.04902,-3.336612461,0.04902,3.654302942,
0.04904,-3.702042755,0.04904,3.654302942,
0.04906,-2.605751873,0.04906,4.38516353,
0.04908,-2.605751873,0.04908,4.38516353,
0.0491,-2.605751873,0.0491,4.38516353,
0.04912,-1.874891284,0.04912,5.116024118,
0.04914,-2.605751873,0.04914,4.38516353,
0.04916,-2.971182167,0.04916,3.654302942,
0.04918,-1.50946099,0.04918,4.750593824,
0.0492,-2.240321579,0.0492,4.38516353,
0.04922,-4.432903344,0.04922,4.38516353,
0.04924,-1.50946099,0.04924,4.38516353,
0.04926,-1.50946099,0.04926,4.019733236,
0.04928,-0.778600402,0.04928,3.654302942,
0.0493,-0.4131701078,0.0493,4.019733236,
0.04932,1.413981363,0.04932,4.019733236,
0.04934,0.6831207747,0.04934,4.019733236,
0.04936,1.413981363,0.04936,4.38516353,
0.04938,3.606563128,0.04938,3.654302942,
0.0494,2.510272246,0.0494,3.654302942,
0.04942,3.241132834,0.04942,3.288872648,
0.04944,3.241132834,0.04944,4.38516353,
0.04946,3.241132834,0.04946,3.654302942,
0.04948,3.606563128,0.04948,4.38516353,
0.0495,3.606563128,0.0495,4.019733236,
0.04952,3.241132834,0.04952,4.019733236,
0.04954,3.606563128,0.04954,4.019733236,
0.04956,4.337423716,0.04956,3.288872648,
0.04958,3.606563128,0.04958,3.654302942,
0.0496,3.971993422,0.0496,4.019733236,
0.04962,2.87570254,0.04962,5.116024118,
0.04964,2.87570254,0.04964,3.654302942,
0.04966,3.241132834,0.04966,4.019733236,
0.04968,1.779411657,0.04968,4.38516353,
0.0497,1.779411657,0.0497,4.019733236,
0.04972,2.87570254,0.04972,4.750593824,
0.04974,1.779411657,0.04974,4.019733236,
0.04976,-0.04773981363,0.04976,4.019733236,
0.04978,-0.778600402,0.04978,4.38516353,
0.0498,-0.4131701078,0.0498,4.38516353,
0.04982,-1.874891284,0.04982,4.38516353,
0.04984,-1.50946099,0.04984,4.38516353,
0.04986,-2.605751873,0.04986,4.019733236,
0.04988,-3.702042755,0.04988,4.750593824,
0.0499,-2.971182167,0.0499,4.38516353,
0.04992,-2.240321579,0.04992,3.288872648,
0.04994,-3.336612461,0.04994,4.750593824,
0.04996,-3.702042755,0.04996,4.38516353,
0.04998,-4.06747305,0.04998,4.019733236,
0.05,-2.605751873,0.05,4.38516353,
0.05002,-2.971182167,0.05002,5.116024118,
0.05004,-4.06747305,0.05004,4.019733236,
0.05006,-3.702042755,0.05006,4.750593824,
0.05008,-3.702042755,0.05008,4.38516353,
0.0501,-3.702042755,0.0501,4.38516353,
0.05012,-2.605751873,0.05012,3.654302942,
0.05014,-0.04773981363,0.05014,4.38516353,
0.05016,-2.971182167,0.05016,4.019733236,
0.05018,-1.50946099,0.05018,5.116024118,
0.0502,-1.144030696,0.0502,4.019733236,
0.05022,-0.778600402,0.05022,3.288872648,
0.05024,-1.50946099,0.05024,4.38516353,
0.05026,0.6831207747,0.05026,4.019733236,
0.05028,0.3176904805,0.05028,4.019733236,
0.0503,2.144841951,0.0503,4.38516353,
0.05032,2.510272246,0.05032,4.750593824,
0.05034,3.241132834,0.05034,4.019733236,
0.05036,2.144841951,0.05036,4.750593824,
0.05038,5.068284305,0.05038,4.38516353,
0.0504,3.606563128,0.0504,4.019733236,
0.05042,3.971993422,0.05042,4.38516353,
0.05044,4.337423716,0.05044,4.019733236,
0.05046,2.510272246,0.05046,4.019733236,
0.05048,4.337423716,0.05048,5.116024118,
0.0505,2.87570254,0.0505,4.019733236,
0.05052,4.702854011,0.05052,3.654302942,
0.05054,1.048551069,0.05054,4.750593824,
0.05056,2.510272246,0.05056,4.019733236,
0.05058,2.87570254,0.05058,4.38516353,
0.0506,2.87570254,0.0506,5.116024118,
0.05062,1.048551069,0.05062,4.750593824,
0.05064,1.413981363,0.05064,4.38516353,
0.05066,1.048551069,0.05066,4.750593824,
0.05068,-0.778600402,0.05068,4.019733236,
0.0507,-1.50946099,0.0507,4.38516353,
0.05072,-0.778600402,0.05072,5.116024118,
0.05074,-0.04773981363,0.05074,4.750593824,
0.05076,-1.874891284,0.05076,4.019733236,
0.05078,-1.50946099,0.05078,4.750593824,
0.0508,-2.605751873,0.0508,4.38516353,
0.05082,-1.144030696,0.05082,5.116024118,
0.05084,-3.336612461,0.05084,4.38516353,
0.05086,-1.874891284,0.05086,4.38516353,
0.05088,-3.336612461,0.05088,4.38516353,
0.0509,-3.702042755,0.0509,4.750593824,
0.05092,-2.971182167,0.05092,4.750593824,
0.05094,-1.874891284,0.05094,4.38516353,
0.05096,-3.702042755,0.05096,4.750593824,
0.05098,-3.336612461,0.05098,3.654302942,
0.051,-3.702042755,0.051,4.38516353,
0.05102,-1.50946099,0.05102,4.38516353,
0.05104,-2.971182167,0.05104,4.38516353,
0.05106,-2.971182167,0.05106,4.38516353,
0.05108,-2.605751873,0.05108,4.38516353,
0.0511,-2.605751873,0.0511,4.38516353,
0.05112,-0.04773981363,0.05112,4.38516353,
0.05114,-2.971182167,0.05114,4.750593824,
0.05116,1.779411657,0.05116,4.38516353,
0.05118,0.6831207747,0.05118,4.38516353,
0.0512,0.6831207747,0.0512,4.38516353,
0.05122,0.6831207747,0.05122,4.019733236,
0.05124,1.048551069,0.05124,4.019733236,
0.05126,2.144841951,0.05126,4.750593824,
0.05128,2.87570254,0.05128,4.019733236,
0.0513,3.241132834,0.0513,4.38516353,
0.05132,2.144841951,0.05132,4.750593824,
0.05134,3.971993422,0.05134,4.38516353,
0.05136,2.87570254,0.05136,4.38516353,
0.05138,3.971993422,0.05138,4.750593824,
0.0514,3.606563128,0.0514,4.019733236,
0.05142,3.606563128,0.05142,3.654302942,
0.05144,4.337423716,0.05144,4.750593824,
0.05146,2.87570254,0.05146,4.019733236,
0.05148,3.971993422,0.05148,4.38516353,
0.0515,2.87570254,0.0515,4.750593824,
0.05152,2.510272246,0.05152,4.019733236,
0.05154,0.6831207747,0.05154,4.019733236,
0.05156,2.510272246,0.05156,4.750593824,
0.05158,-0.778600402,0.05158,4.38516353,
0.0516,0.6831207747,0.0516,4.38516353,
0.05162,0.6831207747,0.05162,4.750593824,
0.05164,-0.4131701078,0.05164,4.38516353,
0.05166,-0.778600402,0.05166,4.38516353,
0.05168,-2.605751873,0.05168,4.019733236,
0.0517,-1.50946099,0.0517,4.38516353,
0.05172,-1.144030696,0.05172,4.38516353,
0.05174,-2.605751873,0.05174,4.750593824,
0.05176,-2.240321579,0.05176,4.38516353,
0.05178,-3.336612461,0.05178,4.38516353,
0.0518,-3.336612461,0.0518,4.38516353,
0.05182,-4.432903344,0.05182,4.019733236,
0.05184,-2.971182167,0.05184,4.750593824,
0.05186,-3.702042755,0.05186,4.38516353,
0.05188,-3.336612461,0.05188,5.116024118,
0.0519,-4.06747305,0.0519,4.38516353,
0.05192,-4.06747305,0.05192,4.38516353,
0.05194,-1.144030696,0.05194,4.38516353,
0.05196,-1.874891284,0.05196,4.38516353,
0.05198,-2.240321579,0.05198,4.38516353,
0.052,-1.874891284,0.052,4.019733236,
0.05202,-1.144030696,0.05202,4.750593824,
0.05204,-1.144030696,0.05204,4.38516353,
0.05206,-0.778600402,0.05206,4.019733236,
0.05208,-1.144030696,0.05208,4.019733236,
0.0521,-3.336612461,0.0521,5.116024118,
0.05212,0.3176904805,0.05212,4.019733236,
0.05214,-0.4131701078,0.05214,4.38516353,
0.05216,1.413981363,0.05216,4.38516353,
0.05218,1.779411657,0.05218,4.38516353,
0.0522,1.413981363,0.0522,4.750593824,
0.05222,2.144841951,0.05222,4.019733236,
0.05224,2.87570254,0.05224,4.38516353,
0.05226,2.144841951,0.05226,4.38516353,
0.05228,1.779411657,0.05228,4.38516353,
0.0523,3.606563128,0.0523,4.38516353,
0.05232,3.971993422,0.05232,4.019733236,
0.05234,3.971993422,0.05234,4.38516353,
0.05236,2.510272246,0.05236,4.019733236,
0.05238,3.971993422,0.05238,4.019733236,
0.0524,3.241132834,0.0524,4.750593824,
0.05242,3.241132834,0.05242,4.019733236,
0.05244,4.337423716,0.05244,4.019733236,
0.05246,2.144841951,0.05246,4.38516353,
0.05248,2.510272246,0.05248,4.38516353,
0.0525,2.510272246,0.0525,4.750593824,
0.05252,-0.04773981363,0.05252,4.38516353,
0.05254,1.779411657,0.05254,3.288872648,
0.05256,0.3176904805,0.05256,4.750593824,
0.05258,-0.04773981363,0.05258,4.38516353,
0.0526,-0.04773981363,0.0526,4.38516353,
0.05262,-0.778600402,0.05262,4.750593824,
0.05264,-2.240321579,0.05264,4.750593824,
0.05266,-1.50946099,0.05266,4.38516353,
0.05268,-2.240321579,0.05268,4.750593824,
0.0527,-3.702042755,0.0527,4.750593824,
0.05272,-4.432903344,0.05272,4.019733236,
0.05274,-4.432903344,0.05274,4.750593824,
0.05276,-2.971182167,0.05276,4.750593824,
0.05278,-3.336612461,0.05278,4.019733236,
0.0528,-3.336612461,0.0528,4.750593824,
0.05282,-4.432903344,0.05282,4.019733236,
0.05284,-4.798333638,0.05284,4.019733236,
0.05286,-2.240321579,0.05286,4.750593824,
0.05288,-3.702042755,0.05288,4.019733236,
0.0529,-2.240321579,0.0529,4.38516353,
0.05292,-2.605751873,0.05292,4.750593824,
0.05294,-2.240321579,0.05294,4.019733236,
0.05296,-1.144030696,0.05296,4.38516353,
0.05298,-1.50946099,0.05298,4.38516353,
0.053,-1.50946099,0.053,4.38516353,
0.05302,-0.4131701078,0.05302,4.38516353,
0.05304,0.3176904805,0.05304,5.846884707,
0.05306,0.3176904805,0.05306,4.38516353,
0.05308,0.6831207747,0.05308,4.019733236,
0.0531,1.779411657,0.0531,4.38516353,
0.05312,1.779411657,0.05312,4.38516353,
0.05314,2.510272246,0.05314,3.654302942,
0.05316,2.510272246,0.05316,4.38516353,
0.05318,2.144841951,0.05318,4.750593824,
0.0532,3.971993422,0.0532,4.38516353,
0.05322,4.337423716,0.05322,4.750593824,
0.05324,3.241132834,0.05324,2.923442353,
0.05326,4.337423716,0.05326,4.019733236,
0.05328,3.241132834,0.05328,4.38516353,
0.0533,3.606563128,0.0533,4.750593824,
0.05332,2.87570254,0.05332,4.019733236,
0.05334,3.241132834,0.05334,5.116024118,
0.05336,2.87570254,0.05336,4.38516353,
0.05338,3.241132834,0.05338,3.654302942,
0.0534,2.510272246,0.0534,4.750593824,
0.05342,2.144841951,0.05342,4.38516353,
0.05344,2.144841951,0.05344,3.654302942,
0.05346,1.413981363,0.05346,4.38516353,
0.05348,-0.04773981363,0.05348,4.38516353,
0.0535,0.3176904805,0.0535,4.38516353,
0.05352,-0.4131701078,0.05352,4.38516353,
0.05354,-0.4131701078,0.05354,3.654302942,
0.05356,-1.50946099,0.05356,4.38516353,
0.05358,-1.874891284,0.05358,4.019733236,
0.0536,-1.50946099,0.0536,4.38516353,
0.05362,-0.778600402,0.05362,4.019733236,
0.05364,-2.971182167,0.05364,5.116024118,
0.05366,-2.240321579,0.05366,4.38516353,
0.05368,-1.50946099,0.05368,4.38516353,
0.0537,-3.336612461,0.0537,3.654302942,
0.05372,-2.971182167,0.05372,4.38516353,
0.05374,-2.605751873,0.05374,4.38516353,
0.05376,-4.798333638,0.05376,4.019733236,
0.05378,-3.336612461,0.05378,4.38516353,
0.0538,-2.971182167,0.0538,4.38516353,
0.05382,-5.529194226,0.05382,3.654302942,
0.05384,-3.336612461,0.05384,3.654302942,
0.05386,-1.50946099,0.05386,4.38516353,
0.05388,-1.874891284,0.05388,4.019733236,
0.0539,-0.778600402,0.0539,4.750593824,
0.05392,-0.778600402,0.05392,4.38516353,
0.05394,-0.04773981363,0.05394,4.750593824,
0.05396,-1.874891284,0.05396,4.38516353,
0.05398,0.3176904805,0.05398,4.38516353,
0.054,1.413981363,0.054,3.654302942,
0.05402,1.048551069,0.05402,4.750593824,
0.05404,2.510272246,0.05404,5.481454413,
0.05406,1.413981363,0.05406,4.019733236,
0.05408,2.87570254,0.05408,4.38516353,
0.0541,3.241132834,0.0541,4.019733236,
0.05412,2.144841951,0.05412,4.019733236,
0.05414,3.241132834,0.05414,4.019733236,
0.05416,3.241132834,0.05416,4.38516353,
0.05418,4.702854011,0.05418,4.019733236,
0.0542,3.606563128,0.0542,4.38516353,
0.05422,3.971993422,0.05422,4.38516353,
0.05424,3.241132834,0.05424,3.288872648,
0.05426,3.971993422,0.05426,4.019733236,
0.05428,4.702854011,0.05428,4.019733236,
0.0543,0.6831207747,0.0543,4.019733236,
0.05432,2.510272246,0.05432,4.750593824,
0.05434,2.510272246,0.05434,4.750593824,
0.05436,1.413981363,0.05436,4.019733236,
0.05438,1.779411657,0.05438,4.38516353,
0.0544,0.3176904805,0.0544,4.38516353,
0.05442,-0.4131701078,0.05442,4.019733236,
0.05444,-2.240321579,0.05444,5.116024118,
0.05446,-0.04773981363,0.05446,4.38516353,
0.05448,-5.163763932,0.05448,4.019733236,
0.0545,-1.144030696,0.0545,4.019733236,
0.05452,-0.778600402,0.05452,4.750593824,
0.05454,-1.874891284,0.05454,4.38516353,
0.05456,-2.971182167,0.05456,4.38516353,
0.05458,-4.06747305,0.05458,4.38516353,
0.0546,-2.971182167,0.0546,3.654302942,
0.05462,-2.605751873,0.05462,4.38516353,
0.05464,-2.605751873,0.05464,4.019733236,
0.05466,-3.702042755,0.05466,4.38516353,
0.05468,-2.971182167,0.05468,4.750593824,
0.0547,-2.971182167,0.0547,3.654302942,
0.05472,-4.06747305,0.05472,4.019733236,
0.05474,-2.240321579,0.05474,4.019733236,
0.05476,-1.144030696,0.05476,4.019733236,
0.05478,-3.702042755,0.05478,4.019733236,
0.0548,-2.971182167,0.0548,4.38516353,
0.05482,0.3176904805,0.05482,4.38516353,
0.05484,-1.50946099,0.05484,4.38516353,
0.05486,-0.04773981363,0.05486,4.38516353,
0.05488,-0.04773981363,0.05488,3.654302942,
0.0549,0.3176904805,0.0549,4.019733236,
0.05492,0.3176904805,0.05492,4.38516353,
0.05494,0.3176904805,0.05494,4.38516353,
0.05496,-1.144030696,0.05496,3.654302942,
0.05498,1.779411657,0.05498,4.019733236,
0.055,2.510272246,0.055,4.38516353,
0.05502,2.144841951,0.05502,3.654302942,
0.05504,3.241132834,0.05504,3.654302942,
0.05506,3.606563128,0.05506,4.38516353,
0.05508,2.510272246,0.05508,4.019733236,
0.0551,2.87570254,0.0551,4.38516353,
0.05512,3.606563128,0.05512,4.019733236,
0.05514,3.971993422,0.05514,4.019733236,
0.05516,4.702854011,0.05516,4.38516353,
0.05518,4.337423716,0.05518,3.654302942,
0.0552,2.87570254,0.0552,4.019733236,
0.05522,4.337423716,0.05522,4.38516353,
0.05524,3.606563128,0.05524,4.38516353,
0.05526,2.144841951,0.05526,4.38516353,
0.05528,2.144841951,0.05528,4.38516353,
0.0553,2.144841951,0.0553,4.019733236,
0.05532,0.3176904805,0.05532,4.019733236,
0.05534,2.87570254,0.05534,4.019733236,
0.05536,1.048551069,0.05536,4.38516353,
0.05538,-1.144030696,0.05538,3.654302942,
0.0554,-0.778600402,0.0554,4.38516353,
0.05542,1.048551069,0.05542,4.019733236,
0.05544,-1.50946099,0.05544,4.019733236,
0.05546,-2.240321579,0.05546,4.019733236,
0.05548,-4.432903344,0.05548,4.38516353,
0.0555,-2.605751873,0.0555,4.750593824,
0.05552,-2.240321579,0.05552,4.38516353,
0.05554,-2.971182167,0.05554,4.019733236,
0.05556,-2.971182167,0.05556,4.750593824,
0.05558,-5.89462452,0.05558,4.019733236,
0.0556,-3.336612461,0.0556,3.654302942,
0.05562,-3.336612461,0.05562,4.750593824,
0.05564,-3.702042755,0.05564,4.019733236,
0.05566,-5.529194226,0.05566,3.288872648,
0.05568,-2.971182167,0.05568,5.116024118,
0.0557,-3.336612461,0.0557,4.38516353,
0.05572,-2.971182167,0.05572,4.019733236,
0.05574,-2.605751873,0.05574,4.750593824,
0.05576,-3.336612461,0.05576,4.019733236,
0.05578,-2.240321579,0.05578,3.654302942,
0.0558,-0.4131701078,0.0558,4.38516353,
0.05582,-0.778600402,0.05582,4.019733236,
0.05584,0.6831207747,0.05584,3.654302942,
0.05586,1.048551069,0.05586,4.38516353,
0.05588,0.6831207747,0.05588,4.38516353,
0.0559,1.413981363,0.0559,4.019733236,
0.05592,2.144841951,0.05592,4.750593824,
0.05594,1.413981363,0.05594,5.116024118,
0.05596,2.510272246,0.05596,4.019733236,
0.05598,2.144841951,0.05598,4.38516353,
0.056,1.413981363,0.056,4.019733236,
0.05602,3.241132834,0.05602,3.654302942,
0.05604,5.799144893,0.05604,4.019733236,
0.05606,3.606563128,0.05606,4.38516353,
0.05608,3.606563128,0.05608,4.019733236,
0.0561,2.87570254,0.0561,3.654302942,
0.05612,4.702854011,0.05612,4.38516353,
0.05614,4.337423716,0.05614,4.750593824,
0.05616,2.87570254,0.05616,4.38516353,
0.05618,2.87570254,0.05618,4.38516353,
0.0562,1.779411657,0.0562,4.019733236,
0.05622,2.87570254,0.05622,4.38516353,
0.05624,2.510272246,0.05624,4.38516353,
0.05626,3.241132834,0.05626,4.019733236,
0.05628,0.6831207747,0.05628,4.38516353,
0.0563,1.048551069,0.0563,4.019733236,
0.05632,-0.4131701078,0.05632,4.38516353,
0.05634,-0.778600402,0.05634,4.38516353,
0.05636,-2.240321579,0.05636,4.750593824,
0.05638,-1.874891284,0.05638,4.38516353,
0.0564,-1.50946099,0.0564,4.38516353,
0.05642,-2.240321579,0.05642,4.38516353,
0.05644,-2.240321579,0.05644,4.38516353,
0.05646,-2.605751873,0.05646,4.38516353,
0.05648,-3.336612461,0.05648,3.654302942,
0.0565,-2.971182167,0.0565,4.019733236,
0.05652,-3.702042755,0.05652,4.38516353,
0.05654,-4.798333638,0.05654,4.019733236,
0.05656,-3.702042755,0.05656,4.750593824,
0.05658,-3.336612461,0.05658,4.019733236,
0.0566,-3.336612461,0.0566,3.654302942,
0.05662,-4.06747305,0.05662,4.019733236,
0.05664,-2.240321579,0.05664,4.38516353,
0.05666,-2.240321579,0.05666,2.923442353,
0.05668,-2.605751873,0.05668,4.38516353,
0.0567,-1.144030696,0.0567,4.38516353,
0.05672,-1.144030696,0.05672,4.019733236,
0.05674,-1.874891284,0.05674,4.019733236,
0.05676,-1.874891284,0.05676,4.38516353,
0.05678,0.3176904805,0.05678,3.654302942,
0.0568,1.048551069,0.0568,4.019733236,
0.05682,-1.144030696,0.05682,4.38516353,
0.05684,1.779411657,0.05684,3.654302942,
0.05686,2.87570254,0.05686,5.116024118,
0.05688,2.510272246,0.05688,4.019733236,
0.0569,2.87570254,0.0569,3.654302942,
0.05692,1.779411657,0.05692,4.38516353,
0.05694,5.433714599,0.05694,4.38516353,
0.05696,3.241132834,0.05696,4.019733236,
0.05698,3.241132834,0.05698,4.750593824,
0.057,3.241132834,0.057,4.019733236,
0.05702,3.606563128,0.05702,4.019733236,
0.05704,3.606563128,0.05704,4.019733236,
0.05706,3.241132834,0.05706,3.654302942,
0.05708,3.606563128,0.05708,3.654302942,
0.0571,3.606563128,0.0571,4.019733236,
0.05712,2.87570254,0.05712,4.38516353,
0.05714,2.87570254,0.05714,3.654302942,
0.05716,2.510272246,0.05716,3.288872648,
0.05718,1.779411657,0.05718,4.38516353,
0.0572,1.413981363,0.0572,3.654302942,
0.05722,0.3176904805,0.05722,4.38516353,
0.05724,-0.04773981363,0.05724,3.654302942,
0.05726,-0.778600402,0.05726,4.750593824,
0.05728,-1.144030696,0.05728,4.38516353,
0.0573,-1.144030696,0.0573,4.38516353,
0.05732,-1.874891284,0.05732,4.019733236,
0.05734,-1.50946099,0.05734,4.38516353,
0.05736,-1.874891284,0.05736,5.116024118,
0.05738,-3.336612461,0.05738,4.019733236,
0.0574,-2.971182167,0.0574,4.019733236,
0.05742,0.6831207747,0.05742,4.019733236,
0.05744,-3.702042755,0.05744,4.019733236,
0.05746,-1.144030696,0.05746,4.019733236,
0.05748,-2.240321579,0.05748,4.019733236,
0.0575,-3.702042755,0.0575,3.654302942,
0.05752,-3.702042755,0.05752,4.019733236,
0.05754,-1.50946099,0.05754,4.019733236,
0.05756,-2.605751873,0.05756,2.923442353,
0.05758,-2.240321579,0.05758,4.019733236,
0.0576,-2.240321579,0.0576,4.019733236,
0.05762,-2.240321579,0.05762,4.019733236,
0.05764,-1.144030696,0.05764,4.38516353,
0.05766,0.3176904805,0.05766,4.750593824,
0.05768,-0.778600402,0.05768,4.38516353,
0.0577,-0.04773981363,0.0577,4.38516353,
0.05772,0.6831207747,0.05772,4.38516353,
0.05774,0.3176904805,0.05774,4.38516353,
0.05776,2.144841951,0.05776,4.750593824,
0.05778,3.241132834,0.05778,4.38516353,
0.0578,1.413981363,0.0578,4.019733236,
0.05782,6.164575187,0.05782,4.750593824,
0.05784,3.241132834,0.05784,4.019733236,
0.05786,3.241132834,0.05786,2.923442353,
0.05788,2.87570254,0.05788,4.019733236,
0.0579,3.971993422,0.0579,4.38516353,
0.05792,4.337423716,0.05792,4.019733236,
0.05794,3.241132834,0.05794,4.38516353,
0.05796,3.241132834,0.05796,3.654302942,
0.05798,1.779411657,0.05798,4.38516353,
0.058,3.606563128,0.058,5.116024118,
0.05802,3.241132834,0.05802,4.019733236,
0.05804,1.779411657,0.05804,4.019733236,
0.05806,2.510272246,0.05806,5.116024118,
0.05808,3.606563128,0.05808,4.019733236,
0.0581,1.779411657,0.0581,3.654302942,
0.05812,1.779411657,0.05812,4.019733236,
0.05814,-0.4131701078,0.05814,4.38516353,
0.05816,0.3176904805,0.05816,4.019733236,
0.05818,1.048551069,0.05818,4.38516353,
0.0582,-0.04773981363,0.0582,4.019733236,
0.05822,-1.50946099,0.05822,3.654302942,
0.05824,-0.4131701078,0.05824,4.38516353,
0.05826,-1.874891284,0.05826,3.654302942,
0.05828,-2.971182167,0.05828,4.019733236,
0.0583,-1.874891284,0.0583,4.38516353,
0.05832,-3.336612461,0.05832,3.654302942,
0.05834,-4.06747305,0.05834,4.750593824,
0.05836,-4.06747305,0.05836,5.116024118,
0.05838,-4.06747305,0.05838,4.38516353,
0.0584,-3.336612461,0.0584,4.750593824,
0.05842,-3.336612461,0.05842,4.38516353,
0.05844,-4.06747305,0.05844,4.38516353,
0.05846,-2.240321579,0.05846,5.116024118,
0.05848,-2.605751873,0.05848,4.019733236,
0.0585,-2.605751873,0.0585,4.38516353,
0.05852,-2.605751873,0.05852,4.750593824,
0.05854,-2.971182167,0.05854,5.481454413,
0.05856,0.3176904805,0.05856,4.019733236,
0.05858,-1.144030696,0.05858,5.116024118,
0.0586,-1.50946099,0.0586,4.750593824,
0.05862,-2.971182167,0.05862,4.019733236,
0.05864,2.144841951,0.05864,4.750593824,
0.05866,-1.50946099,0.05866,4.38516353,
0.05868,2.510272246,0.05868,4.019733236,
0.0587,2.144841951,0.0587,4.750593824,
0.05872,2.510272246,0.05872,4.38516353,
0.05874,1.779411657,0.05874,4.019733236,
0.05876,2.144841951,0.05876,4.750593824,
0.05878,1.413981363,0.05878,4.38516353,
0.0588,4.702854011,0.0588,4.019733236,
0.05882,3.971993422,0.05882,4.750593824,
0.05884,2.510272246,0.05884,4.019733236,
0.05886,3.606563128,0.05886,4.019733236,
0.05888,2.144841951,0.05888,4.019733236,
