"A0_accX_x","A0_accX_y","A1_rmsX_x","A1_rmsX_y"
0,-2.279576101,0,6.943175589,
2e-05,-2.279576101,2e-05,6.577745295,
4e-05,-3.375866983,4e-05,6.212315001,
6e-05,-2.279576101,6e-05,5.846884707,
8e-05,-3.010436689,8e-05,6.212315001,
0.0001,-3.741297278,0.0001,6.577745295,
0.00012,-4.472157866,0.00012,6.943175589,
0.00014,-5.203018454,0.00014,6.212315001,
0.00016,-3.741297278,0.00016,6.943175589,
0.00018,-2.645006395,0.00018,6.212315001,
0.0002,-3.375866983,0.0002,6.577745295,
0.00022,-4.106727572,0.00022,6.943175589,
0.00024,-2.645006395,0.00024,6.212315001,
0.00026,-2.279576101,0.00026,6.212315001,
0.00028,-1.548715513,0.00028,6.943175589,
0.0003,-3.010436689,0.0003,6.577745295,
0.00032,-2.645006395,0.00032,6.212315001,
0.00034,-0.45242463,0.00034,6.577745295,
0.00036,-1.548715513,0.00036,6.212315001,
0.00038,-0.8178549242,0.00038,5.846884707,
0.0004,0.6438662525,0.0004,7.308605883,
0.00042,0.2784359583,0.00042,6.212315001,
0.00044,1.374726841,0.00044,6.212315001,
0.00046,2.836448018,0.00046,6.943175589,
0.00048,2.836448018,0.00048,6.212315001,
0.0005,2.105587429,0.0005,6.577745295,
0.00052,3.201878312,0.00052,6.943175589,
0.00054,2.471017723,0.00054,5.846884707,
0.00056,3.201878312,0.00056,6.577745295,
0.00058,3.9327389,0.00058,6.943175589,
0.0006,3.201878312,0.0006,6.577745295,
0.00062,3.567308606,0.00062,6.212315001,
0.00064,5.029029783,0.00064,6.577745295,
0.00066,3.201878312,0.00066,6.212315001,
0.00068,3.567308606,0.00068,6.212315001,
0.0007,2.471017723,0.0007,6.943175589,
0.00072,2.471017723,0.00072,6.212315001,
0.00074,2.471017723,0.00074,6.577745295,
0.00076,2.471017723,0.00076,6.943175589,
0.00078,1.009296547,0.00078,6.577745295,
0.0008,1.009296547,0.0008,6.212315001,
0.00082,0.2784359583,0.00082,6.943175589,
0.00084,-0.08699433583,0.00084,6.943175589,
0.00086,-0.45242463,0.00086,6.577745295,
0.00088,-0.45242463,0.00088,6.577745295,
0.0009,-1.548715513,0.0009,6.212315001,
0.00092,-2.279576101,0.00092,6.212315001,
0.00094,-1.914145807,0.00094,6.577745295,
0.00096,-3.010436689,0.00096,6.577745295,
0.00098,-3.010436689,0.00098,6.212315001,
0.001,-3.375866983,0.001,6.943175589,
0.00102,-3.375866983,0.00102,6.577745295,
0.00104,-4.106727572,0.00104,5.846884707,
0.00106,-3.010436689,0.00106,6.212315001,
0.00108,-4.106727572,0.00108,6.577745295,
0.0011,-3.741297278,0.0011,6.212315001,
0.00112,-3.741297278,0.00112,7.308605883,
0.00114,-4.106727572,0.00114,6.943175589,
0.00116,-2.645006395,0.00116,6.577745295,
0.00118,-3.010436689,0.00118,6.943175589,
0.0012,-3.010436689,0.0012,6.212315001,
0.00122,-2.279576101,0.00122,5.846884707,
0.00124,-1.914145807,0.00124,6.943175589,
0.00126,-1.914145807,0.00126,6.577745295,
0.00128,0.2784359583,0.00128,6.212315001,
0.0013,-0.45242463,0.0013,6.943175589,
0.00132,-0.45242463,0.00132,6.212315001,
0.00134,-0.08699433583,0.00134,5.116024118,
0.00136,1.374726841,0.00136,6.943175589,
0.00138,1.009296547,0.00138,6.212315001,
0.0014,1.374726841,0.0014,6.212315001,
0.00142,2.836448018,0.00142,6.943175589,
0.00144,3.201878312,0.00144,6.943175589,
0.00146,2.836448018,0.00146,6.212315001,
0.00148,3.201878312,0.00148,6.577745295,
0.0015,3.9327389,0.0015,6.577745295,
0.00152,3.201878312,0.00152,6.577745295,
0.00154,4.298169194,0.00154,7.308605883,
0.00156,3.201878312,0.00156,6.943175589,
0.00158,1.009296547,0.00158,6.212315001,
0.0016,2.471017723,0.0016,7.308605883,
0.00162,2.471017723,0.00162,6.943175589,
0.00164,2.836448018,0.00164,5.481454413,
0.00166,2.471017723,0.00166,6.943175589,
0.00168,1.740157135,0.00168,6.577745295,
0.0017,3.201878312,0.0017,6.212315001,
0.00172,2.105587429,0.00172,6.577745295,
0.00174,0.6438662525,0.00174,5.846884707,
0.00176,-0.8178549242,0.00176,6.212315001,
0.00178,0.2784359583,0.00178,6.943175589,
0.0018,-2.279576101,0.0018,6.577745295,
0.00182,-1.183285218,0.00182,6.212315001,
0.00184,-0.45242463,0.00184,6.212315001,
0.00186,-0.8178549242,0.00186,6.577745295,
0.00188,-1.914145807,0.00188,6.212315001,
0.0019,-1.914145807,0.0019,6.577745295,
0.00192,-4.106727572,0.00192,6.577745295,
0.00194,-3.375866983,0.00194,5.846884707,
0.00196,-3.741297278,0.00196,6.943175589,
0.00198,-4.472157866,0.00198,6.212315001,
0.002,-4.106727572,0.002,6.577745295,
0.00202,-3.010436689,0.00202,6.943175589,
0.00204,-3.741297278,0.00204,7.308605883,
0.00206,-3.741297278,0.00206,6.212315001,
0.00208,-4.106727572,0.00208,6.577745295,
0.0021,-2.645006395,0.0021,6.577745295,
0.00212,-2.645006395,0.00212,6.577745295,
0.00214,-4.106727572,0.00214,7.674036178,
0.00216,-2.279576101,0.00216,6.943175589,
0.00218,-2.279576101,0.00218,6.577745295,
0.0022,-1.548715513,0.0022,6.943175589,
0.00222,-1.548715513,0.00222,6.577745295,
0.00224,0.6438662525,0.00224,6.943175589,
0.00226,0.2784359583,0.00226,6.943175589,
0.00228,-0.45242463,0.00228,6.577745295,
0.0023,1.740157135,0.0023,6.577745295,
0.00232,2.105587429,0.00232,6.577745295,
0.00234,2.105587429,0.00234,6.577745295,
0.00236,1.374726841,0.00236,6.212315001,
0.00238,2.836448018,0.00238,6.577745295,
0.0024,2.471017723,0.0024,6.577745295,
0.00242,2.105587429,0.00242,6.577745295,
0.00244,3.9327389,0.00244,6.212315001,
0.00246,2.471017723,0.00246,6.943175589,
0.00248,3.9327389,0.00248,6.212315001,
0.0025,5.394460077,0.0025,6.577745295,
0.00252,3.201878312,0.00252,6.577745295,
0.00254,5.394460077,0.00254,5.481454413,
0.00256,2.471017723,0.00256,6.212315001,
0.00258,1.740157135,0.00258,6.212315001,
0.0026,2.836448018,0.0026,6.577745295,
0.00262,2.105587429,0.00262,6.577745295,
0.00264,1.740157135,0.00264,6.943175589,
0.00266,0.6438662525,0.00266,6.577745295,
0.00268,0.6438662525,0.00268,6.943175589,
0.0027,0.2784359583,0.0027,6.577745295,
0.00272,0.2784359583,0.00272,6.212315001,
0.00274,0.6438662525,0.00274,7.674036178,
0.00276,-1.914145807,0.00276,6.577745295,
0.00278,-1.548715513,0.00278,6.943175589,
0.0028,-0.8178549242,0.0028,6.943175589,
0.00282,-2.645006395,0.00282,6.577745295,
0.00284,-0.8178549242,0.00284,6.943175589,
0.00286,-0.8178549242,0.00286,6.577745295,
0.00288,-4.106727572,0.00288,6.577745295,
0.0029,-3.010436689,0.0029,6.212315001,
0.00292,-3.375866983,0.00292,6.943175589,
0.00294,-2.645006395,0.00294,6.212315001,
0.00296,-3.010436689,0.00296,6.577745295,
0.00298,-3.010436689,0.00298,6.577745295,
0.003,-4.106727572,0.003,6.577745295,
0.00302,-4.472157866,0.00302,6.212315001,
0.00304,-2.645006395,0.00304,6.212315001,
0.00306,-4.472157866,0.00306,6.943175589,
0.00308,-1.914145807,0.00308,6.577745295,
0.0031,-3.010436689,0.0031,6.577745295,
0.00312,-1.914145807,0.00312,6.943175589,
0.00314,-1.183285218,0.00314,6.577745295,
0.00316,-0.08699433583,0.00316,6.577745295,
0.00318,-0.45242463,0.00318,6.577745295,
0.0032,1.009296547,0.0032,6.212315001,
0.00322,2.471017723,0.00322,6.943175589,
0.00324,-0.08699433583,0.00324,6.943175589,
0.00326,2.471017723,0.00326,6.212315001,
0.00328,2.836448018,0.00328,6.943175589,
0.0033,2.471017723,0.0033,6.577745295,
0.00332,2.471017723,0.00332,6.212315001,
0.00334,4.298169194,0.00334,6.943175589,
0.00336,4.298169194,0.00336,6.577745295,
0.00338,4.298169194,0.00338,6.212315001,
0.0034,3.9327389,0.0034,6.212315001,
0.00342,2.836448018,0.00342,6.943175589,
0.00344,2.471017723,0.00344,6.577745295,
0.00346,5.394460077,0.00346,6.943175589,
0.00348,3.567308606,0.00348,6.577745295,
0.0035,3.567308606,0.0035,6.577745295,
0.00352,3.201878312,0.00352,6.577745295,
0.00354,2.471017723,0.00354,6.212315001,
0.00356,2.105587429,0.00356,6.212315001,
0.00358,1.740157135,0.00358,5.481454413,
0.0036,1.009296547,0.0036,6.577745295,
0.00362,1.740157135,0.00362,6.212315001,
0.00364,0.6438662525,0.00364,6.577745295,
0.00366,-1.548715513,0.00366,6.212315001,
0.00368,-0.8178549242,0.00368,6.943175589,
0.0037,-1.183285218,0.0037,6.577745295,
0.00372,-1.914145807,0.00372,6.577745295,
0.00374,-1.914145807,0.00374,6.577745295,
0.00376,-0.45242463,0.00376,6.577745295,
0.00378,-3.010436689,0.00378,6.577745295,
0.0038,-3.375866983,0.0038,6.212315001,
0.00382,-5.568448748,0.00382,6.577745295,
0.00384,-3.741297278,0.00384,6.943175589,
0.00386,-3.010436689,0.00386,6.577745295,
0.00388,-3.741297278,0.00388,6.212315001,
0.0039,-3.010436689,0.0039,6.577745295,
0.00392,-3.010436689,0.00392,6.212315001,
0.00394,-4.472157866,0.00394,5.846884707,
0.00396,-4.472157866,0.00396,6.212315001,
0.00398,-2.645006395,0.00398,6.212315001,
0.004,-2.645006395,0.004,6.212315001,
0.00402,-1.183285218,0.00402,6.212315001,
0.00404,-1.183285218,0.00404,6.577745295,
0.00406,-2.645006395,0.00406,5.846884707,
0.00408,-0.45242463,0.00408,6.212315001,
0.0041,1.740157135,0.0041,6.212315001,
0.00412,-2.279576101,0.00412,5.846884707,
0.00414,0.6438662525,0.00414,6.577745295,
0.00416,3.201878312,0.00416,6.577745295,
0.00418,1.009296547,0.00418,5.846884707,
0.0042,2.471017723,0.0042,6.577745295,
0.00422,3.567308606,0.00422,6.212315001,
0.00424,2.836448018,0.00424,5.846884707,
0.00426,4.663599488,0.00426,6.212315001,
0.00428,4.298169194,0.00428,6.943175589,
0.0043,2.471017723,0.0043,5.846884707,
0.00432,3.567308606,0.00432,6.577745295,
0.00434,4.663599488,0.00434,6.212315001,
0.00436,3.9327389,0.00436,6.212315001,
0.00438,3.9327389,0.00438,6.577745295,
0.0044,4.298169194,0.0044,6.577745295,
0.00442,2.836448018,0.00442,6.212315001,
0.00444,3.567308606,0.00444,6.577745295,
0.00446,0.2784359583,0.00446,6.212315001,
0.00448,0.2784359583,0.00448,5.846884707,
0.0045,1.740157135,0.0045,6.577745295,
0.00452,1.740157135,0.00452,6.212315001,
0.00454,0.2784359583,0.00454,6.577745295,
0.00456,1.009296547,0.00456,6.577745295,
0.00458,-0.45242463,0.00458,6.212315001,
0.0046,-0.08699433583,0.0046,6.577745295,
0.00462,-0.8178549242,0.00462,6.212315001,
0.00464,-1.914145807,0.00464,6.212315001,
0.00466,-1.914145807,0.00466,7.308605883,
0.00468,-2.645006395,0.00468,6.577745295,
0.0047,-3.010436689,0.0047,6.577745295,
0.00472,-2.279576101,0.00472,6.577745295,
0.00474,-2.279576101,0.00474,6.212315001,
0.00476,-3.375866983,0.00476,5.846884707,
0.00478,-3.741297278,0.00478,7.308605883,
0.0048,-4.106727572,0.0048,6.212315001,
0.00482,-4.472157866,0.00482,6.212315001,
0.00484,-4.106727572,0.00484,6.577745295,
0.00486,-3.010436689,0.00486,6.943175589,
0.00488,-2.645006395,0.00488,6.212315001,
0.0049,-3.010436689,0.0049,7.308605883,
0.00492,-2.279576101,0.00492,6.212315001,
0.00494,-4.106727572,0.00494,6.212315001,
0.00496,-0.8178549242,0.00496,6.577745295,
0.00498,-1.548715513,0.00498,6.577745295,
0.005,-0.8178549242,0.005,6.212315001,
0.00502,0.2784359583,0.00502,6.577745295,
0.00504,-0.08699433583,0.00504,6.577745295,
0.00506,-0.08699433583,0.00506,6.212315001,
0.00508,0.2784359583,0.00508,6.577745295,
0.0051,0.6438662525,0.0051,6.577745295,
0.00512,2.105587429,0.00512,6.212315001,
0.00514,2.105587429,0.00514,6.577745295,
0.00516,-0.08699433583,0.00516,6.577745295,
0.00518,3.567308606,0.00518,6.212315001,
0.0052,3.201878312,0.0052,6.577745295,
0.00522,2.105587429,0.00522,6.577745295,
0.00524,6.490750959,0.00524,6.212315001,
0.00526,4.298169194,0.00526,7.308605883,
0.00528,2.105587429,0.00528,6.577745295,
0.0053,5.029029783,0.0053,5.846884707,
0.00532,3.201878312,0.00532,6.577745295,
0.00534,2.836448018,0.00534,6.577745295,
0.00536,4.298169194,0.00536,6.577745295,
0.00538,3.567308606,0.00538,6.577745295,
0.0054,2.471017723,0.0054,6.577745295,
0.00542,2.836448018,0.00542,6.577745295,
0.00544,1.740157135,0.00544,6.577745295,
0.00546,1.374726841,0.00546,6.212315001,
0.00548,0.6438662525,0.00548,6.212315001,
0.0055,0.6438662525,0.0055,7.308605883,
0.00552,0.6438662525,0.00552,6.577745295,
0.00554,-0.08699433583,0.00554,6.212315001,
0.00556,-2.279576101,0.00556,7.308605883,
0.00558,-1.548715513,0.00558,6.212315001,
0.0056,-1.914145807,0.0056,6.577745295,
0.00562,-2.279576101,0.00562,6.212315001,
0.00564,-3.010436689,0.00564,6.212315001,
0.00566,-2.279576101,0.00566,6.212315001,
0.00568,-4.83758816,0.00568,6.212315001,
0.0057,-3.010436689,0.0057,6.577745295,
0.00572,-4.106727572,0.00572,6.212315001,
0.00574,-4.106727572,0.00574,7.308605883,
0.00576,-3.375866983,0.00576,6.212315001,
0.00578,-4.106727572,0.00578,5.846884707,
0.0058,-3.375866983,0.0058,6.577745295,
0.00582,-3.010436689,0.00582,6.577745295,
0.00584,-4.472157866,0.00584,6.212315001,
0.00586,-2.645006395,0.00586,7.308605883,
0.00588,-2.279576101,0.00588,6.577745295,
0.0059,-0.8178549242,0.0059,5.846884707,
0.00592,-0.8178549242,0.00592,6.943175589,
0.00594,-0.8178549242,0.00594,6.577745295,
0.00596,-0.08699433583,0.00596,6.577745295,
0.00598,0.6438662525,0.00598,6.577745295,
0.006,0.6438662525,0.006,6.943175589,
0.00602,1.009296547,0.00602,6.212315001,
0.00604,1.740157135,0.00604,6.943175589,
0.00606,1.009296547,0.00606,5.116024118,
0.00608,2.836448018,0.00608,6.577745295,
0.0061,2.471017723,0.0061,7.674036178,
0.00612,2.471017723,0.00612,5.481454413,
0.00614,3.201878312,0.00614,6.212315001,
0.00616,2.836448018,0.00616,8.77032706,
0.00618,2.836448018,0.00618,6.577745295,
0.0062,4.298169194,0.0062,6.212315001,
0.00622,3.567308606,0.00622,6.943175589,
0.00624,2.836448018,0.00624,6.577745295,
0.00626,6.856181253,0.00626,4.38516353,
0.00628,2.471017723,0.00628,6.943175589,
0.0063,1.740157135,0.0063,6.212315001,
0.00632,3.9327389,0.00632,6.212315001,
0.00634,3.201878312,0.00634,6.577745295,
0.00636,2.105587429,0.00636,5.481454413,
0.00638,2.471017723,0.00638,6.212315001,
0.0064,1.009296547,0.0064,6.577745295,
0.00642,-0.08699433583,0.00642,6.577745295,
0.00644,-0.08699433583,0.00644,5.846884707,
0.00646,0.6438662525,0.00646,7.308605883,
0.00648,-0.45242463,0.00648,5.846884707,
0.0065,0.6438662525,0.0065,5.846884707,
0.00652,-1.183285218,0.00652,6.943175589,
0.00654,-2.279576101,0.00654,6.212315001,
0.00656,-3.010436689,0.00656,7.674036178,
0.00658,-3.375866983,0.00658,6.577745295,
0.0066,-3.741297278,0.0066,6.577745295,
0.00662,-2.645006395,0.00662,6.212315001,
0.00664,-4.83758816,0.00664,6.577745295,
0.00666,-6.299309337,0.00666,6.212315001,
0.00668,-3.375866983,0.00668,6.577745295,
0.0067,-5.203018454,0.0067,6.577745295,
0.00672,-4.106727572,0.00672,6.577745295,
0.00674,-2.279576101,0.00674,6.577745295,
0.00676,-3.010436689,0.00676,5.116024118,
0.00678,-3.010436689,0.00678,5.846884707,
0.0068,-1.548715513,0.0068,6.577745295,
0.00682,-1.914145807,0.00682,6.212315001,
0.00684,-0.8178549242,0.00684,5.846884707,
0.00686,-0.08699433583,0.00686,6.577745295,
0.00688,-0.08699433583,0.00688,6.212315001,
0.0069,0.2784359583,0.0069,6.212315001,
0.00692,1.009296547,0.00692,6.212315001,
0.00694,0.6438662525,0.00694,6.577745295,
0.00696,1.009296547,0.00696,7.308605883,
0.00698,3.567308606,0.00698,6.577745295,
0.007,2.836448018,0.007,6.577745295,
0.00702,2.105587429,0.00702,6.212315001,
0.00704,3.201878312,0.00704,6.212315001,
0.00706,3.201878312,0.00706,6.212315001,
0.00708,2.836448018,0.00708,5.846884707,
0.0071,3.9327389,0.0071,6.577745295,
0.00712,4.663599488,0.00712,6.212315001,
0.00714,3.201878312,0.00714,5.846884707,
0.00716,3.567308606,0.00716,5.481454413,
0.00718,5.029029783,0.00718,6.212315001,
0.0072,3.567308606,0.0072,5.846884707,
0.00722,3.9327389,0.00722,6.577745295,
0.00724,3.9327389,0.00724,5.481454413,
0.00726,1.740157135,0.00726,6.212315001,
0.00728,2.836448018,0.00728,6.212315001,
0.0073,2.471017723,0.0073,5.846884707,
0.00732,1.740157135,0.00732,5.846884707,
0.00734,1.740157135,0.00734,6.577745295,
0.00736,1.374726841,0.00736,6.577745295,
0.00738,-0.08699433583,0.00738,5.846884707,
0.0074,1.374726841,0.0074,6.212315001,
0.00742,-0.45242463,0.00742,5.846884707,
0.00744,-2.279576101,0.00744,5.846884707,
0.00746,-1.548715513,0.00746,5.846884707,
0.00748,-1.183285218,0.00748,6.212315001,
0.0075,-3.375866983,0.0075,5.481454413,
0.00752,-3.375866983,0.00752,5.846884707,
0.00754,-3.375866983,0.00754,6.577745295,
0.00756,-5.203018454,0.00756,5.481454413,
0.00758,-2.279576101,0.00758,6.212315001,
0.0076,-3.010436689,0.0076,6.212315001,
0.00762,-1.914145807,0.00762,5.846884707,
0.00764,-4.106727572,0.00764,6.577745295,
0.00766,-3.010436689,0.00766,6.577745295,
0.00768,-2.645006395,0.00768,5.846884707,
0.0077,-3.010436689,0.0077,6.212315001,
0.00772,-2.279576101,0.00772,6.212315001,
0.00774,-2.279576101,0.00774,5.481454413,
0.00776,-1.548715513,0.00776,6.212315001,
0.00778,-1.548715513,0.00778,5.846884707,
0.0078,-0.08699433583,0.0078,6.212315001,
0.00782,-0.8178549242,0.00782,6.577745295,
0.00784,-0.08699433583,0.00784,6.212315001,
0.00786,-0.08699433583,0.00786,6.577745295,
0.00788,-0.45242463,0.00788,6.212315001,
0.0079,2.471017723,0.0079,6.212315001,
0.00792,-0.45242463,0.00792,5.846884707,
0.00794,2.836448018,0.00794,5.846884707,
0.00796,2.836448018,0.00796,6.212315001,
0.00798,3.567308606,0.00798,5.481454413,
0.008,5.029029783,0.008,6.212315001,
0.00802,3.9327389,0.00802,6.212315001,
0.00804,3.567308606,0.00804,5.846884707,
0.00806,4.663599488,0.00806,6.577745295,
0.00808,4.663599488,0.00808,6.212315001,
0.0081,3.201878312,0.0081,6.212315001,
0.00812,4.298169194,0.00812,5.846884707,
0.00814,4.298169194,0.00814,6.212315001,
0.00816,5.759890371,0.00816,5.846884707,
0.00818,2.836448018,0.00818,6.577745295,
0.0082,3.201878312,0.0082,6.212315001,
0.00822,2.836448018,0.00822,5.846884707,
0.00824,2.105587429,0.00824,5.846884707,
0.00826,1.374726841,0.00826,5.481454413,
0.00828,-3.375866983,0.00828,5.846884707,
0.0083,0.6438662525,0.0083,6.212315001,
0.00832,-0.08699433583,0.00832,6.212315001,
0.00834,-0.08699433583,0.00834,5.481454413,
0.00836,-0.8178549242,0.00836,6.577745295,
0.00838,-0.08699433583,0.00838,6.212315001,
0.0084,-1.548715513,0.0084,5.846884707,
0.00842,-0.8178549242,0.00842,6.212315001,
0.00844,-1.548715513,0.00844,5.846884707,
0.00846,-4.83758816,0.00846,5.846884707,
0.00848,-3.010436689,0.00848,6.212315001,
0.0085,-3.741297278,0.0085,6.212315001,
0.00852,-4.472157866,0.00852,6.212315001,
0.00854,-5.203018454,0.00854,6.212315001,
0.00856,-3.375866983,0.00856,6.212315001,
0.00858,-4.472157866,0.00858,5.846884707,
0.0086,-2.645006395,0.0086,6.577745295,
0.00862,-3.010436689,0.00862,6.212315001,
0.00864,-3.741297278,0.00864,6.943175589,
0.00866,-3.375866983,0.00866,6.577745295,
0.00868,-3.375866983,0.00868,6.212315001,
0.0087,-3.010436689,0.0087,6.577745295,
0.00872,-1.914145807,0.00872,6.212315001,
0.00874,-0.45242463,0.00874,6.212315001,
0.00876,-0.45242463,0.00876,6.943175589,
0.00878,-1.914145807,0.00878,6.212315001,
0.0088,-0.08699433583,0.0088,6.212315001,
0.00882,1.740157135,0.00882,6.943175589,
0.00884,1.374726841,0.00884,6.212315001,
0.00886,1.740157135,0.00886,6.212315001,
0.00888,2.471017723,0.00888,7.308605883,
0.0089,2.105587429,0.0089,5.846884707,
0.00892,4.298169194,0.00892,6.212315001,
0.00894,3.567308606,0.00894,6.577745295,
0.00896,3.201878312,0.00896,6.577745295,
0.00898,3.201878312,0.00898,6.577745295,
0.009,3.201878312,0.009,6.577745295,
0.00902,3.567308606,0.00902,6.212315001,
0.00904,3.201878312,0.00904,5.846884707,
0.00906,3.9327389,0.00906,6.577745295,
0.00908,2.836448018,0.00908,5.846884707,
0.0091,3.201878312,0.0091,6.212315001,
0.00912,2.836448018,0.00912,6.577745295,
0.00914,1.740157135,0.00914,5.846884707,
0.00916,2.105587429,0.00916,5.846884707,
0.00918,-1.548715513,0.00918,6.577745295,
0.0092,1.009296547,0.0092,6.212315001,
0.00922,-0.08699433583,0.00922,6.212315001,
0.00924,0.6438662525,0.00924,6.577745295,
0.00926,-0.8178549242,0.00926,6.577745295,
0.00928,-1.183285218,0.00928,6.212315001,
0.0093,-1.183285218,0.0093,6.577745295,
0.00932,-1.914145807,0.00932,6.577745295,
0.00934,-2.279576101,0.00934,5.846884707,
0.00936,-1.914145807,0.00936,6.577745295,
0.00938,-4.472157866,0.00938,6.212315001,
0.0094,-2.645006395,0.0094,5.846884707,
0.00942,-2.279576101,0.00942,6.577745295,
0.00944,-3.010436689,0.00944,6.212315001,
0.00946,-3.010436689,0.00946,5.846884707,
0.00948,-4.472157866,0.00948,5.481454413,
0.0095,-4.472157866,0.0095,6.212315001,
0.00952,-4.106727572,0.00952,6.212315001,
0.00954,-3.375866983,0.00954,5.846884707,
0.00956,-2.645006395,0.00956,6.212315001,
0.00958,-2.279576101,0.00958,6.943175589,
0.0096,-2.645006395,0.0096,6.212315001,
0.00962,-2.279576101,0.00962,5.846884707,
0.00964,-1.914145807,0.00964,6.212315001,
0.00966,-1.548715513,0.00966,6.577745295,
0.00968,-0.45242463,0.00968,7.308605883,
0.0097,-1.914145807,0.0097,6.943175589,
0.00972,0.6438662525,0.00972,6.212315001,
0.00974,-0.08699433583,0.00974,6.212315001,
0.00976,1.374726841,0.00976,5.116024118,
0.00978,2.471017723,0.00978,5.116024118,
0.0098,2.105587429,0.0098,5.846884707,
0.00982,2.471017723,0.00982,5.846884707,
0.00984,3.201878312,0.00984,6.212315001,
0.00986,3.201878312,0.00986,5.846884707,
0.00988,3.9327389,0.00988,5.846884707,
0.0099,4.663599488,0.0099,6.212315001,
0.00992,3.9327389,0.00992,6.577745295,
0.00994,3.201878312,0.00994,6.577745295,
0.00996,4.298169194,0.00996,6.212315001,
0.00998,2.836448018,0.00998,6.943175589,
0.01,3.9327389,0.01,6.577745295,
0.01002,3.567308606,0.01002,6.577745295,
0.01004,2.836448018,0.01004,5.846884707,
0.01006,3.9327389,0.01006,6.577745295,
0.01008,3.201878312,0.01008,6.212315001,
0.0101,2.105587429,0.0101,5.846884707,
0.01012,1.374726841,0.01012,6.577745295,
0.01014,1.740157135,0.01014,5.846884707,
0.01016,0.2784359583,0.01016,5.846884707,
0.01018,-0.08699433583,0.01018,6.943175589,
0.0102,-0.45242463,0.0102,6.212315001,
0.01022,-0.8178549242,0.01022,5.846884707,
0.01024,1.009296547,0.01024,6.577745295,
0.01026,-2.279576101,0.01026,6.577745295,
0.01028,-3.010436689,0.01028,5.846884707,
0.0103,-2.645006395,0.0103,6.577745295,
0.01032,-2.645006395,0.01032,6.212315001,
0.01034,-4.106727572,0.01034,5.846884707,
0.01036,-2.645006395,0.01036,6.212315001,
0.01038,-3.375866983,0.01038,5.481454413,
0.0104,-4.472157866,0.0104,5.846884707,
0.01042,-3.010436689,0.01042,6.212315001,
0.01044,-3.375866983,0.01044,5.846884707,
0.01046,-4.472157866,0.01046,5.481454413,
0.01048,-3.010436689,0.01048,6.212315001,
0.0105,-3.010436689,0.0105,6.212315001,
0.01052,-3.375866983,0.01052,5.846884707,
0.01054,-1.183285218,0.01054,6.577745295,
0.01056,-1.548715513,0.01056,6.212315001,
0.01058,-1.548715513,0.01058,6.577745295,
0.0106,0.6438662525,0.0106,6.577745295,
0.01062,-0.8178549242,0.01062,5.846884707,
0.01064,1.374726841,0.01064,5.481454413,
0.01066,0.2784359583,0.01066,6.212315001,
0.01068,1.009296547,0.01068,5.846884707,
0.0107,1.740157135,0.0107,5.481454413,
0.01072,3.201878312,0.01072,6.212315001,
0.01074,3.201878312,0.01074,6.212315001,
0.01076,2.471017723,0.01076,5.846884707,
0.01078,3.9327389,0.01078,5.846884707,
0.0108,4.298169194,0.0108,6.577745295,
0.01082,3.201878312,0.01082,5.481454413,
0.01084,3.201878312,0.01084,6.212315001,
0.01086,3.9327389,0.01086,6.212315001,
0.01088,2.105587429,0.01088,6.212315001,
0.0109,6.490750959,0.0109,6.212315001,
0.01092,3.567308606,0.01092,6.212315001,
0.01094,2.836448018,0.01094,5.846884707,
0.01096,3.567308606,0.01096,5.846884707,
0.01098,2.471017723,0.01098,6.212315001,
0.011,3.201878312,0.011,5.846884707,
0.01102,2.105587429,0.01102,5.846884707,
0.01104,1.374726841,0.01104,6.212315001,
0.01106,1.009296547,0.01106,5.116024118,
0.01108,2.105587429,0.01108,5.846884707,
0.0111,0.2784359583,0.0111,6.212315001,
0.01112,0.6438662525,0.01112,5.846884707,
0.01114,-0.8178549242,0.01114,6.212315001,
0.01116,-1.183285218,0.01116,5.481454413,
0.01118,-1.914145807,0.01118,5.846884707,
0.0112,-0.08699433583,0.0112,6.212315001,
0.01122,-2.645006395,0.01122,5.481454413,
0.01124,-2.279576101,0.01124,5.846884707,
0.01126,-3.375866983,0.01126,6.212315001,
0.01128,-2.645006395,0.01128,6.212315001,
0.0113,-4.472157866,0.0113,5.846884707,
0.01132,-3.741297278,0.01132,6.212315001,
0.01134,-3.741297278,0.01134,5.846884707,
0.01136,-3.375866983,0.01136,5.846884707,
0.01138,-4.106727572,0.01138,5.846884707,
0.0114,-3.741297278,0.0114,6.212315001,
0.01142,-3.741297278,0.01142,5.481454413,
0.01144,-2.279576101,0.01144,6.212315001,
0.01146,-2.279576101,0.01146,6.212315001,
0.01148,-2.279576101,0.01148,5.846884707,
0.0115,-2.645006395,0.0115,6.212315001,
0.01152,-1.548715513,0.01152,6.212315001,
0.01154,-1.183285218,0.01154,6.577745295,
0.01156,-2.279576101,0.01156,5.846884707,
0.01158,-0.08699433583,0.01158,6.212315001,
0.0116,1.009296547,0.0116,6.212315001,
0.01162,1.374726841,0.01162,6.212315001,
0.01164,1.740157135,0.01164,5.846884707,
0.01166,5.759890371,0.01166,6.212315001,
0.01168,2.471017723,0.01168,5.846884707,
0.0117,3.9327389,0.0117,5.846884707,
0.01172,3.201878312,0.01172,6.577745295,
0.01174,3.201878312,0.01174,6.212315001,
0.01176,3.9327389,0.01176,6.212315001,
0.01178,4.298169194,0.01178,6.577745295,
0.0118,3.567308606,0.0118,6.212315001,
0.01182,4.298169194,0.01182,5.846884707,
0.01184,3.567308606,0.01184,6.577745295,
0.01186,2.836448018,0.01186,5.846884707,
0.01188,2.836448018,0.01188,6.212315001,
0.0119,3.9327389,0.0119,6.577745295,
0.01192,2.836448018,0.01192,6.212315001,
0.01194,2.105587429,0.01194,5.846884707,
0.01196,2.471017723,0.01196,6.943175589,
0.01198,1.374726841,0.01198,6.212315001,
0.012,0.6438662525,0.012,5.846884707,
0.01202,0.2784359583,0.01202,6.577745295,
0.01204,0.6438662525,0.01204,6.212315001,
0.01206,-0.45242463,0.01206,6.212315001,
0.01208,0.2784359583,0.01208,6.577745295,
0.0121,-0.8178549242,0.0121,5.846884707,
0.01212,-3.375866983,0.01212,6.212315001,
0.01214,-2.279576101,0.01214,6.577745295,
0.01216,-3.010436689,0.01216,6.212315001,
0.01218,-2.645006395,0.01218,5.846884707,
0.0122,-1.183285218,0.0122,6.577745295,
0.01222,-2.645006395,0.01222,5.846884707,
0.01224,-4.83758816,0.01224,6.212315001,
0.01226,-3.010436689,0.01226,6.577745295,
0.01228,-4.472157866,0.01228,5.846884707,
0.0123,-4.83758816,0.0123,6.212315001,
0.01232,-3.741297278,0.01232,6.577745295,
0.01234,-1.914145807,0.01234,6.212315001,
0.01236,-3.375866983,0.01236,5.846884707,
0.01238,-2.279576101,0.01238,6.212315001,
0.0124,-6.299309337,0.0124,5.846884707,
0.01242,-1.914145807,0.01242,6.212315001,
0.01244,-1.183285218,0.01244,6.577745295,
0.01246,-0.8178549242,0.01246,5.481454413,
0.01248,0.2784359583,0.01248,6.212315001,
0.0125,-0.08699433583,0.0125,6.577745295,
0.01252,-1.548715513,0.01252,6.212315001,
0.01254,0.6438662525,0.01254,6.212315001,
0.01256,-0.08699433583,0.01256,6.212315001,
0.01258,1.374726841,0.01258,6.212315001,
0.0126,2.836448018,0.0126,6.212315001,
0.01262,2.105587429,0.01262,6.577745295,
0.01264,2.836448018,0.01264,6.212315001,
0.01266,3.9327389,0.01266,5.846884707,
0.01268,2.471017723,0.01268,7.308605883,
0.0127,3.201878312,0.0127,5.846884707,
0.01272,2.836448018,0.01272,5.846884707,
0.01274,3.201878312,0.01274,6.577745295,
0.01276,4.298169194,0.01276,5.846884707,
0.01278,4.298169194,0.01278,6.212315001,
0.0128,1.740157135,0.0128,7.674036178,
0.01282,2.836448018,0.01282,6.212315001,
0.01284,1.374726841,0.01284,5.846884707,
0.01286,2.471017723,0.01286,6.577745295,
0.01288,1.009296547,0.01288,6.212315001,
0.0129,-0.08699433583,0.0129,5.846884707,
0.01292,2.105587429,0.01292,6.943175589,
0.01294,0.6438662525,0.01294,5.846884707,
0.01296,-1.183285218,0.01296,5.846884707,
0.01298,1.740157135,0.01298,6.577745295,
0.013,-0.45242463,0.013,5.846884707,
0.01302,-1.914145807,0.01302,6.212315001,
0.01304,-1.183285218,0.01304,6.212315001,
0.01306,-4.106727572,0.01306,5.846884707,
0.01308,-2.645006395,0.01308,6.577745295,
0.0131,-1.914145807,0.0131,6.943175589,
0.01312,-3.741297278,0.01312,6.212315001,
0.01314,-4.472157866,0.01314,6.212315001,
0.01316,-3.375866983,0.01316,6.577745295,
0.01318,-4.472157866,0.01318,6.212315001,
0.0132,-5.203018454,0.0132,6.577745295,
0.01322,-4.106727572,0.01322,6.212315001,
0.01324,-3.741297278,0.01324,6.577745295,
0.01326,-3.375866983,0.01326,6.212315001,
0.01328,-3.010436689,0.01328,6.577745295,
0.0133,-3.010436689,0.0133,5.116024118,
0.01332,-3.375866983,0.01332,5.846884707,
0.01334,-2.279576101,0.01334,6.577745295,
0.01336,-4.472157866,0.01336,6.212315001,
0.01338,-1.914145807,0.01338,6.212315001,
0.0134,-0.45242463,0.0134,5.846884707,
0.01342,-0.08699433583,0.01342,5.846884707,
0.01344,0.6438662525,0.01344,6.577745295,
0.01346,-0.45242463,0.01346,6.212315001,
0.01348,-0.08699433583,0.01348,6.212315001,
0.0135,1.374726841,0.0135,8.039466472,
0.01352,3.567308606,0.01352,6.577745295,
0.01354,1.009296547,0.01354,6.212315001,
0.01356,2.471017723,0.01356,6.212315001,
0.01358,2.105587429,0.01358,6.577745295,
0.0136,2.836448018,0.0136,6.212315001,
0.01362,3.201878312,0.01362,6.577745295,
0.01364,4.298169194,0.01364,6.212315001,
0.01366,4.298169194,0.01366,6.212315001,
0.01368,5.394460077,0.01368,6.577745295,
0.0137,3.9327389,0.0137,4.38516353,
0.01372,4.663599488,0.01372,5.846884707,
0.01374,3.9327389,0.01374,6.212315001,
0.01376,2.836448018,0.01376,6.212315001,
0.01378,2.836448018,0.01378,5.846884707,
0.0138,2.105587429,0.0138,8.039466472,
0.01382,2.105587429,0.01382,6.212315001,
0.01384,1.374726841,0.01384,6.212315001,
0.01386,3.9327389,0.01386,6.577745295,
0.01388,-0.45242463,0.01388,6.577745295,
0.0139,-0.08699433583,0.0139,5.116024118,
0.01392,-1.548715513,0.01392,6.212315001,
0.01394,-1.183285218,0.01394,6.212315001,
0.01396,-1.183285218,0.01396,6.212315001,
0.01398,-0.8178549242,0.01398,6.577745295,
0.014,-2.279576101,0.014,5.116024118,
0.01402,-2.279576101,0.01402,6.212315001,
0.01404,-1.914145807,0.01404,6.577745295,
0.01406,-3.741297278,0.01406,5.846884707,
0.01408,-2.645006395,0.01408,6.212315001,
0.0141,-2.645006395,0.0141,7.308605883,
0.01412,-3.010436689,0.01412,6.212315001,
0.01414,-3.741297278,0.01414,5.846884707,
0.01416,-3.010436689,0.01416,6.577745295,
0.01418,-3.741297278,0.01418,5.846884707,
0.0142,-2.279576101,0.0142,6.943175589,
0.01422,-3.010436689,0.01422,6.577745295,
0.01424,-4.106727572,0.01424,6.212315001,
0.01426,-2.645006395,0.01426,5.846884707,
0.01428,-0.8178549242,0.01428,6.577745295,
0.0143,-3.010436689,0.0143,5.481454413,
0.01432,-1.183285218,0.01432,6.212315001,
0.01434,0.2784359583,0.01434,6.577745295,
0.01436,-0.45242463,0.01436,6.212315001,
0.01438,-0.08699433583,0.01438,5.481454413,
0.0144,0.6438662525,0.0144,5.481454413,
0.01442,1.374726841,0.01442,6.212315001,
0.01444,1.740157135,0.01444,5.846884707,
0.01446,3.201878312,0.01446,6.577745295,
0.01448,2.471017723,0.01448,6.212315001,
0.0145,2.471017723,0.0145,6.943175589,
0.01452,2.836448018,0.01452,6.943175589,
0.01454,3.567308606,0.01454,6.212315001,
0.01456,2.836448018,0.01456,5.481454413,
0.01458,4.663599488,0.01458,5.481454413,
0.0146,4.298169194,0.0146,5.481454413,
0.01462,3.201878312,0.01462,6.577745295,
0.01464,3.201878312,0.01464,6.577745295,
0.01466,3.9327389,0.01466,6.212315001,
0.01468,3.201878312,0.01468,6.577745295,
0.0147,2.836448018,0.0147,5.846884707,
0.01472,3.201878312,0.01472,6.212315001,
0.01474,1.740157135,0.01474,6.577745295,
0.01476,2.471017723,0.01476,6.212315001,
0.01478,1.740157135,0.01478,5.846884707,
0.0148,0.6438662525,0.0148,6.212315001,
0.01482,0.2784359583,0.01482,5.846884707,
0.01484,0.2784359583,0.01484,5.846884707,
0.01486,-0.08699433583,0.01486,6.212315001,
0.01488,-1.914145807,0.01488,5.846884707,
0.0149,-1.548715513,0.0149,6.212315001,
0.01492,0.6438662525,0.01492,6.212315001,
0.01494,-1.548715513,0.01494,6.212315001,
0.01496,-3.741297278,0.01496,5.846884707,
0.01498,-4.472157866,0.01498,7.674036178,
0.015,-3.010436689,0.015,6.212315001,
0.01502,-2.645006395,0.01502,6.577745295,
0.01504,-3.010436689,0.01504,6.212315001,
0.01506,-3.010436689,0.01506,6.212315001,
0.01508,-3.375866983,0.01508,6.577745295,
0.0151,-4.83758816,0.0151,5.481454413,
0.01512,-4.106727572,0.01512,5.846884707,
0.01514,-3.375866983,0.01514,6.212315001,
0.01516,-3.375866983,0.01516,6.212315001,
0.01518,-1.914145807,0.01518,6.212315001,
0.0152,-4.83758816,0.0152,6.212315001,
0.01522,-2.279576101,0.01522,6.212315001,
0.01524,-0.8178549242,0.01524,5.846884707,
0.01526,-0.8178549242,0.01526,6.577745295,
0.01528,-0.45242463,0.01528,6.212315001,
0.0153,0.6438662525,0.0153,6.212315001,
0.01532,1.009296547,0.01532,6.212315001,
0.01534,2.105587429,0.01534,5.846884707,
0.01536,2.836448018,0.01536,6.212315001,
0.01538,3.9327389,0.01538,6.212315001,
0.0154,2.836448018,0.0154,5.481454413,
0.01542,3.201878312,0.01542,6.212315001,
0.01544,4.298169194,0.01544,5.846884707,
0.01546,2.471017723,0.01546,5.846884707,
0.01548,3.9327389,0.01548,6.577745295,
0.0155,5.394460077,0.0155,5.846884707,
0.01552,2.836448018,0.01552,5.481454413,
0.01554,3.9327389,0.01554,6.212315001,
0.01556,3.201878312,0.01556,5.481454413,
0.01558,3.201878312,0.01558,5.481454413,
0.0156,5.759890371,0.0156,5.846884707,
0.01562,3.9327389,0.01562,5.846884707,
0.01564,3.201878312,0.01564,5.846884707,
0.01566,1.740157135,0.01566,5.846884707,
0.01568,2.836448018,0.01568,5.846884707,
0.0157,1.740157135,0.0157,5.846884707,
0.01572,0.2784359583,0.01572,6.577745295,
0.01574,0.2784359583,0.01574,6.212315001,
0.01576,0.2784359583,0.01576,5.846884707,
0.01578,-0.45242463,0.01578,5.846884707,
0.0158,-3.741297278,0.0158,5.846884707,
0.01582,-1.548715513,0.01582,5.481454413,
0.01584,-1.548715513,0.01584,5.846884707,
0.01586,-1.548715513,0.01586,5.846884707,
0.01588,-3.375866983,0.01588,5.481454413,
0.0159,-2.645006395,0.0159,5.846884707,
0.01592,-1.914145807,0.01592,5.846884707,
0.01594,-3.010436689,0.01594,5.846884707,
0.01596,-4.106727572,0.01596,6.212315001,
0.01598,-3.741297278,0.01598,6.212315001,
0.016,-0.45242463,0.016,5.846884707,
0.01602,-3.741297278,0.01602,6.577745295,
0.01604,-4.472157866,0.01604,5.846884707,
0.01606,-3.375866983,0.01606,5.481454413,
0.01608,-3.010436689,0.01608,6.212315001,
0.0161,-2.279576101,0.0161,5.846884707,
0.01612,-3.010436689,0.01612,5.481454413,
0.01614,-1.914145807,0.01614,6.577745295,
0.01616,-1.914145807,0.01616,5.846884707,
0.01618,-2.645006395,0.01618,6.212315001,
0.0162,-0.8178549242,0.0162,6.212315001,
0.01622,-0.8178549242,0.01622,6.212315001,
0.01624,0.2784359583,0.01624,5.481454413,
0.01626,1.009296547,0.01626,5.846884707,
0.01628,1.374726841,0.01628,5.846884707,
0.0163,1.009296547,0.0163,5.481454413,
0.01632,2.471017723,0.01632,5.846884707,
0.01634,2.836448018,0.01634,5.846884707,
0.01636,5.029029783,0.01636,5.481454413,
0.01638,5.029029783,0.01638,5.846884707,
0.0164,3.201878312,0.0164,6.212315001,
0.01642,1.374726841,0.01642,6.212315001,
0.01644,3.567308606,0.01644,6.212315001,
0.01646,4.298169194,0.01646,6.212315001,
0.01648,3.567308606,0.01648,5.846884707,
0.0165,3.9327389,0.0165,6.212315001,
0.01652,3.567308606,0.01652,6.577745295,
0.01654,3.567308606,0.01654,6.212315001,
0.01656,4.298169194,0.01656,6.212315001,
0.01658,3.201878312,0.01658,5.846884707,
0.0166,2.105587429,0.0166,5.116024118,
0.01662,2.105587429,0.01662,5.116024118,
0.01664,2.105587429,0.01664,5.846884707,
0.01666,1.009296547,0.01666,5.481454413,
0.01668,1.740157135,0.01668,5.846884707,
0.0167,0.2784359583,0.0167,5.481454413,
0.01672,-3.010436689,0.01672,5.846884707,
0.01674,-1.548715513,0.01674,6.212315001,
0.01676,-0.8178549242,0.01676,6.212315001,
0.01678,-2.279576101,0.01678,5.481454413,
0.0168,-1.914145807,0.0168,6.212315001,
0.01682,-2.279576101,0.01682,6.943175589,
0.01684,-2.279576101,0.01684,5.481454413,
0.01686,-5.203018454,0.01686,5.846884707,
0.01688,-2.279576101,0.01688,5.846884707,
0.0169,-3.375866983,0.0169,5.846884707,
0.01692,-3.375866983,0.01692,6.577745295,
0.01694,-3.010436689,0.01694,5.846884707,
0.01696,-3.741297278,0.01696,5.846884707,
0.01698,-3.010436689,0.01698,6.212315001,
0.017,-3.375866983,0.017,5.846884707,
0.01702,-3.010436689,0.01702,5.481454413,
0.01704,-1.914145807,0.01704,6.212315001,
0.01706,-3.010436689,0.01706,5.846884707,
0.01708,-1.914145807,0.01708,5.846884707,
0.0171,-1.183285218,0.0171,6.577745295,
0.01712,-0.08699433583,0.01712,5.481454413,
0.01714,-1.548715513,0.01714,5.846884707,
0.01716,-0.45242463,0.01716,6.212315001,
0.01718,-1.548715513,0.01718,6.212315001,
0.0172,0.6438662525,0.0172,6.212315001,
0.01722,1.374726841,0.01722,7.308605883,
0.01724,1.009296547,0.01724,5.846884707,
0.01726,2.105587429,0.01726,5.481454413,
0.01728,1.740157135,0.01728,6.943175589,
0.0173,2.471017723,0.0173,6.212315001,
0.01732,2.471017723,0.01732,6.577745295,
0.01734,5.029029783,0.01734,6.577745295,
0.01736,2.471017723,0.01736,6.212315001,
0.01738,3.201878312,0.01738,5.846884707,
0.0174,5.394460077,0.0174,6.577745295,
0.01742,2.471017723,0.01742,5.481454413,
0.01744,4.663599488,0.01744,5.846884707,
0.01746,3.9327389,0.01746,6.577745295,
0.01748,3.201878312,0.01748,5.846884707,
0.0175,2.471017723,0.0175,5.116024118,
0.01752,2.105587429,0.01752,5.846884707,
0.01754,0.2784359583,0.01754,5.846884707,
0.01756,1.374726841,0.01756,5.846884707,
0.01758,1.374726841,0.01758,6.577745295,
0.0176,0.6438662525,0.0176,5.846884707,
0.01762,-1.183285218,0.01762,5.846884707,
0.01764,-0.08699433583,0.01764,6.212315001,
0.01766,-1.183285218,0.01766,5.846884707,
0.01768,-2.279576101,0.01768,5.481454413,
0.0177,-1.548715513,0.0177,6.212315001,
0.01772,-1.548715513,0.01772,6.212315001,
0.01774,-0.8178549242,0.01774,5.846884707,
0.01776,-2.645006395,0.01776,6.577745295,
0.01778,-4.106727572,0.01778,5.846884707,
0.0178,-3.010436689,0.0178,5.846884707,
0.01782,-1.914145807,0.01782,5.846884707,
0.01784,-4.472157866,0.01784,5.846884707,
0.01786,-3.375866983,0.01786,5.481454413,
0.01788,-3.741297278,0.01788,6.212315001,
0.0179,-3.741297278,0.0179,5.481454413,
0.01792,-3.741297278,0.01792,5.846884707,
0.01794,-1.548715513,0.01794,6.577745295,
0.01796,-3.375866983,0.01796,5.846884707,
0.01798,-2.279576101,0.01798,5.481454413,
0.018,-3.010436689,0.018,6.577745295,
0.01802,-2.645006395,0.01802,6.212315001,
0.01804,-1.548715513,0.01804,5.481454413,
0.01806,-0.45242463,0.01806,6.212315001,
0.01808,-1.183285218,0.01808,5.846884707,
0.0181,-0.8178549242,0.0181,5.481454413,
0.01812,0.6438662525,0.01812,6.212315001,
0.01814,-1.548715513,0.01814,5.481454413,
0.01816,1.374726841,0.01816,5.481454413,
0.01818,1.740157135,0.01818,5.481454413,
0.0182,2.105587429,0.0182,6.212315001,
0.01822,1.374726841,0.01822,5.846884707,
0.01824,2.471017723,0.01824,6.212315001,
0.01826,2.471017723,0.01826,5.846884707,
0.01828,2.471017723,0.01828,5.846884707,
0.0183,4.298169194,0.0183,6.212315001,
0.01832,3.567308606,0.01832,5.846884707,
0.01834,5.394460077,0.01834,5.481454413,
0.01836,4.298169194,0.01836,5.481454413,
0.01838,3.201878312,0.01838,5.846884707,
0.0184,2.836448018,0.0184,5.846884707,
0.01842,3.567308606,0.01842,6.212315001,
0.01844,1.740157135,0.01844,5.846884707,
0.01846,2.105587429,0.01846,5.846884707,
0.01848,1.740157135,0.01848,6.212315001,
0.0185,-0.08699433583,0.0185,5.846884707,
0.01852,0.6438662525,0.01852,6.212315001,
0.01854,-0.45242463,0.01854,6.212315001,
0.01856,1.009296547,0.01856,5.846884707,
0.01858,-0.8178549242,0.01858,5.846884707,
0.0186,-0.45242463,0.0186,6.212315001,
0.01862,-0.08699433583,0.01862,5.846884707,
0.01864,-1.548715513,0.01864,5.481454413,
0.01866,-2.645006395,0.01866,6.577745295,
0.01868,-3.010436689,0.01868,6.212315001,
0.0187,-2.279576101,0.0187,6.212315001,
0.01872,-4.106727572,0.01872,5.116024118,
0.01874,-4.472157866,0.01874,6.212315001,
0.01876,-3.375866983,0.01876,6.943175589,
0.01878,-3.375866983,0.01878,6.212315001,
0.0188,-4.106727572,0.0188,5.481454413,
0.01882,-3.741297278,0.01882,5.846884707,
0.01884,-3.375866983,0.01884,6.577745295,
0.01886,-3.375866983,0.01886,5.846884707,
0.01888,-3.375866983,0.01888,5.116024118,
0.0189,-3.741297278,0.0189,6.212315001,
0.01892,-3.741297278,0.01892,5.846884707,
0.01894,-4.472157866,0.01894,5.846884707,
0.01896,-1.914145807,0.01896,6.212315001,
0.01898,-2.279576101,0.01898,5.846884707,
0.019,0.2784359583,0.019,5.846884707,
0.01902,-0.8178549242,0.01902,6.577745295,
0.01904,-1.183285218,0.01904,6.212315001,
0.01906,-0.08699433583,0.01906,6.212315001,
0.01908,1.740157135,0.01908,6.212315001,
0.0191,0.6438662525,0.0191,5.846884707,
0.01912,2.105587429,0.01912,6.577745295,
0.01914,2.836448018,0.01914,5.846884707,
0.01916,3.201878312,0.01916,5.846884707,
0.01918,2.836448018,0.01918,6.577745295,
0.0192,4.298169194,0.0192,5.846884707,
0.01922,3.9327389,0.01922,5.846884707,
0.01924,4.298169194,0.01924,6.577745295,
0.01926,1.740157135,0.01926,6.212315001,
0.01928,4.298169194,0.01928,5.846884707,
0.0193,4.663599488,0.0193,6.212315001,
0.01932,5.759890371,0.01932,6.212315001,
0.01934,2.105587429,0.01934,5.846884707,
0.01936,2.471017723,0.01936,6.212315001,
0.01938,1.740157135,0.01938,5.846884707,
0.0194,2.471017723,0.0194,5.846884707,
0.01942,2.105587429,0.01942,6.577745295,
0.01944,1.374726841,0.01944,5.846884707,
0.01946,1.374726841,0.01946,5.846884707,
0.01948,1.009296547,0.01948,6.212315001,
0.0195,1.740157135,0.0195,6.212315001,
0.01952,-0.8178549242,0.01952,6.212315001,
0.01954,-1.548715513,0.01954,6.577745295,
0.01956,-1.183285218,0.01956,6.212315001,
0.01958,-0.45242463,0.01958,5.846884707,
0.0196,-2.279576101,0.0196,6.212315001,
0.01962,-4.106727572,0.01962,5.846884707,
0.01964,-5.568448748,0.01964,6.212315001,
0.01966,-2.279576101,0.01966,6.212315001,
0.01968,-1.914145807,0.01968,6.212315001,
0.0197,-2.645006395,0.0197,6.212315001,
0.01972,-4.472157866,0.01972,6.212315001,
0.01974,-3.741297278,0.01974,5.481454413,
0.01976,-4.106727572,0.01976,5.846884707,
0.01978,-3.741297278,0.01978,6.212315001,
0.0198,-3.375866983,0.0198,5.846884707,
0.01982,-3.010436689,0.01982,5.846884707,
0.01984,-1.548715513,0.01984,6.212315001,
0.01986,-0.8178549242,0.01986,6.212315001,
0.01988,-2.279576101,0.01988,6.212315001,
0.0199,-2.279576101,0.0199,5.846884707,
0.01992,-1.183285218,0.01992,5.481454413,
0.01994,-1.183285218,0.01994,6.943175589,
0.01996,0.6438662525,0.01996,6.212315001,
0.01998,0.6438662525,0.01998,5.846884707,
0.02,0.2784359583,0.02,6.577745295,
0.02002,0.2784359583,0.02002,6.212315001,
0.02004,1.374726841,0.02004,4.019733236,
0.02006,2.836448018,0.02006,5.846884707,
0.02008,2.471017723,0.02008,5.846884707,
0.0201,1.740157135,0.0201,6.212315001,
0.02012,3.201878312,0.02012,5.846884707,
0.02014,2.836448018,0.02014,6.212315001,
0.02016,2.836448018,0.02016,6.212315001,
0.02018,3.9327389,0.02018,5.481454413,
0.0202,2.471017723,0.0202,5.481454413,
0.02022,4.298169194,0.02022,6.212315001,
0.02024,3.567308606,0.02024,5.846884707,
0.02026,2.105587429,0.02026,5.846884707,
0.02028,4.298169194,0.02028,6.577745295,
0.0203,2.105587429,0.0203,5.846884707,
0.02032,0.2784359583,0.02032,6.212315001,
0.02034,2.471017723,0.02034,4.750593824,
0.02036,1.740157135,0.02036,5.846884707,
0.02038,0.2784359583,0.02038,5.846884707,
0.0204,1.374726841,0.0204,6.212315001,
0.02042,0.6438662525,0.02042,6.212315001,
0.02044,0.2784359583,0.02044,6.212315001,
0.02046,-1.914145807,0.02046,6.212315001,
0.02048,-1.183285218,0.02048,5.846884707,
0.0205,-1.183285218,0.0205,6.212315001,
0.02052,-3.375866983,0.02052,6.212315001,
0.02054,-2.645006395,0.02054,7.308605883,
0.02056,-1.914145807,0.02056,5.481454413,
0.02058,-3.010436689,0.02058,6.212315001,
0.0206,-4.106727572,0.0206,6.212315001,
0.02062,-4.83758816,0.02062,5.116024118,
0.02064,-3.375866983,0.02064,6.943175589,
0.02066,-4.472157866,0.02066,5.846884707,
0.02068,-5.933879043,0.02068,5.846884707,
0.0207,-4.106727572,0.0207,6.212315001,
0.02072,-4.106727572,0.02072,5.846884707,
0.02074,-5.203018454,0.02074,5.116024118,
0.02076,-3.010436689,0.02076,6.212315001,
0.02078,-2.279576101,0.02078,6.212315001,
0.0208,-3.010436689,0.0208,5.846884707,
0.02082,-1.548715513,0.02082,6.212315001,
0.02084,-1.183285218,0.02084,5.116024118,
0.02086,1.009296547,0.02086,6.212315001,
0.02088,-0.8178549242,0.02088,6.577745295,
0.0209,-0.08699433583,0.0209,6.212315001,
0.02092,0.6438662525,0.02092,5.846884707,
0.02094,1.009296547,0.02094,6.943175589,
0.02096,1.009296547,0.02096,5.846884707,
0.02098,2.105587429,0.02098,5.846884707,
0.021,2.105587429,0.021,6.577745295,
0.02102,3.201878312,0.02102,5.846884707,
0.02104,4.298169194,0.02104,6.212315001,
0.02106,1.374726841,0.02106,6.577745295,
0.02108,3.201878312,0.02108,5.846884707,
0.0211,3.9327389,0.0211,5.481454413,
0.02112,3.567308606,0.02112,6.212315001,
0.02114,2.471017723,0.02114,5.481454413,
0.02116,3.201878312,0.02116,6.212315001,
0.02118,3.201878312,0.02118,6.577745295,
0.0212,2.836448018,0.0212,5.846884707,
0.02122,2.471017723,0.02122,5.846884707,
0.02124,2.105587429,0.02124,7.674036178,
0.02126,1.740157135,0.02126,6.577745295,
0.02128,1.740157135,0.02128,5.481454413,
0.0213,3.567308606,0.0213,6.212315001,
0.02132,1.374726841,0.02132,6.212315001,
0.02134,0.2784359583,0.02134,5.481454413,
0.02136,0.2784359583,0.02136,6.212315001,
0.02138,-2.279576101,0.02138,5.846884707,
0.0214,-0.8178549242,0.0214,5.846884707,
0.02142,-0.8178549242,0.02142,6.577745295,
0.02144,-3.010436689,0.02144,5.846884707,
0.02146,-1.548715513,0.02146,5.481454413,
0.02148,-2.279576101,0.02148,6.212315001,
0.0215,-3.375866983,0.0215,6.212315001,
0.02152,-3.741297278,0.02152,5.481454413,
0.02154,-3.375866983,0.02154,6.577745295,
0.02156,-3.375866983,0.02156,5.481454413,
0.02158,-3.375866983,0.02158,5.116024118,
0.0216,-3.375866983,0.0216,6.212315001,
0.02162,-3.375866983,0.02162,6.212315001,
0.02164,-4.106727572,0.02164,5.481454413,
0.02166,-2.279576101,0.02166,6.577745295,
0.02168,-2.645006395,0.02168,5.481454413,
0.0217,-4.106727572,0.0217,5.481454413,
0.02172,-2.645006395,0.02172,6.577745295,
0.02174,-3.741297278,0.02174,5.481454413,
0.02176,-2.645006395,0.02176,5.481454413,
0.02178,-1.183285218,0.02178,6.212315001,
0.0218,-2.279576101,0.0218,6.212315001,
0.02182,-0.8178549242,0.02182,5.846884707,
0.02184,1.009296547,0.02184,6.577745295,
0.02186,0.2784359583,0.02186,5.846884707,
0.02188,1.740157135,0.02188,5.481454413,
0.0219,1.009296547,0.0219,6.577745295,
0.02192,2.105587429,0.02192,6.212315001,
0.02194,2.836448018,0.02194,5.846884707,
0.02196,3.201878312,0.02196,6.577745295,
0.02198,2.471017723,0.02198,5.846884707,
0.022,3.567308606,0.022,5.846884707,
0.02202,2.471017723,0.02202,6.212315001,
0.02204,3.567308606,0.02204,5.481454413,
0.02206,3.9327389,0.02206,6.212315001,
0.02208,2.471017723,0.02208,6.577745295,
0.0221,3.567308606,0.0221,6.212315001,
0.02212,2.836448018,0.02212,5.481454413,
0.02214,3.9327389,0.02214,5.846884707,
0.02216,1.740157135,0.02216,6.212315001,
0.02218,2.105587429,0.02218,5.481454413,
0.0222,2.471017723,0.0222,5.846884707,
0.02222,1.009296547,0.02222,6.212315001,
0.02224,1.374726841,0.02224,5.846884707,
0.02226,1.009296547,0.02226,6.212315001,
0.02228,1.740157135,0.02228,5.846884707,
0.0223,1.009296547,0.0223,5.481454413,
0.02232,0.2784359583,0.02232,6.212315001,
0.02234,-0.8178549242,0.02234,6.212315001,
0.02236,-0.8178549242,0.02236,5.846884707,
0.02238,-1.914145807,0.02238,6.212315001,
0.0224,-2.645006395,0.0224,5.846884707,
0.02242,-2.279576101,0.02242,5.846884707,
0.02244,-3.010436689,0.02244,6.212315001,
0.02246,-4.106727572,0.02246,5.846884707,
0.02248,-3.741297278,0.02248,5.846884707,
0.0225,-2.645006395,0.0225,6.212315001,
0.02252,-4.106727572,0.02252,6.212315001,
0.02254,-3.010436689,0.02254,5.846884707,
0.02256,-3.010436689,0.02256,6.212315001,
0.02258,-3.741297278,0.02258,5.116024118,
0.0226,-3.010436689,0.0226,5.846884707,
0.02262,-1.914145807,0.02262,6.212315001,
0.02264,-3.010436689,0.02264,5.846884707,
0.02266,-1.914145807,0.02266,5.481454413,
0.02268,-1.548715513,0.02268,5.846884707,
0.0227,-1.914145807,0.0227,6.212315001,
0.02272,-1.548715513,0.02272,5.846884707,
0.02274,-0.08699433583,0.02274,5.846884707,
0.02276,-1.183285218,0.02276,6.212315001,
0.02278,0.6438662525,0.02278,5.481454413,
0.0228,2.471017723,0.0228,5.846884707,
0.02282,1.374726841,0.02282,5.846884707,
0.02284,0.6438662525,0.02284,5.481454413,
0.02286,3.567308606,0.02286,6.577745295,
0.02288,1.374726841,0.02288,6.577745295,
0.0229,2.471017723,0.0229,5.846884707,
0.02292,3.201878312,0.02292,6.212315001,
0.02294,3.9327389,0.02294,5.846884707,
0.02296,4.663599488,0.02296,5.846884707,
0.02298,3.9327389,0.02298,5.846884707,
0.023,3.567308606,0.023,5.846884707,
0.02302,3.9327389,0.02302,5.481454413,
0.02304,3.9327389,0.02304,5.846884707,
0.02306,3.201878312,0.02306,6.212315001,
0.02308,2.836448018,0.02308,5.481454413,
0.0231,1.009296547,0.0231,6.577745295,
0.02312,2.105587429,0.02312,6.212315001,
0.02314,1.740157135,0.02314,5.481454413,
0.02316,1.009296547,0.02316,6.212315001,
0.02318,1.009296547,0.02318,5.846884707,
0.0232,1.009296547,0.0232,5.481454413,
0.02322,-0.45242463,0.02322,6.212315001,
0.02324,-0.45242463,0.02324,6.212315001,
0.02326,-1.183285218,0.02326,5.846884707,
0.02328,-1.183285218,0.02328,6.212315001,
0.0233,-1.548715513,0.0233,6.212315001,
0.02332,-2.645006395,0.02332,6.212315001,
0.02334,-1.914145807,0.02334,6.212315001,
0.02336,-2.645006395,0.02336,5.846884707,
0.02338,-3.010436689,0.02338,5.846884707,
0.0234,-3.741297278,0.0234,5.846884707,
0.02342,-3.375866983,0.02342,5.846884707,
0.02344,-2.645006395,0.02344,5.846884707,
0.02346,-3.375866983,0.02346,6.212315001,
0.02348,-2.645006395,0.02348,6.212315001,
0.0235,-2.645006395,0.0235,5.846884707,
0.02352,-3.375866983,0.02352,6.212315001,
0.02354,-4.472157866,0.02354,6.212315001,
0.02356,-2.279576101,0.02356,5.846884707,
0.02358,-3.375866983,0.02358,5.846884707,
0.0236,-2.645006395,0.0236,5.846884707,
0.02362,-1.548715513,0.02362,5.846884707,
0.02364,-0.8178549242,0.02364,6.212315001,
0.02366,-1.914145807,0.02366,6.212315001,
0.02368,-0.08699433583,0.02368,5.481454413,
0.0237,0.2784359583,0.0237,6.212315001,
0.02372,1.374726841,0.02372,6.577745295,
0.02374,1.374726841,0.02374,6.212315001,
0.02376,2.105587429,0.02376,6.577745295,
0.02378,1.374726841,0.02378,6.212315001,
0.0238,2.105587429,0.0238,5.846884707,
0.02382,2.471017723,0.02382,6.943175589,
0.02384,2.836448018,0.02384,5.481454413,
0.02386,2.471017723,0.02386,6.943175589,
0.02388,3.201878312,0.02388,5.481454413,
0.0239,6.125320665,0.0239,5.846884707,
0.02392,4.663599488,0.02392,5.846884707,
0.02394,4.663599488,0.02394,5.116024118,
0.02396,3.9327389,0.02396,5.481454413,
0.02398,3.201878312,0.02398,5.846884707,
0.024,3.201878312,0.024,5.116024118,
0.02402,3.567308606,0.02402,5.846884707,
0.02404,3.567308606,0.02404,5.481454413,
0.02406,1.740157135,0.02406,5.116024118,
0.02408,1.009296547,0.02408,5.116024118,
0.0241,0.2784359583,0.0241,6.212315001,
0.02412,1.009296547,0.02412,5.116024118,
0.02414,1.009296547,0.02414,5.846884707,
0.02416,-0.8178549242,0.02416,6.577745295,
0.02418,-1.548715513,0.02418,5.481454413,
0.0242,-0.08699433583,0.0242,5.481454413,
0.02422,-0.08699433583,0.02422,5.481454413,
0.02424,-1.548715513,0.02424,5.481454413,
0.02426,-2.279576101,0.02426,6.212315001,
0.02428,-1.548715513,0.02428,6.212315001,
0.0243,-1.914145807,0.0243,5.481454413,
0.02432,-2.279576101,0.02432,5.846884707,
0.02434,-3.010436689,0.02434,5.846884707,
0.02436,-3.375866983,0.02436,4.750593824,
0.02438,-4.472157866,0.02438,5.481454413,
0.0244,-3.375866983,0.0244,5.846884707,
0.02442,-3.741297278,0.02442,5.481454413,
0.02444,-3.741297278,0.02444,5.846884707,
0.02446,-2.645006395,0.02446,4.750593824,
0.02448,-4.106727572,0.02448,5.481454413,
0.0245,-2.279576101,0.0245,5.846884707,
0.02452,-4.106727572,0.02452,5.846884707,
0.02454,-3.375866983,0.02454,5.481454413,
0.02456,-1.548715513,0.02456,6.943175589,
0.02458,0.6438662525,0.02458,5.846884707,
0.0246,-1.548715513,0.0246,5.116024118,
0.02462,-1.548715513,0.02462,5.846884707,
0.02464,0.6438662525,0.02464,5.846884707,
0.02466,0.2784359583,0.02466,4.38516353,
0.02468,1.740157135,0.02468,5.846884707,
0.0247,2.105587429,0.0247,5.846884707,
0.02472,2.471017723,0.02472,5.116024118,
0.02474,2.836448018,0.02474,5.481454413,
0.02476,3.201878312,0.02476,5.116024118,
0.02478,2.836448018,0.02478,5.116024118,
0.0248,3.567308606,0.0248,5.481454413,
0.02482,3.567308606,0.02482,6.212315001,
0.02484,4.663599488,0.02484,5.481454413,
0.02486,4.298169194,0.02486,6.577745295,
0.02488,4.663599488,0.02488,5.846884707,
0.0249,4.663599488,0.0249,5.481454413,
0.02492,4.663599488,0.02492,5.846884707,
0.02494,2.471017723,0.02494,5.846884707,
0.02496,4.298169194,0.02496,5.481454413,
0.02498,2.836448018,0.02498,5.846884707,
0.025,2.836448018,0.025,5.846884707,
0.02502,1.374726841,0.02502,5.481454413,
0.02504,1.740157135,0.02504,5.481454413,
0.02506,0.6438662525,0.02506,5.116024118,
0.02508,0.2784359583,0.02508,5.846884707,
0.0251,-0.08699433583,0.0251,5.846884707,
0.02512,-1.183285218,0.02512,5.846884707,
0.02514,-3.375866983,0.02514,6.212315001,
0.02516,-2.279576101,0.02516,5.846884707,
0.02518,-1.914145807,0.02518,5.846884707,
0.0252,-2.645006395,0.0252,6.212315001,
0.02522,-3.741297278,0.02522,6.212315001,
0.02524,-3.375866983,0.02524,5.846884707,
0.02526,-3.010436689,0.02526,6.577745295,
0.02528,-1.548715513,0.02528,5.846884707,
0.0253,-3.010436689,0.0253,5.116024118,
0.02532,-3.010436689,0.02532,6.212315001,
0.02534,-3.375866983,0.02534,5.846884707,
0.02536,-3.010436689,0.02536,5.116024118,
0.02538,-4.106727572,0.02538,6.212315001,
0.0254,-3.375866983,0.0254,5.846884707,
0.02542,-3.010436689,0.02542,5.846884707,
0.02544,-3.375866983,0.02544,6.577745295,
0.02546,-3.375866983,0.02546,6.212315001,
0.02548,-1.914145807,0.02548,5.846884707,
0.0255,-1.183285218,0.0255,5.481454413,
0.02552,-1.183285218,0.02552,6.212315001,
0.02554,-1.548715513,0.02554,5.846884707,
0.02556,0.2784359583,0.02556,6.212315001,
0.02558,1.374726841,0.02558,5.846884707,
0.0256,1.374726841,0.0256,5.846884707,
0.02562,1.740157135,0.02562,5.846884707,
0.02564,3.201878312,0.02564,5.846884707,
0.02566,2.105587429,0.02566,5.481454413,
0.02568,1.740157135,0.02568,6.212315001,
0.0257,2.471017723,0.0257,5.846884707,
0.02572,3.201878312,0.02572,5.846884707,
0.02574,3.567308606,0.02574,6.577745295,
0.02576,3.567308606,0.02576,6.212315001,
0.02578,5.029029783,0.02578,5.846884707,
0.0258,3.9327389,0.0258,6.212315001,
0.02582,3.567308606,0.02582,5.846884707,
0.02584,3.9327389,0.02584,5.846884707,
0.02586,6.856181253,0.02586,6.212315001,
0.02588,3.9327389,0.02588,5.846884707,
0.0259,3.201878312,0.0259,5.846884707,
0.02592,4.663599488,0.02592,6.212315001,
0.02594,1.374726841,0.02594,5.846884707,
0.02596,3.201878312,0.02596,5.481454413,
0.02598,0.2784359583,0.02598,6.212315001,
0.026,1.009296547,0.026,5.846884707,
0.02602,0.6438662525,0.02602,5.846884707,
0.02604,-0.8178549242,0.02604,5.846884707,
0.02606,-1.183285218,0.02606,5.481454413,
0.02608,-3.010436689,0.02608,5.846884707,
0.0261,-0.8178549242,0.0261,5.846884707,
0.02612,-2.279576101,0.02612,5.846884707,
0.02614,-3.010436689,0.02614,5.846884707,
0.02616,-1.183285218,0.02616,5.846884707,
0.02618,-4.106727572,0.02618,5.846884707,
0.0262,-2.645006395,0.0262,5.846884707,
0.02622,-2.645006395,0.02622,6.212315001,
0.02624,-3.741297278,0.02624,5.846884707,
0.02626,-3.010436689,0.02626,5.846884707,
0.02628,-3.010436689,0.02628,5.846884707,
0.0263,-3.741297278,0.0263,5.846884707,
0.02632,-3.375866983,0.02632,5.481454413,
0.02634,-2.645006395,0.02634,5.846884707,
0.02636,-3.010436689,0.02636,5.846884707,
0.02638,-0.8178549242,0.02638,6.212315001,
0.0264,-1.914145807,0.0264,5.846884707,
0.02642,-1.914145807,0.02642,5.846884707,
0.02644,-1.548715513,0.02644,5.846884707,
0.02646,-1.548715513,0.02646,6.212315001,
0.02648,-1.183285218,0.02648,5.846884707,
0.0265,1.009296547,0.0265,5.846884707,
0.02652,-0.8178549242,0.02652,5.846884707,
0.02654,-0.08699433583,0.02654,5.846884707,
0.02656,2.105587429,0.02656,5.481454413,
0.02658,-0.45242463,0.02658,6.577745295,
0.0266,2.471017723,0.0266,5.846884707,
0.02662,1.740157135,0.02662,5.481454413,
0.02664,3.567308606,0.02664,6.212315001,
0.02666,3.9327389,0.02666,6.212315001,
0.02668,4.298169194,0.02668,5.481454413,
0.0267,3.567308606,0.0267,6.212315001,
0.02672,2.836448018,0.02672,5.846884707,
0.02674,4.298169194,0.02674,5.846884707,
0.02676,4.298169194,0.02676,5.846884707,
0.02678,2.105587429,0.02678,5.116024118,
0.0268,3.9327389,0.0268,5.481454413,
0.02682,2.836448018,0.02682,5.846884707,
0.02684,1.740157135,0.02684,5.481454413,
0.02686,1.009296547,0.02686,5.846884707,
0.02688,1.740157135,0.02688,5.846884707,
0.0269,2.836448018,0.0269,5.116024118,
0.02692,1.009296547,0.02692,5.481454413,
0.02694,0.2784359583,0.02694,5.481454413,
0.02696,1.374726841,0.02696,5.481454413,
0.02698,1.374726841,0.02698,5.481454413,
0.027,-0.8178549242,0.027,5.846884707,
0.02702,-1.183285218,0.02702,5.481454413,
0.02704,-1.548715513,0.02704,5.846884707,
0.02706,-3.375866983,0.02706,5.846884707,
0.02708,-3.010436689,0.02708,5.481454413,
0.0271,-2.645006395,0.0271,5.481454413,
0.02712,-2.645006395,0.02712,5.846884707,
0.02714,-2.279576101,0.02714,5.846884707,
0.02716,-2.645006395,0.02716,5.846884707,
0.02718,-4.83758816,0.02718,5.846884707,
0.0272,-4.106727572,0.0272,5.481454413,
0.02722,-3.741297278,0.02722,5.846884707,
0.02724,-1.548715513,0.02724,5.846884707,
0.02726,-3.010436689,0.02726,5.481454413,
0.02728,-3.010436689,0.02728,5.481454413,
0.0273,-2.645006395,0.0273,5.846884707,
0.02732,-4.106727572,0.02732,5.116024118,
0.02734,-1.548715513,0.02734,5.846884707,
0.02736,-1.914145807,0.02736,5.481454413,
0.02738,-0.45242463,0.02738,5.481454413,
0.0274,0.2784359583,0.0274,5.846884707,
0.02742,-0.08699433583,0.02742,5.846884707,
0.02744,-0.45242463,0.02744,5.481454413,
0.02746,1.740157135,0.02746,5.846884707,
0.02748,2.471017723,0.02748,6.212315001,
0.0275,2.105587429,0.0275,5.481454413,
0.02752,2.471017723,0.02752,6.212315001,
0.02754,2.105587429,0.02754,5.846884707,
0.02756,2.836448018,0.02756,5.481454413,
0.02758,3.9327389,0.02758,5.481454413,
0.0276,3.201878312,0.0276,5.116024118,
0.02762,4.663599488,0.02762,5.481454413,
0.02764,3.9327389,0.02764,5.481454413,
0.02766,3.567308606,0.02766,5.846884707,
0.02768,2.105587429,0.02768,5.481454413,
0.0277,3.567308606,0.0277,5.481454413,
0.02772,3.567308606,0.02772,5.481454413,
0.02774,3.201878312,0.02774,5.481454413,
0.02776,3.201878312,0.02776,6.212315001,
0.02778,2.105587429,0.02778,6.212315001,
0.0278,0.6438662525,0.0278,5.116024118,
0.02782,2.471017723,0.02782,5.481454413,
0.02784,1.740157135,0.02784,5.481454413,
0.02786,0.6438662525,0.02786,5.116024118,
0.02788,-0.45242463,0.02788,5.481454413,
0.0279,0.2784359583,0.0279,5.481454413,
0.02792,-0.45242463,0.02792,5.481454413,
0.02794,-0.08699433583,0.02794,5.481454413,
0.02796,-0.8178549242,0.02796,5.846884707,
0.02798,-0.08699433583,0.02798,5.116024118,
0.028,-1.183285218,0.028,5.481454413,
0.02802,-2.279576101,0.02802,5.846884707,
0.02804,-4.83758816,0.02804,5.481454413,
0.02806,-3.741297278,0.02806,5.481454413,
0.02808,-3.375866983,0.02808,6.212315001,
0.0281,-3.741297278,0.0281,5.481454413,
0.02812,-5.203018454,0.02812,5.481454413,
0.02814,-3.010436689,0.02814,5.846884707,
0.02816,-4.106727572,0.02816,5.116024118,
0.02818,-3.010436689,0.02818,6.577745295,
0.0282,-2.645006395,0.0282,5.846884707,
0.02822,-4.472157866,0.02822,5.481454413,
0.02824,-2.645006395,0.02824,5.846884707,
0.02826,-1.914145807,0.02826,5.481454413,
0.02828,-3.375866983,0.02828,3.654302942,
0.0283,-2.645006395,0.0283,5.846884707,
0.02832,-0.45242463,0.02832,5.846884707,
0.02834,-1.183285218,0.02834,5.481454413,
0.02836,0.2784359583,0.02836,6.212315001,
0.02838,-0.08699433583,0.02838,5.481454413,
0.0284,1.009296547,0.0284,5.116024118,
0.02842,2.105587429,0.02842,5.846884707,
0.02844,2.836448018,0.02844,5.481454413,
0.02846,2.471017723,0.02846,5.481454413,
0.02848,3.201878312,0.02848,7.308605883,
0.0285,1.374726841,0.0285,5.846884707,
0.02852,2.836448018,0.02852,5.481454413,
0.02854,2.105587429,0.02854,5.481454413,
0.02856,3.9327389,0.02856,5.481454413,
0.02858,3.567308606,0.02858,6.212315001,
0.0286,3.9327389,0.0286,5.846884707,
0.02862,5.029029783,0.02862,5.481454413,
0.02864,2.836448018,0.02864,5.481454413,
0.02866,3.9327389,0.02866,5.481454413,
0.02868,3.567308606,0.02868,3.654302942,
0.0287,2.836448018,0.0287,6.212315001,
0.02872,2.105587429,0.02872,5.481454413,
0.02874,3.201878312,0.02874,5.481454413,
0.02876,1.374726841,0.02876,6.577745295,
0.02878,1.009296547,0.02878,6.212315001,
0.0288,0.6438662525,0.0288,5.481454413,
0.02882,-0.08699433583,0.02882,5.846884707,
0.02884,1.374726841,0.02884,5.846884707,
0.02886,-3.741297278,0.02886,5.846884707,
0.02888,-3.010436689,0.02888,6.577745295,
0.0289,-3.375866983,0.0289,5.481454413,
0.02892,-3.741297278,0.02892,5.481454413,
0.02894,-2.279576101,0.02894,6.212315001,
0.02896,-3.375866983,0.02896,5.846884707,
0.02898,-1.548715513,0.02898,4.750593824,
0.029,-4.472157866,0.029,6.212315001,
0.02902,-2.645006395,0.02902,5.846884707,
0.02904,-3.741297278,0.02904,5.481454413,
0.02906,-3.375866983,0.02906,6.212315001,
0.02908,-3.375866983,0.02908,5.481454413,
0.0291,-2.279576101,0.0291,5.481454413,
0.02912,-3.375866983,0.02912,5.846884707,
0.02914,-3.741297278,0.02914,5.846884707,
0.02916,-2.645006395,0.02916,5.116024118,
0.02918,-0.8178549242,0.02918,7.308605883,
0.0292,-1.548715513,0.0292,5.481454413,
0.02922,-3.010436689,0.02922,5.481454413,
0.02924,-3.375866983,0.02924,6.212315001,
0.02926,0.2784359583,0.02926,5.846884707,
0.02928,-1.548715513,0.02928,6.212315001,
0.0293,-0.45242463,0.0293,6.577745295,
0.02932,0.6438662525,0.02932,5.481454413,
0.02934,-1.548715513,0.02934,5.481454413,
0.02936,1.740157135,0.02936,6.212315001,
0.02938,1.009296547,0.02938,5.116024118,
0.0294,2.836448018,0.0294,5.481454413,
0.02942,2.471017723,0.02942,5.846884707,
0.02944,3.201878312,0.02944,5.846884707,
0.02946,3.567308606,0.02946,5.481454413,
0.02948,3.201878312,0.02948,6.212315001,
0.0295,2.836448018,0.0295,5.846884707,
0.02952,3.9327389,0.02952,5.116024118,
0.02954,3.9327389,0.02954,5.846884707,
0.02956,1.009296547,0.02956,5.481454413,
0.02958,3.201878312,0.02958,4.750593824,
0.0296,3.201878312,0.0296,6.212315001,
0.02962,2.836448018,0.02962,5.846884707,
0.02964,2.105587429,0.02964,5.481454413,
0.02966,2.471017723,0.02966,5.846884707,
0.02968,1.740157135,0.02968,5.481454413,
0.0297,1.740157135,0.0297,5.481454413,
0.02972,1.009296547,0.02972,5.846884707,
0.02974,-0.08699433583,0.02974,5.846884707,
0.02976,-0.45242463,0.02976,5.481454413,
0.02978,-2.279576101,0.02978,6.212315001,
0.0298,-0.8178549242,0.0298,5.846884707,
0.02982,-1.183285218,0.02982,5.846884707,
0.02984,-2.279576101,0.02984,6.212315001,
0.02986,-3.010436689,0.02986,5.846884707,
0.02988,-1.914145807,0.02988,5.481454413,
0.0299,-4.106727572,0.0299,5.846884707,
0.02992,-2.279576101,0.02992,5.481454413,
0.02994,-3.375866983,0.02994,5.481454413,
0.02996,-3.010436689,0.02996,5.481454413,
0.02998,-3.010436689,0.02998,5.481454413,
0.03,-3.375866983,0.03,5.481454413,
0.03002,-3.010436689,0.03002,6.212315001,
0.03004,-3.375866983,0.03004,5.846884707,
0.03006,-3.375866983,0.03006,5.846884707,
0.03008,-3.010436689,0.03008,5.846884707,
0.0301,-3.375866983,0.0301,5.481454413,
0.03012,-1.548715513,0.03012,5.846884707,
0.03014,-1.548715513,0.03014,5.481454413,
0.03016,-1.548715513,0.03016,4.750593824,
0.03018,-0.45242463,0.03018,6.577745295,
0.0302,0.6438662525,0.0302,5.846884707,
0.03022,-0.8178549242,0.03022,5.846884707,
0.03024,-0.08699433583,0.03024,5.846884707,
0.03026,2.105587429,0.03026,5.846884707,
0.03028,1.374726841,0.03028,5.846884707,
0.0303,1.740157135,0.0303,5.846884707,
0.03032,2.471017723,0.03032,6.212315001,
0.03034,1.740157135,0.03034,5.846884707,
0.03036,2.105587429,0.03036,5.846884707,
0.03038,3.567308606,0.03038,5.846884707,
0.0304,2.836448018,0.0304,5.846884707,
0.03042,3.567308606,0.03042,6.212315001,
0.03044,3.9327389,0.03044,5.846884707,
0.03046,3.201878312,0.03046,6.212315001,
0.03048,5.394460077,0.03048,5.846884707,
0.0305,3.9327389,0.0305,5.846884707,
0.03052,3.567308606,0.03052,6.212315001,
0.03054,3.201878312,0.03054,6.212315001,
0.03056,2.105587429,0.03056,5.846884707,
0.03058,1.009296547,0.03058,6.212315001,
0.0306,1.374726841,0.0306,6.212315001,
0.03062,1.740157135,0.03062,5.846884707,
0.03064,1.374726841,0.03064,5.846884707,
0.03066,0.6438662525,0.03066,5.846884707,
0.03068,-0.08699433583,0.03068,6.212315001,
0.0307,-0.45242463,0.0307,5.846884707,
0.03072,0.2784359583,0.03072,5.846884707,
0.03074,-2.279576101,0.03074,5.846884707,
0.03076,-2.279576101,0.03076,5.846884707,
0.03078,-3.375866983,0.03078,6.212315001,
0.0308,-2.645006395,0.0308,6.212315001,
0.03082,-2.279576101,0.03082,5.846884707,
0.03084,-4.472157866,0.03084,5.846884707,
0.03086,-2.645006395,0.03086,5.846884707,
0.03088,-4.83758816,0.03088,5.846884707,
0.0309,-3.375866983,0.0309,5.846884707,
0.03092,-3.010436689,0.03092,5.846884707,
0.03094,-3.010436689,0.03094,5.846884707,
0.03096,-6.299309337,0.03096,5.481454413,
0.03098,-2.645006395,0.03098,6.212315001,
0.031,-3.010436689,0.031,5.846884707,
0.03102,-3.010436689,0.03102,5.846884707,
0.03104,-2.645006395,0.03104,6.212315001,
0.03106,-2.279576101,0.03106,5.846884707,
0.03108,-2.645006395,0.03108,5.846884707,
0.0311,-2.279576101,0.0311,5.116024118,
0.03112,-0.8178549242,0.03112,5.846884707,
0.03114,-0.08699433583,0.03114,5.846884707,
0.03116,-0.08699433583,0.03116,5.481454413,
0.03118,0.6438662525,0.03118,5.846884707,
0.0312,1.374726841,0.0312,5.846884707,
0.03122,1.740157135,0.03122,5.846884707,
0.03124,2.471017723,0.03124,5.846884707,
0.03126,2.471017723,0.03126,6.212315001,
0.03128,2.836448018,0.03128,5.481454413,
0.0313,3.201878312,0.0313,5.846884707,
0.03132,5.029029783,0.03132,5.481454413,
0.03134,2.471017723,0.03134,5.481454413,
0.03136,3.567308606,0.03136,5.481454413,
0.03138,2.471017723,0.03138,6.212315001,
0.0314,3.9327389,0.0314,5.846884707,
0.03142,3.9327389,0.03142,5.116024118,
0.03144,4.298169194,0.03144,6.577745295,
0.03146,2.471017723,0.03146,5.846884707,
0.03148,3.9327389,0.03148,5.846884707,
0.0315,2.836448018,0.0315,6.212315001,
0.03152,3.201878312,0.03152,6.212315001,
0.03154,2.105587429,0.03154,5.846884707,
0.03156,1.374726841,0.03156,5.846884707,
0.03158,-0.8178549242,0.03158,5.846884707,
0.0316,0.6438662525,0.0316,5.116024118,
0.03162,-1.183285218,0.03162,5.846884707,
0.03164,-1.183285218,0.03164,6.577745295,
0.03166,-1.548715513,0.03166,5.846884707,
0.03168,-1.548715513,0.03168,5.846884707,
0.0317,-1.914145807,0.0317,6.212315001,
0.03172,-1.914145807,0.03172,5.846884707,
0.03174,-4.106727572,0.03174,5.481454413,
0.03176,-2.645006395,0.03176,5.846884707,
0.03178,-3.375866983,0.03178,5.481454413,
0.0318,-3.741297278,0.0318,5.481454413,
0.03182,-3.375866983,0.03182,5.846884707,
0.03184,-4.472157866,0.03184,5.846884707,
0.03186,-4.472157866,0.03186,5.481454413,
0.03188,-4.106727572,0.03188,5.846884707,
0.0319,-4.472157866,0.0319,5.116024118,
0.03192,-3.741297278,0.03192,5.481454413,
0.03194,-3.375866983,0.03194,5.846884707,
0.03196,-2.279576101,0.03196,5.846884707,
0.03198,-2.645006395,0.03198,5.846884707,
0.032,-0.8178549242,0.032,6.943175589,
0.03202,-2.279576101,0.03202,5.481454413,
0.03204,-1.548715513,0.03204,5.481454413,
0.03206,-0.45242463,0.03206,6.212315001,
0.03208,-0.08699433583,0.03208,5.846884707,
0.0321,-0.08699433583,0.0321,6.212315001,
0.03212,0.2784359583,0.03212,5.846884707,
0.03214,0.6438662525,0.03214,5.846884707,
0.03216,2.105587429,0.03216,5.481454413,
0.03218,2.471017723,0.03218,5.846884707,
0.0322,2.471017723,0.0322,4.750593824,
0.03222,2.471017723,0.03222,5.481454413,
0.03224,1.374726841,0.03224,6.212315001,
0.03226,3.567308606,0.03226,5.481454413,
0.03228,3.567308606,0.03228,5.481454413,
0.0323,3.567308606,0.0323,5.481454413,
0.03232,2.836448018,0.03232,5.481454413,
0.03234,2.471017723,0.03234,5.846884707,
0.03236,3.567308606,0.03236,5.846884707,
0.03238,3.201878312,0.03238,5.481454413,
0.0324,2.471017723,0.0324,6.212315001,
0.03242,3.567308606,0.03242,6.212315001,
0.03244,2.471017723,0.03244,5.846884707,
0.03246,2.836448018,0.03246,5.481454413,
0.03248,2.471017723,0.03248,5.846884707,
0.0325,1.740157135,0.0325,5.116024118,
0.03252,0.2784359583,0.03252,5.481454413,
0.03254,-0.08699433583,0.03254,6.212315001,
0.03256,-2.645006395,0.03256,5.481454413,
0.03258,-1.183285218,0.03258,5.116024118,
0.0326,-1.548715513,0.0326,5.846884707,
0.03262,-1.914145807,0.03262,5.846884707,
0.03264,-3.010436689,0.03264,5.116024118,
0.03266,-2.279576101,0.03266,6.577745295,
0.03268,-2.645006395,0.03268,4.750593824,
0.0327,-3.741297278,0.0327,4.019733236,
0.03272,-2.645006395,0.03272,6.212315001,
0.03274,-4.83758816,0.03274,5.846884707,
0.03276,-3.741297278,0.03276,5.116024118,
0.03278,-3.741297278,0.03278,5.846884707,
0.0328,-3.741297278,0.0328,6.212315001,
0.03282,-5.568448748,0.03282,5.481454413,
0.03284,-3.010436689,0.03284,6.212315001,
0.03286,-2.645006395,0.03286,5.481454413,
0.03288,-3.010436689,0.03288,5.846884707,
0.0329,-2.279576101,0.0329,6.212315001,
0.03292,-1.914145807,0.03292,5.481454413,
0.03294,-1.914145807,0.03294,5.481454413,
0.03296,-1.183285218,0.03296,5.846884707,
0.03298,-1.183285218,0.03298,5.846884707,
0.033,-0.8178549242,0.033,4.750593824,
0.03302,1.009296547,0.03302,6.212315001,
0.03304,0.2784359583,0.03304,5.116024118,
0.03306,0.6438662525,0.03306,5.846884707,
0.03308,1.374726841,0.03308,6.212315001,
0.0331,1.374726841,0.0331,5.481454413,
0.03312,0.2784359583,0.03312,5.481454413,
0.03314,1.374726841,0.03314,5.846884707,
0.03316,1.740157135,0.03316,5.481454413,
0.03318,3.201878312,0.03318,5.846884707,
0.0332,3.201878312,0.0332,5.846884707,
0.03322,2.471017723,0.03322,5.481454413,
0.03324,4.298169194,0.03324,5.481454413,
0.03326,3.567308606,0.03326,5.846884707,
0.03328,3.567308606,0.03328,5.846884707,
0.0333,3.201878312,0.0333,6.212315001,
0.03332,5.759890371,0.03332,6.212315001,
0.03334,2.105587429,0.03334,5.846884707,
0.03336,3.201878312,0.03336,5.116024118,
0.03338,2.471017723,0.03338,6.212315001,
0.0334,1.009296547,0.0334,5.481454413,
0.03342,3.567308606,0.03342,5.481454413,
0.03344,0.6438662525,0.03344,5.846884707,
0.03346,0.2784359583,0.03346,6.212315001,
0.03348,1.740157135,0.03348,5.481454413,
0.0335,1.009296547,0.0335,5.481454413,
0.03352,-0.08699433583,0.03352,5.846884707,
0.03354,0.2784359583,0.03354,5.481454413,
0.03356,-0.08699433583,0.03356,5.846884707,
0.03358,-2.279576101,0.03358,6.212315001,
0.0336,-1.548715513,0.0336,5.846884707,
0.03362,-3.375866983,0.03362,6.212315001,
0.03364,-3.375866983,0.03364,5.481454413,
0.03366,-3.010436689,0.03366,5.481454413,
0.03368,-3.375866983,0.03368,5.846884707,
0.0337,-3.741297278,0.0337,6.212315001,
0.03372,-1.914145807,0.03372,5.846884707,
0.03374,-5.203018454,0.03374,5.846884707,
0.03376,-5.203018454,0.03376,5.846884707,
0.03378,-4.106727572,0.03378,5.481454413,
0.0338,-3.010436689,0.0338,5.846884707,
0.03382,-4.106727572,0.03382,5.481454413,
0.03384,-1.914145807,0.03384,5.481454413,
0.03386,-2.279576101,0.03386,6.212315001,
0.03388,-2.645006395,0.03388,5.481454413,
0.0339,-2.645006395,0.0339,5.116024118,
0.03392,-0.8178549242,0.03392,5.846884707,
0.03394,-0.8178549242,0.03394,6.212315001,
0.03396,0.2784359583,0.03396,5.481454413,
0.03398,0.6438662525,0.03398,6.212315001,
0.034,0.2784359583,0.034,6.212315001,
0.03402,2.836448018,0.03402,5.481454413,
0.03404,2.105587429,0.03404,5.846884707,
0.03406,2.471017723,0.03406,5.846884707,
0.03408,2.471017723,0.03408,5.116024118,
0.0341,2.836448018,0.0341,6.212315001,
0.03412,3.9327389,0.03412,5.846884707,
0.03414,3.567308606,0.03414,5.481454413,
0.03416,3.9327389,0.03416,5.481454413,
0.03418,2.105587429,0.03418,5.846884707,
0.0342,3.9327389,0.0342,5.481454413,
0.03422,3.9327389,0.03422,6.212315001,
0.03424,3.201878312,0.03424,5.846884707,
0.03426,3.201878312,0.03426,5.481454413,
0.03428,2.836448018,0.03428,6.212315001,
0.0343,1.740157135,0.0343,5.481454413,
0.03432,1.740157135,0.03432,5.481454413,
0.03434,3.9327389,0.03434,6.577745295,
0.03436,-0.08699433583,0.03436,5.846884707,
0.03438,1.009296547,0.03438,5.846884707,
0.0344,0.6438662525,0.0344,5.481454413,
0.03442,-1.183285218,0.03442,5.481454413,
0.03444,-0.8178549242,0.03444,5.481454413,
0.03446,-0.8178549242,0.03446,6.212315001,
0.03448,-2.279576101,0.03448,5.846884707,
0.0345,-1.548715513,0.0345,5.481454413,
0.03452,-0.8178549242,0.03452,6.212315001,
0.03454,-3.375866983,0.03454,6.212315001,
0.03456,-5.933879043,0.03456,5.846884707,
0.03458,-4.106727572,0.03458,5.846884707,
0.0346,-3.375866983,0.0346,6.212315001,
0.03462,-2.645006395,0.03462,5.116024118,
0.03464,-4.472157866,0.03464,6.212315001,
0.03466,-3.375866983,0.03466,5.846884707,
0.03468,-2.645006395,0.03468,5.846884707,
0.0347,-3.010436689,0.0347,5.846884707,
0.03472,-4.106727572,0.03472,5.846884707,
0.03474,-2.645006395,0.03474,5.846884707,
0.03476,-2.279576101,0.03476,5.846884707,
0.03478,-2.645006395,0.03478,6.943175589,
0.0348,-1.183285218,0.0348,5.481454413,
0.03482,-3.010436689,0.03482,6.212315001,
0.03484,-1.183285218,0.03484,5.846884707,
0.03486,-0.45242463,0.03486,5.116024118,
0.03488,-0.45242463,0.03488,5.846884707,
0.0349,-0.8178549242,0.0349,5.481454413,
0.03492,1.009296547,0.03492,5.481454413,
0.03494,0.6438662525,0.03494,6.212315001,
0.03496,1.009296547,0.03496,5.846884707,
0.03498,2.105587429,0.03498,5.846884707,
0.035,2.105587429,0.035,6.212315001,
0.03502,2.471017723,0.03502,5.846884707,
0.03504,2.836448018,0.03504,5.481454413,
0.03506,3.201878312,0.03506,5.481454413,
0.03508,3.201878312,0.03508,5.481454413,
0.0351,3.567308606,0.0351,5.481454413,
0.03512,3.9327389,0.03512,5.481454413,
0.03514,3.201878312,0.03514,5.116024118,
0.03516,3.567308606,0.03516,5.116024118,
0.03518,3.567308606,0.03518,5.481454413,
0.0352,3.201878312,0.0352,5.481454413,
0.03522,4.298169194,0.03522,5.116024118,
0.03524,2.471017723,0.03524,5.846884707,
0.03526,0.2784359583,0.03526,5.481454413,
0.03528,2.105587429,0.03528,6.212315001,
0.0353,2.471017723,0.0353,5.481454413,
0.03532,1.374726841,0.03532,5.481454413,
0.03534,1.009296547,0.03534,5.481454413,
0.03536,2.105587429,0.03536,5.481454413,
0.03538,-0.45242463,0.03538,6.577745295,
0.0354,-2.279576101,0.0354,5.481454413,
0.03542,-2.279576101,0.03542,5.116024118,
0.03544,-1.548715513,0.03544,5.846884707,
0.03546,-3.375866983,0.03546,5.846884707,
0.03548,-3.010436689,0.03548,5.846884707,
0.0355,-2.645006395,0.0355,6.212315001,
0.03552,-2.645006395,0.03552,5.846884707,
0.03554,-0.08699433583,0.03554,5.116024118,
0.03556,-2.645006395,0.03556,6.212315001,
0.03558,-4.106727572,0.03558,5.846884707,
0.0356,-2.645006395,0.0356,5.481454413,
0.03562,-3.010436689,0.03562,5.846884707,
0.03564,-2.279576101,0.03564,5.481454413,
0.03566,-3.741297278,0.03566,5.116024118,
0.03568,-1.183285218,0.03568,6.212315001,
0.0357,-3.741297278,0.0357,5.116024118,
0.03572,-2.645006395,0.03572,4.750593824,
0.03574,-2.279576101,0.03574,6.212315001,
0.03576,-1.914145807,0.03576,5.116024118,
0.03578,-1.548715513,0.03578,5.116024118,
0.0358,-0.08699433583,0.0358,5.481454413,
0.03582,0.2784359583,0.03582,5.481454413,
0.03584,-0.45242463,0.03584,5.481454413,
0.03586,-0.08699433583,0.03586,5.846884707,
0.03588,1.009296547,0.03588,5.481454413,
0.0359,0.6438662525,0.0359,5.116024118,
0.03592,2.105587429,0.03592,6.577745295,
0.03594,2.471017723,0.03594,5.481454413,
0.03596,2.471017723,0.03596,5.116024118,
0.03598,2.105587429,0.03598,5.846884707,
0.036,3.201878312,0.036,5.116024118,
0.03602,2.471017723,0.03602,5.481454413,
0.03604,3.9327389,0.03604,6.212315001,
0.03606,2.471017723,0.03606,4.38516353,
0.03608,0.6438662525,0.03608,5.116024118,
0.0361,5.029029783,0.0361,6.212315001,
0.03612,3.201878312,0.03612,5.481454413,
0.03614,2.836448018,0.03614,5.481454413,
0.03616,2.105587429,0.03616,5.481454413,
0.03618,2.105587429,0.03618,5.481454413,
0.0362,3.201878312,0.0362,5.481454413,
0.03622,2.105587429,0.03622,6.943175589,
0.03624,4.298169194,0.03624,5.116024118,
0.03626,1.740157135,0.03626,5.846884707,
0.03628,0.2784359583,0.03628,5.481454413,
0.0363,-1.914145807,0.0363,5.481454413,
0.03632,-0.45242463,0.03632,5.481454413,
0.03634,-1.548715513,0.03634,5.846884707,
0.03636,-1.548715513,0.03636,5.846884707,
0.03638,-3.741297278,0.03638,5.846884707,
0.0364,-1.914145807,0.0364,6.212315001,
0.03642,-4.472157866,0.03642,4.38516353,
0.03644,-3.010436689,0.03644,5.481454413,
0.03646,-3.010436689,0.03646,5.846884707,
0.03648,-5.933879043,0.03648,5.116024118,
0.0365,-3.010436689,0.0365,5.846884707,
0.03652,-3.375866983,0.03652,7.308605883,
0.03654,-5.568448748,0.03654,5.481454413,
0.03656,-3.741297278,0.03656,5.481454413,
0.03658,-4.106727572,0.03658,6.577745295,
0.0366,-3.741297278,0.0366,5.481454413,
0.03662,-0.45242463,0.03662,4.750593824,
0.03664,-2.279576101,0.03664,5.846884707,
0.03666,-2.279576101,0.03666,5.846884707,
0.03668,-1.183285218,0.03668,5.116024118,
0.0367,-0.8178549242,0.0367,5.846884707,
0.03672,0.6438662525,0.03672,4.019733236,
0.03674,-0.8178549242,0.03674,5.116024118,
0.03676,2.836448018,0.03676,5.846884707,
0.03678,1.009296547,0.03678,5.846884707,
0.0368,2.471017723,0.0368,5.481454413,
0.03682,2.471017723,0.03682,5.846884707,
0.03684,2.836448018,0.03684,5.481454413,
0.03686,2.105587429,0.03686,5.481454413,
0.03688,2.836448018,0.03688,5.846884707,
0.0369,2.105587429,0.0369,5.846884707,
0.03692,2.471017723,0.03692,6.943175589,
0.03694,4.298169194,0.03694,5.846884707,
0.03696,3.9327389,0.03696,5.846884707,
0.03698,3.9327389,0.03698,5.481454413,
0.037,3.567308606,0.037,6.212315001,
0.03702,2.471017723,0.03702,6.577745295,
0.03704,2.105587429,0.03704,5.481454413,
0.03706,4.298169194,0.03706,5.846884707,
0.03708,2.836448018,0.03708,5.481454413,
0.0371,3.9327389,0.0371,5.481454413,
0.03712,2.105587429,0.03712,4.38516353,
0.03714,-0.08699433583,0.03714,5.846884707,
0.03716,1.009296547,0.03716,5.481454413,
0.03718,2.471017723,0.03718,5.116024118,
0.0372,-0.08699433583,0.0372,5.481454413,
0.03722,0.6438662525,0.03722,5.481454413,
0.03724,1.009296547,0.03724,5.846884707,
0.03726,-0.8178549242,0.03726,5.481454413,
0.03728,-0.08699433583,0.03728,5.481454413,
0.0373,-1.548715513,0.0373,5.846884707,
0.03732,-2.279576101,0.03732,5.481454413,
0.03734,-1.914145807,0.03734,5.481454413,
0.03736,-2.645006395,0.03736,5.846884707,
0.03738,-4.472157866,0.03738,5.846884707,
0.0374,-1.183285218,0.0374,5.481454413,
0.03742,-2.645006395,0.03742,6.577745295,
0.03744,-4.106727572,0.03744,5.846884707,
0.03746,-3.375866983,0.03746,5.481454413,
0.03748,-3.741297278,0.03748,5.481454413,
0.0375,-3.741297278,0.0375,5.846884707,
0.03752,-2.645006395,0.03752,5.116024118,
0.03754,-3.375866983,0.03754,5.846884707,
0.03756,-4.83758816,0.03756,6.212315001,
0.03758,-2.279576101,0.03758,5.481454413,
0.0376,-1.548715513,0.0376,5.846884707,
0.03762,-2.645006395,0.03762,4.750593824,
0.03764,-0.08699433583,0.03764,5.481454413,
0.03766,-0.45242463,0.03766,6.212315001,
0.03768,-0.08699433583,0.03768,5.481454413,
0.0377,-0.8178549242,0.0377,5.481454413,
0.03772,-0.08699433583,0.03772,6.212315001,
0.03774,1.374726841,0.03774,5.481454413,
0.03776,1.374726841,0.03776,5.846884707,
0.03778,2.105587429,0.03778,5.846884707,
0.0378,2.105587429,0.0378,5.481454413,
0.03782,3.567308606,0.03782,6.943175589,
0.03784,2.836448018,0.03784,5.846884707,
0.03786,2.471017723,0.03786,6.212315001,
0.03788,4.663599488,0.03788,5.846884707,
0.0379,3.9327389,0.0379,5.846884707,
0.03792,3.9327389,0.03792,5.481454413,
0.03794,3.9327389,0.03794,5.846884707,
0.03796,3.567308606,0.03796,5.846884707,
0.03798,3.201878312,0.03798,5.481454413,
0.038,4.663599488,0.038,5.846884707,
0.03802,3.9327389,0.03802,5.116024118,
0.03804,3.201878312,0.03804,5.846884707,
0.03806,1.740157135,0.03806,5.481454413,
0.03808,2.105587429,0.03808,5.481454413,
0.0381,0.6438662525,0.0381,5.481454413,
0.03812,0.2784359583,0.03812,6.212315001,
0.03814,0.6438662525,0.03814,5.846884707,
0.03816,-0.45242463,0.03816,5.116024118,
0.03818,-0.45242463,0.03818,5.481454413,
0.0382,-1.548715513,0.0382,5.116024118,
0.03822,-1.914145807,0.03822,5.116024118,
0.03824,-2.279576101,0.03824,5.481454413,
0.03826,-2.645006395,0.03826,5.116024118,
0.03828,-2.645006395,0.03828,5.481454413,
0.0383,-2.279576101,0.0383,5.116024118,
0.03832,-4.106727572,0.03832,5.481454413,
0.03834,-2.279576101,0.03834,5.481454413,
0.03836,-4.83758816,0.03836,5.481454413,
0.03838,-3.741297278,0.03838,5.116024118,
0.0384,-3.375866983,0.0384,5.846884707,
0.03842,-3.010436689,0.03842,5.481454413,
0.03844,-3.375866983,0.03844,5.116024118,
0.03846,-3.375866983,0.03846,5.481454413,
0.03848,-0.08699433583,0.03848,5.481454413,
0.0385,-3.375866983,0.0385,5.116024118,
0.03852,-2.645006395,0.03852,5.116024118,
0.03854,-1.183285218,0.03854,5.846884707,
0.03856,-1.183285218,0.03856,5.116024118,
0.03858,-0.45242463,0.03858,5.846884707,
0.0386,-1.183285218,0.0386,5.481454413,
0.03862,-0.45242463,0.03862,5.116024118,
0.03864,1.374726841,0.03864,5.116024118,
0.03866,4.663599488,0.03866,5.116024118,
0.03868,1.374726841,0.03868,5.116024118,
0.0387,1.740157135,0.0387,5.481454413,
0.03872,2.836448018,0.03872,5.481454413,
0.03874,2.471017723,0.03874,5.116024118,
0.03876,3.567308606,0.03876,5.481454413,
0.03878,3.9327389,0.03878,5.846884707,
0.0388,1.740157135,0.0388,5.481454413,
0.03882,4.663599488,0.03882,5.481454413,
0.03884,3.9327389,0.03884,5.116024118,
0.03886,3.201878312,0.03886,5.116024118,
0.03888,3.9327389,0.03888,5.481454413,
0.0389,3.9327389,0.0389,5.116024118,
0.03892,4.298169194,0.03892,4.750593824,
0.03894,3.201878312,0.03894,5.481454413,
0.03896,2.471017723,0.03896,5.116024118,
0.03898,3.567308606,0.03898,4.750593824,
0.039,2.105587429,0.039,5.846884707,
0.03902,1.740157135,0.03902,4.750593824,
0.03904,-0.08699433583,0.03904,5.481454413,
0.03906,1.740157135,0.03906,5.481454413,
0.03908,1.009296547,0.03908,5.481454413,
0.0391,-0.08699433583,0.0391,5.116024118,
0.03912,-1.183285218,0.03912,5.116024118,
0.03914,-0.45242463,0.03914,5.116024118,
0.03916,-1.914145807,0.03916,5.116024118,
0.03918,-2.279576101,0.03918,5.481454413,
0.0392,-2.645006395,0.0392,5.481454413,
0.03922,-1.914145807,0.03922,5.116024118,
0.03924,-2.645006395,0.03924,5.481454413,
0.03926,-3.010436689,0.03926,5.846884707,
0.03928,-3.741297278,0.03928,5.116024118,
0.0393,-2.279576101,0.0393,5.481454413,
0.03932,-3.375866983,0.03932,6.212315001,
0.03934,-3.375866983,0.03934,5.116024118,
0.03936,-3.375866983,0.03936,5.481454413,
0.03938,-2.645006395,0.03938,5.116024118,
0.0394,-1.914145807,0.0394,5.116024118,
0.03942,-2.645006395,0.03942,5.481454413,
0.03944,-0.8178549242,0.03944,5.481454413,
0.03946,-2.279576101,0.03946,5.116024118,
0.03948,-1.183285218,0.03948,5.481454413,
0.0395,-1.914145807,0.0395,5.481454413,
0.03952,-1.183285218,0.03952,5.116024118,
0.03954,0.2784359583,0.03954,5.481454413,
0.03956,0.6438662525,0.03956,5.481454413,
0.03958,-0.8178549242,0.03958,4.750593824,
0.0396,1.740157135,0.0396,5.481454413,
0.03962,3.201878312,0.03962,5.481454413,
0.03964,2.105587429,0.03964,4.38516353,
0.03966,2.836448018,0.03966,5.481454413,
0.03968,2.836448018,0.03968,5.116024118,
0.0397,3.201878312,0.0397,5.116024118,
0.03972,3.567308606,0.03972,5.481454413,
0.03974,3.567308606,0.03974,6.577745295,
0.03976,3.9327389,0.03976,4.750593824,
0.03978,3.9327389,0.03978,6.212315001,
0.0398,4.298169194,0.0398,5.846884707,
0.03982,3.567308606,0.03982,4.750593824,
0.03984,3.9327389,0.03984,5.481454413,
0.03986,4.663599488,0.03986,5.116024118,
0.03988,3.567308606,0.03988,4.750593824,
0.0399,3.201878312,0.0399,5.116024118,
0.03992,4.298169194,0.03992,4.750593824,
0.03994,0.6438662525,0.03994,4.019733236,
0.03996,1.740157135,0.03996,5.481454413,
0.03998,1.740157135,0.03998,4.750593824,
0.04,2.105587429,0.04,5.116024118,
0.04002,-0.08699433583,0.04002,5.481454413,
0.04004,0.2784359583,0.04004,6.212315001,
0.04006,-1.183285218,0.04006,5.481454413,
0.04008,-0.8178549242,0.04008,5.481454413,
0.0401,-1.548715513,0.0401,5.481454413,
0.04012,-2.279576101,0.04012,6.212315001,
0.04014,-3.375866983,0.04014,5.846884707,
0.04016,-2.279576101,0.04016,5.846884707,
0.04018,-3.010436689,0.04018,5.846884707,
0.0402,-3.375866983,0.0402,5.481454413,
0.04022,-3.375866983,0.04022,5.481454413,
0.04024,-2.279576101,0.04024,4.750593824,
0.04026,-3.741297278,0.04026,5.846884707,
0.04028,-3.375866983,0.04028,5.116024118,
0.0403,-3.010436689,0.0403,5.846884707,
0.04032,-5.203018454,0.04032,5.846884707,
0.04034,-4.106727572,0.04034,6.212315001,
0.04036,-1.914145807,0.04036,5.846884707,
0.04038,-2.645006395,0.04038,5.481454413,
0.0404,-3.010436689,0.0404,5.481454413,
0.04042,-1.183285218,0.04042,5.481454413,
0.04044,-1.548715513,0.04044,5.481454413,
0.04046,-1.914145807,0.04046,5.846884707,
0.04048,-1.183285218,0.04048,5.481454413,
0.0405,-0.45242463,0.0405,5.481454413,
0.04052,4.663599488,0.04052,5.116024118,
0.04054,1.374726841,0.04054,6.577745295,
0.04056,2.471017723,0.04056,5.116024118,
0.04058,1.374726841,0.04058,5.481454413,
0.0406,2.471017723,0.0406,5.846884707,
0.04062,2.105587429,0.04062,5.116024118,
0.04064,2.471017723,0.04064,5.116024118,
0.04066,3.567308606,0.04066,5.846884707,
0.04068,3.201878312,0.04068,5.846884707,
0.0407,2.471017723,0.0407,5.481454413,
0.04072,2.836448018,0.04072,6.212315001,
0.04074,3.201878312,0.04074,4.750593824,
0.04076,0.2784359583,0.04076,5.116024118,
0.04078,2.836448018,0.04078,5.481454413,
0.0408,-0.08699433583,0.0408,5.481454413,
0.04082,2.836448018,0.04082,5.481454413,
0.04084,1.740157135,0.04084,5.846884707,
0.04086,2.471017723,0.04086,5.481454413,
0.04088,1.009296547,0.04088,5.116024118,
0.0409,1.740157135,0.0409,5.846884707,
0.04092,-0.45242463,0.04092,5.846884707,
0.04094,1.009296547,0.04094,5.846884707,
0.04096,0.6438662525,0.04096,6.212315001,
0.04098,-0.45242463,0.04098,5.846884707,
0.041,-0.45242463,0.041,5.116024118,
0.04102,-1.914145807,0.04102,5.846884707,
0.04104,-3.741297278,0.04104,5.116024118,
0.04106,-3.375866983,0.04106,5.116024118,
0.04108,-2.279576101,0.04108,5.846884707,
0.0411,-4.472157866,0.0411,5.481454413,
0.04112,-3.375866983,0.04112,5.116024118,
0.04114,-4.106727572,0.04114,6.212315001,
0.04116,-1.914145807,0.04116,5.481454413,
0.04118,-3.375866983,0.04118,5.116024118,
0.0412,-2.645006395,0.0412,6.212315001,
0.04122,-4.106727572,0.04122,5.481454413,
0.04124,-4.106727572,0.04124,5.116024118,
0.04126,-3.741297278,0.04126,5.846884707,
0.04128,-2.645006395,0.04128,5.481454413,
0.0413,-1.183285218,0.0413,5.481454413,
0.04132,-2.279576101,0.04132,5.846884707,
0.04134,-2.279576101,0.04134,5.481454413,
0.04136,-5.203018454,0.04136,5.481454413,
0.04138,-0.08699433583,0.04138,5.846884707,
0.0414,-0.45242463,0.0414,5.116024118,
0.04142,1.374726841,0.04142,5.481454413,
0.04144,1.009296547,0.04144,5.846884707,
0.04146,1.740157135,0.04146,5.481454413,
0.04148,1.009296547,0.04148,5.846884707,
0.0415,2.105587429,0.0415,5.846884707,
0.04152,0.2784359583,0.04152,5.116024118,
0.04154,2.471017723,0.04154,5.116024118,
0.04156,2.105587429,0.04156,5.481454413,
0.04158,0.6438662525,0.04158,6.212315001,
0.0416,4.298169194,0.0416,5.481454413,
0.04162,4.298169194,0.04162,5.846884707,
0.04164,3.567308606,0.04164,5.481454413,
0.04166,2.471017723,0.04166,5.116024118,
0.04168,3.9327389,0.04168,5.846884707,
0.0417,3.201878312,0.0417,5.481454413,
0.04172,3.567308606,0.04172,5.481454413,
0.04174,3.201878312,0.04174,5.481454413,
0.04176,1.009296547,0.04176,5.481454413,
0.04178,1.009296547,0.04178,5.116024118,
0.0418,1.740157135,0.0418,5.846884707,
0.04182,1.740157135,0.04182,5.481454413,
0.04184,0.2784359583,0.04184,5.116024118,
0.04186,1.009296547,0.04186,5.846884707,
0.04188,-0.45242463,0.04188,5.481454413,
0.0419,-0.45242463,0.0419,5.481454413,
0.04192,-2.279576101,0.04192,6.212315001,
0.04194,-1.183285218,0.04194,5.116024118,
0.04196,-1.914145807,0.04196,5.481454413,
0.04198,-1.914145807,0.04198,6.212315001,
0.042,-1.548715513,0.042,5.481454413,
0.04202,-2.645006395,0.04202,5.846884707,
0.04204,-4.472157866,0.04204,5.481454413,
0.04206,-2.279576101,0.04206,5.116024118,
0.04208,-3.375866983,0.04208,5.846884707,
0.0421,-3.741297278,0.0421,5.481454413,
0.04212,-2.645006395,0.04212,5.481454413,
0.04214,-3.741297278,0.04214,5.481454413,
0.04216,-2.645006395,0.04216,5.481454413,
0.04218,-3.010436689,0.04218,5.481454413,
0.0422,-3.741297278,0.0422,5.481454413,
0.04222,-3.375866983,0.04222,5.481454413,
0.04224,-2.279576101,0.04224,5.481454413,
0.04226,-1.914145807,0.04226,5.846884707,
0.04228,-3.010436689,0.04228,5.481454413,
0.0423,-1.183285218,0.0423,5.116024118,
0.04232,-1.914145807,0.04232,5.846884707,
0.04234,-1.914145807,0.04234,5.481454413,
0.04236,1.740157135,0.04236,5.846884707,
0.04238,-0.08699433583,0.04238,5.846884707,
0.0424,2.105587429,0.0424,5.481454413,
0.04242,1.374726841,0.04242,5.481454413,
0.04244,2.105587429,0.04244,5.846884707,
0.04246,1.740157135,0.04246,5.481454413,
0.04248,3.567308606,0.04248,5.116024118,
0.0425,3.201878312,0.0425,5.481454413,
0.04252,2.471017723,0.04252,6.212315001,
0.04254,3.567308606,0.04254,5.481454413,
0.04256,3.201878312,0.04256,5.846884707,
0.04258,3.201878312,0.04258,5.481454413,
0.0426,4.298169194,0.0426,5.846884707,
0.04262,3.9327389,0.04262,5.846884707,
0.04264,3.201878312,0.04264,5.481454413,
0.04266,4.298169194,0.04266,5.481454413,
0.04268,3.201878312,0.04268,5.481454413,
0.0427,2.105587429,0.0427,5.481454413,
0.04272,1.009296547,0.04272,5.481454413,
0.04274,2.471017723,0.04274,5.846884707,
0.04276,1.009296547,0.04276,5.481454413,
0.04278,1.740157135,0.04278,5.481454413,
0.0428,-0.45242463,0.0428,5.481454413,
0.04282,-1.183285218,0.04282,5.846884707,
0.04284,-0.08699433583,0.04284,6.943175589,
0.04286,-0.8178549242,0.04286,5.846884707,
0.04288,-3.741297278,0.04288,5.846884707,
0.0429,-1.183285218,0.0429,5.116024118,
0.04292,-1.914145807,0.04292,5.846884707,
0.04294,-2.645006395,0.04294,5.481454413,
0.04296,-3.741297278,0.04296,6.212315001,
0.04298,-3.375866983,0.04298,5.846884707,
0.043,-3.741297278,0.043,5.481454413,
0.04302,-3.010436689,0.04302,5.481454413,
0.04304,-3.010436689,0.04304,5.846884707,
0.04306,-4.106727572,0.04306,4.750593824,
0.04308,-4.472157866,0.04308,5.116024118,
0.0431,-3.741297278,0.0431,5.481454413,
0.04312,-4.106727572,0.04312,5.481454413,
0.04314,-3.010436689,0.04314,5.481454413,
0.04316,-1.548715513,0.04316,6.212315001,
0.04318,-2.645006395,0.04318,5.481454413,
0.0432,-1.914145807,0.0432,5.481454413,
0.04322,-1.914145807,0.04322,5.846884707,
0.04324,-1.183285218,0.04324,5.116024118,
0.04326,0.2784359583,0.04326,6.577745295,
0.04328,-0.08699433583,0.04328,5.481454413,
0.0433,-0.08699433583,0.0433,5.481454413,
0.04332,1.740157135,0.04332,5.481454413,
0.04334,1.740157135,0.04334,5.481454413,
0.04336,1.374726841,0.04336,5.481454413,
0.04338,2.105587429,0.04338,5.116024118,
0.0434,2.836448018,0.0434,5.846884707,
0.04342,2.471017723,0.04342,5.846884707,
0.04344,2.471017723,0.04344,5.481454413,
0.04346,2.836448018,0.04346,4.750593824,
0.04348,3.201878312,0.04348,5.481454413,
0.0435,5.759890371,0.0435,5.116024118,
0.04352,4.298169194,0.04352,5.846884707,
0.04354,2.105587429,0.04354,5.481454413,
0.04356,3.201878312,0.04356,6.943175589,
0.04358,3.9327389,0.04358,5.846884707,
0.0436,3.567308606,0.0436,5.481454413,
0.04362,3.201878312,0.04362,5.116024118,
0.04364,2.105587429,0.04364,5.846884707,
0.04366,2.471017723,0.04366,6.212315001,
0.04368,0.6438662525,0.04368,5.481454413,
0.0437,1.374726841,0.0437,5.846884707,
0.04372,1.009296547,0.04372,5.481454413,
0.04374,0.6438662525,0.04374,5.481454413,
0.04376,-0.08699433583,0.04376,4.019733236,
0.04378,-1.914145807,0.04378,5.481454413,
0.0438,-0.8178549242,0.0438,5.116024118,
0.04382,-1.914145807,0.04382,5.116024118,
0.04384,-3.741297278,0.04384,5.846884707,
0.04386,-1.548715513,0.04386,4.019733236,
0.04388,-1.548715513,0.04388,4.750593824,
0.0439,-2.279576101,0.0439,5.481454413,
0.04392,-4.106727572,0.04392,5.481454413,
0.04394,-4.106727572,0.04394,5.116024118,
0.04396,-3.010436689,0.04396,6.577745295,
0.04398,-3.010436689,0.04398,5.481454413,
0.044,-4.472157866,0.044,5.481454413,
0.04402,-0.08699433583,0.04402,5.846884707,
0.04404,-3.010436689,0.04404,5.481454413,
0.04406,-3.741297278,0.04406,5.116024118,
0.04408,-3.010436689,0.04408,5.846884707,
0.0441,-1.548715513,0.0441,5.116024118,
0.04412,-2.645006395,0.04412,5.116024118,
0.04414,-1.914145807,0.04414,5.481454413,
0.04416,-0.08699433583,0.04416,4.38516353,
0.04418,-0.45242463,0.04418,4.750593824,
0.0442,-0.45242463,0.0442,5.481454413,
0.04422,2.105587429,0.04422,5.481454413,
0.04424,1.740157135,0.04424,4.750593824,
0.04426,1.009296547,0.04426,5.481454413,
0.04428,-0.8178549242,0.04428,5.481454413,
0.0443,1.009296547,0.0443,5.116024118,
0.04432,2.836448018,0.04432,5.481454413,
0.04434,2.836448018,0.04434,5.116024118,
0.04436,2.836448018,0.04436,6.212315001,
0.04438,3.567308606,0.04438,5.481454413,
0.0444,7.221611548,0.0444,5.481454413,
0.04442,3.201878312,0.04442,5.116024118,
0.04444,3.9327389,0.04444,5.481454413,
0.04446,3.9327389,0.04446,4.750593824,
0.04448,4.663599488,0.04448,5.116024118,
0.0445,3.201878312,0.0445,5.116024118,
0.04452,3.201878312,0.04452,5.116024118,
0.04454,2.836448018,0.04454,4.750593824,
0.04456,4.298169194,0.04456,4.38516353,
0.04458,3.201878312,0.04458,5.116024118,
0.0446,2.105587429,0.0446,4.750593824,
0.04462,2.471017723,0.04462,5.116024118,
0.04464,1.740157135,0.04464,5.481454413,
0.04466,-0.8178549242,0.04466,5.481454413,
0.04468,0.2784359583,0.04468,5.481454413,
0.0447,-0.45242463,0.0447,5.116024118,
0.04472,-1.548715513,0.04472,4.750593824,
0.04474,-0.45242463,0.04474,5.846884707,
0.04476,-1.548715513,0.04476,6.212315001,
0.04478,-3.010436689,0.04478,5.116024118,
0.0448,-2.645006395,0.0448,5.116024118,
0.04482,-3.010436689,0.04482,5.116024118,
0.04484,-2.279576101,0.04484,5.116024118,
0.04486,-3.010436689,0.04486,5.481454413,
0.04488,-3.375866983,0.04488,5.481454413,
0.0449,-4.106727572,0.0449,5.116024118,
0.04492,-2.279576101,0.04492,5.481454413,
0.04494,-3.375866983,0.04494,5.116024118,
0.04496,-3.375866983,0.04496,4.38516353,
0.04498,-2.279576101,0.04498,5.116024118,
0.045,-3.375866983,0.045,5.116024118,
0.04502,-2.279576101,0.04502,5.116024118,
0.04504,-0.8178549242,0.04504,5.116024118,
0.04506,-0.8178549242,0.04506,5.116024118,
0.04508,-1.183285218,0.04508,5.116024118,
0.0451,-0.45242463,0.0451,5.116024118,
0.04512,-0.45242463,0.04512,5.116024118,
0.04514,-0.08699433583,0.04514,5.116024118,
0.04516,0.6438662525,0.04516,5.481454413,
0.04518,1.374726841,0.04518,4.750593824,
0.0452,-0.8178549242,0.0452,4.750593824,
0.04522,2.105587429,0.04522,5.116024118,
0.04524,3.201878312,0.04524,5.846884707,
0.04526,2.471017723,0.04526,5.116024118,
0.04528,1.740157135,0.04528,5.846884707,
0.0453,6.490750959,0.0453,5.481454413,
0.04532,3.201878312,0.04532,6.212315001,
0.04534,4.298169194,0.04534,5.481454413,
0.04536,2.836448018,0.04536,5.116024118,
0.04538,3.9327389,0.04538,5.116024118,
0.0454,4.663599488,0.0454,5.481454413,
0.04542,4.663599488,0.04542,5.481454413,
0.04544,3.567308606,0.04544,5.116024118,
0.04546,3.9327389,0.04546,6.577745295,
0.04548,2.471017723,0.04548,5.846884707,
0.0455,2.836448018,0.0455,5.481454413,
0.04552,2.471017723,0.04552,5.481454413,
0.04554,2.471017723,0.04554,5.481454413,
0.04556,1.009296547,0.04556,5.481454413,
0.04558,0.2784359583,0.04558,5.846884707,
0.0456,0.2784359583,0.0456,5.116024118,
0.04562,-1.183285218,0.04562,5.481454413,
0.04564,-0.8178549242,0.04564,5.481454413,
0.04566,-1.183285218,0.04566,5.116024118,
0.04568,-1.548715513,0.04568,5.846884707,
0.0457,-3.010436689,0.0457,5.116024118,
0.04572,-3.010436689,0.04572,5.116024118,
0.04574,-2.645006395,0.04574,5.481454413,
0.04576,-3.375866983,0.04576,5.481454413,
0.04578,-3.375866983,0.04578,5.116024118,
0.0458,-3.010436689,0.0458,5.116024118,
0.04582,-4.472157866,0.04582,4.750593824,
0.04584,-3.010436689,0.04584,6.212315001,
0.04586,-3.375866983,0.04586,5.116024118,
0.04588,-3.741297278,0.04588,5.116024118,
0.0459,-5.203018454,0.0459,5.846884707,
0.04592,-3.010436689,0.04592,5.116024118,
0.04594,-3.010436689,0.04594,5.116024118,
0.04596,-2.645006395,0.04596,6.212315001,
0.04598,-1.914145807,0.04598,5.481454413,
0.046,-2.645006395,0.046,5.116024118,
0.04602,-2.645006395,0.04602,5.481454413,
0.04604,-1.548715513,0.04604,5.846884707,
0.04606,-1.914145807,0.04606,4.750593824,
0.04608,0.6438662525,0.04608,5.481454413,
0.0461,-0.08699433583,0.0461,5.116024118,
0.04612,0.6438662525,0.04612,5.116024118,
0.04614,1.009296547,0.04614,5.481454413,
0.04616,1.740157135,0.04616,5.481454413,
0.04618,2.105587429,0.04618,4.750593824,
0.0462,2.471017723,0.0462,5.846884707,
0.04622,2.836448018,0.04622,5.481454413,
0.04624,3.201878312,0.04624,5.116024118,
0.04626,4.663599488,0.04626,5.846884707,
0.04628,1.374726841,0.04628,5.116024118,
0.0463,2.836448018,0.0463,5.116024118,
0.04632,3.201878312,0.04632,5.846884707,
0.04634,2.836448018,0.04634,5.116024118,
0.04636,3.567308606,0.04636,5.116024118,
0.04638,3.201878312,0.04638,6.212315001,
0.0464,2.836448018,0.0464,5.481454413,
0.04642,2.836448018,0.04642,4.750593824,
0.04644,2.836448018,0.04644,5.846884707,
0.04646,1.740157135,0.04646,5.116024118,
0.04648,1.374726841,0.04648,5.116024118,
0.0465,2.836448018,0.0465,6.212315001,
0.04652,-0.08699433583,0.04652,5.116024118,
0.04654,3.567308606,0.04654,5.116024118,
0.04656,-0.8178549242,0.04656,6.212315001,
0.04658,-0.8178549242,0.04658,5.481454413,
0.0466,-0.45242463,0.0466,5.481454413,
0.04662,-1.183285218,0.04662,5.846884707,
0.04664,-2.645006395,0.04664,5.116024118,
0.04666,-2.645006395,0.04666,4.750593824,
0.04668,-3.741297278,0.04668,5.481454413,
0.0467,-3.375866983,0.0467,5.481454413,
0.04672,-3.010436689,0.04672,5.116024118,
0.04674,-3.375866983,0.04674,5.846884707,
0.04676,-4.106727572,0.04676,5.481454413,
0.04678,-3.741297278,0.04678,4.750593824,
0.0468,-4.106727572,0.0468,5.481454413,
0.04682,-4.106727572,0.04682,5.116024118,
0.04684,-4.472157866,0.04684,5.116024118,
0.04686,-3.010436689,0.04686,5.481454413,
0.04688,-3.375866983,0.04688,6.577745295,
0.0469,-2.645006395,0.0469,5.116024118,
0.04692,-0.8178549242,0.04692,5.846884707,
0.04694,-2.279576101,0.04694,5.481454413,
0.04696,-1.183285218,0.04696,5.116024118,
0.04698,-0.45242463,0.04698,5.846884707,
0.047,0.2784359583,0.047,5.481454413,
0.04702,0.2784359583,0.04702,5.116024118,
0.04704,0.2784359583,0.04704,5.481454413,
0.04706,0.2784359583,0.04706,5.116024118,
0.04708,1.740157135,0.04708,4.38516353,
0.0471,1.740157135,0.0471,5.481454413,
0.04712,2.105587429,0.04712,5.846884707,
0.04714,2.105587429,0.04714,5.116024118,
0.04716,3.201878312,0.04716,5.481454413,
0.04718,2.471017723,0.04718,6.212315001,
0.0472,3.567308606,0.0472,5.116024118,
0.04722,3.201878312,0.04722,5.846884707,
0.04724,2.471017723,0.04724,5.116024118,
0.04726,2.836448018,0.04726,5.116024118,
0.04728,3.567308606,0.04728,5.481454413,
0.0473,3.201878312,0.0473,5.116024118,
0.04732,2.471017723,0.04732,5.116024118,
0.04734,3.201878312,0.04734,5.846884707,
0.04736,2.105587429,0.04736,5.116024118,
0.04738,1.740157135,0.04738,3.654302942,
0.0474,2.105587429,0.0474,5.481454413,
0.04742,1.374726841,0.04742,5.481454413,
0.04744,-0.8178549242,0.04744,4.750593824,
0.04746,-0.08699433583,0.04746,5.481454413,
0.04748,-0.08699433583,0.04748,4.750593824,
0.0475,-0.8178549242,0.0475,5.116024118,
0.04752,-0.8178549242,0.04752,5.846884707,
0.04754,-1.914145807,0.04754,4.750593824,
0.04756,-1.183285218,0.04756,4.750593824,
0.04758,-2.645006395,0.04758,6.212315001,
0.0476,-3.741297278,0.0476,5.481454413,
0.04762,-3.741297278,0.04762,5.116024118,
0.04764,-3.375866983,0.04764,5.846884707,
0.04766,-3.741297278,0.04766,5.116024118,
0.04768,-1.548715513,0.04768,4.750593824,
0.0477,-5.203018454,0.0477,5.481454413,
0.04772,-3.741297278,0.04772,5.846884707,
0.04774,-3.741297278,0.04774,5.116024118,
0.04776,-3.375866983,0.04776,5.846884707,
0.04778,-3.375866983,0.04778,6.212315001,
0.0478,-1.914145807,0.0478,5.116024118,
0.04782,-2.645006395,0.04782,5.846884707,
0.04784,-3.375866983,0.04784,5.846884707,
0.04786,-2.279576101,0.04786,6.577745295,
0.04788,-0.8178549242,0.04788,6.212315001,
0.0479,-0.08699433583,0.0479,5.481454413,
0.04792,-0.8178549242,0.04792,5.116024118,
0.04794,0.2784359583,0.04794,5.846884707,
0.04796,-0.8178549242,0.04796,5.481454413,
0.04798,1.009296547,0.04798,4.750593824,
0.048,2.105587429,0.048,5.481454413,
0.04802,-1.548715513,0.04802,5.481454413,
0.04804,2.105587429,0.04804,5.481454413,
0.04806,3.567308606,0.04806,5.481454413,
0.04808,2.471017723,0.04808,5.481454413,
0.0481,1.374726841,0.0481,5.116024118,
0.04812,3.567308606,0.04812,5.481454413,
0.04814,3.567308606,0.04814,5.481454413,
0.04816,2.471017723,0.04816,5.116024118,
0.04818,4.298169194,0.04818,5.846884707,
0.0482,1.740157135,0.0482,5.116024118,
0.04822,3.567308606,0.04822,5.116024118,
0.04824,3.201878312,0.04824,5.846884707,
0.04826,2.836448018,0.04826,5.481454413,
0.04828,2.836448018,0.04828,4.750593824,
0.0483,3.9327389,0.0483,5.481454413,
0.04832,2.471017723,0.04832,5.481454413,
0.04834,2.471017723,0.04834,5.481454413,
0.04836,1.740157135,0.04836,5.846884707,
0.04838,1.009296547,0.04838,5.116024118,
0.0484,-0.8178549242,0.0484,5.116024118,
0.04842,0.6438662525,0.04842,5.481454413,
0.04844,-1.183285218,0.04844,5.481454413,
0.04846,-0.8178549242,0.04846,5.116024118,
0.04848,-3.010436689,0.04848,5.846884707,
0.0485,-0.08699433583,0.0485,5.481454413,
0.04852,-2.645006395,0.04852,5.481454413,
0.04854,-2.645006395,0.04854,5.481454413,
0.04856,-4.472157866,0.04856,5.481454413,
0.04858,-3.375866983,0.04858,5.116024118,
0.0486,-3.741297278,0.0486,5.481454413,
0.04862,-4.106727572,0.04862,5.846884707,
0.04864,-3.010436689,0.04864,5.481454413,
0.04866,-3.010436689,0.04866,5.846884707,
0.04868,-4.106727572,0.04868,6.212315001,
0.0487,-5.933879043,0.0487,5.481454413,
0.04872,-3.741297278,0.04872,5.846884707,
0.04874,-2.645006395,0.04874,5.846884707,
0.04876,-2.279576101,0.04876,5.116024118,
0.04878,-3.741297278,0.04878,5.846884707,
0.0488,-1.183285218,0.0488,5.481454413,
0.04882,-0.8178549242,0.04882,5.116024118,
0.04884,-0.8178549242,0.04884,5.481454413,
0.04886,-1.183285218,0.04886,5.481454413,
0.04888,0.2784359583,0.04888,5.481454413,
0.0489,2.105587429,0.0489,5.481454413,
0.04892,0.6438662525,0.04892,5.481454413,
0.04894,1.740157135,0.04894,5.116024118,
0.04896,2.105587429,0.04896,5.846884707,
0.04898,2.105587429,0.04898,5.481454413,
0.049,5.394460077,0.049,5.846884707,
0.04902,3.201878312,0.04902,5.846884707,
0.04904,2.471017723,0.04904,5.846884707,
0.04906,2.105587429,0.04906,5.481454413,
0.04908,3.567308606,0.04908,5.481454413,
0.0491,3.9327389,0.0491,5.481454413,
0.04912,4.663599488,0.04912,5.481454413,
0.04914,3.567308606,0.04914,5.116024118,
0.04916,3.567308606,0.04916,5.116024118,
0.04918,3.567308606,0.04918,5.846884707,
0.0492,2.471017723,0.0492,5.481454413,
0.04922,2.471017723,0.04922,5.481454413,
0.04924,1.740157135,0.04924,5.116024118,
0.04926,1.009296547,0.04926,5.481454413,
0.04928,1.009296547,0.04928,5.481454413,
0.0493,-2.279576101,0.0493,5.116024118,
0.04932,1.009296547,0.04932,5.481454413,
0.04934,-0.08699433583,0.04934,5.481454413,
0.04936,-0.08699433583,0.04936,5.481454413,
0.04938,-0.45242463,0.04938,5.481454413,
0.0494,-0.08699433583,0.0494,5.116024118,
0.04942,-1.914145807,0.04942,5.481454413,
0.04944,-1.914145807,0.04944,5.846884707,
0.04946,-2.645006395,0.04946,5.481454413,
0.04948,-2.645006395,0.04948,5.481454413,
0.0495,-2.645006395,0.0495,5.846884707,
0.04952,-4.472157866,0.04952,5.481454413,
0.04954,-3.375866983,0.04954,5.481454413,
0.04956,-3.741297278,0.04956,5.481454413,
0.04958,-2.645006395,0.04958,5.481454413,
0.0496,-2.645006395,0.0496,5.116024118,
0.04962,-5.568448748,0.04962,5.116024118,
0.04964,-3.010436689,0.04964,5.116024118,
0.04966,-2.645006395,0.04966,5.481454413,
0.04968,-2.645006395,0.04968,5.116024118,
0.0497,-1.914145807,0.0497,5.481454413,
0.04972,-1.914145807,0.04972,5.481454413,
0.04974,-2.279576101,0.04974,5.116024118,
0.04976,0.2784359583,0.04976,5.481454413,
0.04978,-0.45242463,0.04978,5.481454413,
0.0498,-3.375866983,0.0498,4.750593824,
0.04982,-0.08699433583,0.04982,5.481454413,
0.04984,1.374726841,0.04984,4.750593824,
0.04986,1.009296547,0.04986,4.750593824,
0.04988,1.374726841,0.04988,5.481454413,
0.0499,2.105587429,0.0499,5.846884707,
0.04992,2.105587429,0.04992,4.750593824,
0.04994,3.201878312,0.04994,5.116024118,
0.04996,3.9327389,0.04996,5.116024118,
0.04998,3.201878312,0.04998,4.750593824,
0.05,4.298169194,0.05,5.116024118,
0.05002,3.9327389,0.05002,5.481454413,
0.05004,5.029029783,0.05004,4.750593824,
0.05006,3.9327389,0.05006,5.116024118,
0.05008,1.740157135,0.05008,5.116024118,
0.0501,3.9327389,0.0501,4.38516353,
0.05012,4.298169194,0.05012,5.481454413,
0.05014,2.836448018,0.05014,5.481454413,
0.05016,3.567308606,0.05016,5.116024118,
0.05018,2.836448018,0.05018,5.116024118,
0.0502,1.374726841,0.0502,6.212315001,
0.05022,1.374726841,0.05022,5.116024118,
0.05024,2.105587429,0.05024,5.481454413,
0.05026,-0.08699433583,0.05026,5.116024118,
0.05028,-0.08699433583,0.05028,5.116024118,
0.0503,-0.8178549242,0.0503,4.750593824,
0.05032,-2.279576101,0.05032,4.750593824,
0.05034,-1.914145807,0.05034,4.750593824,
0.05036,-1.548715513,0.05036,5.846884707,
0.05038,-3.375866983,0.05038,5.481454413,
0.0504,-1.548715513,0.0504,5.846884707,
0.05042,-3.741297278,0.05042,5.116024118,
0.05044,-1.914145807,0.05044,5.481454413,
0.05046,-5.203018454,0.05046,5.481454413,
0.05048,-2.645006395,0.05048,5.481454413,
0.0505,-4.472157866,0.0505,6.212315001,
0.05052,-2.645006395,0.05052,6.212315001,
0.05054,-3.741297278,0.05054,5.481454413,
0.05056,-3.010436689,0.05056,5.116024118,
0.05058,-5.203018454,0.05058,5.481454413,
0.0506,-3.010436689,0.0506,3.654302942,
0.05062,-2.645006395,0.05062,5.116024118,
0.05064,-2.279576101,0.05064,5.481454413,
0.05066,-1.914145807,0.05066,5.116024118,
0.05068,-1.548715513,0.05068,5.481454413,
0.0507,-1.548715513,0.0507,6.943175589,
0.05072,-0.45242463,0.05072,6.212315001,
0.05074,1.009296547,0.05074,5.481454413,
0.05076,0.2784359583,0.05076,5.116024118,
0.05078,1.009296547,0.05078,5.116024118,
0.0508,1.374726841,0.0508,6.943175589,
0.05082,0.2784359583,0.05082,5.481454413,
0.05084,3.201878312,0.05084,5.116024118,
0.05086,2.836448018,0.05086,5.116024118,
0.05088,2.836448018,0.05088,5.481454413,
0.0509,4.663599488,0.0509,3.654302942,
0.05092,3.567308606,0.05092,5.116024118,
0.05094,3.9327389,0.05094,5.481454413,
0.05096,4.663599488,0.05096,5.116024118,
0.05098,3.9327389,0.05098,5.846884707,
0.051,3.567308606,0.051,5.481454413,
0.05102,4.663599488,0.05102,5.116024118,
0.05104,4.298169194,0.05104,5.481454413,
0.05106,2.836448018,0.05106,5.846884707,
0.05108,6.125320665,0.05108,5.116024118,
0.0511,1.740157135,0.0511,6.212315001,
0.05112,0.6438662525,0.05112,5.481454413,
0.05114,2.105587429,0.05114,5.116024118,
0.05116,1.009296547,0.05116,5.846884707,
0.05118,0.6438662525,0.05118,5.481454413,
0.0512,-0.08699433583,0.0512,4.38516353,
0.05122,0.2784359583,0.05122,5.116024118,
0.05124,-1.548715513,0.05124,5.116024118,
0.05126,-1.914145807,0.05126,5.481454413,
0.05128,-1.548715513,0.05128,5.481454413,
0.0513,-2.279576101,0.0513,6.577745295,
0.05132,-2.279576101,0.05132,5.481454413,
0.05134,-1.914145807,0.05134,5.481454413,
0.05136,-3.741297278,0.05136,5.481454413,
0.05138,-4.472157866,0.05138,5.481454413,
0.0514,-3.375866983,0.0514,4.38516353,
0.05142,-4.472157866,0.05142,5.481454413,
0.05144,-3.010436689,0.05144,5.481454413,
0.05146,-4.106727572,0.05146,5.481454413,
0.05148,-2.645006395,0.05148,5.481454413,
0.0515,-3.741297278,0.0515,5.116024118,
0.05152,-1.183285218,0.05152,5.481454413,
0.05154,-3.375866983,0.05154,5.481454413,
0.05156,-4.106727572,0.05156,5.116024118,
0.05158,-3.741297278,0.05158,5.481454413,
0.0516,-3.375866983,0.0516,6.212315001,
0.05162,-3.010436689,0.05162,5.116024118,
0.05164,-0.08699433583,0.05164,4.750593824,
0.05166,-0.8178549242,0.05166,5.116024118,
0.05168,-0.08699433583,0.05168,5.846884707,
0.0517,1.009296547,0.0517,5.481454413,
0.05172,1.009296547,0.05172,5.481454413,
0.05174,1.374726841,0.05174,5.481454413,
0.05176,0.6438662525,0.05176,5.846884707,
0.05178,3.201878312,0.05178,5.116024118,
0.0518,5.029029783,0.0518,4.750593824,
0.05182,3.9327389,0.05182,6.212315001,
0.05184,2.105587429,0.05184,5.846884707,
0.05186,3.201878312,0.05186,4.750593824,
0.05188,3.9327389,0.05188,5.481454413,
0.0519,1.740157135,0.0519,5.481454413,
0.05192,3.9327389,0.05192,5.116024118,
0.05194,4.663599488,0.05194,5.846884707,
0.05196,4.663599488,0.05196,5.116024118,
0.05198,2.471017723,0.05198,5.116024118,
0.052,2.471017723,0.052,5.481454413,
0.05202,1.374726841,0.05202,5.846884707,
0.05204,2.836448018,0.05204,4.750593824,
0.05206,1.740157135,0.05206,5.481454413,
0.05208,1.009296547,0.05208,5.116024118,
0.0521,1.009296547,0.0521,5.481454413,
0.05212,0.2784359583,0.05212,5.846884707,
0.05214,-0.8178549242,0.05214,5.481454413,
0.05216,-0.45242463,0.05216,5.116024118,
0.05218,0.6438662525,0.05218,5.846884707,
0.0522,-1.914145807,0.0522,4.750593824,
0.05222,-1.914145807,0.05222,5.116024118,
0.05224,-2.279576101,0.05224,5.481454413,
0.05226,-3.375866983,0.05226,5.116024118,
0.05228,-3.010436689,0.05228,5.116024118,
0.0523,-3.010436689,0.0523,5.846884707,
0.05232,-3.375866983,0.05232,4.750593824,
0.05234,-3.375866983,0.05234,5.116024118,
0.05236,-3.741297278,0.05236,5.481454413,
0.05238,-4.83758816,0.05238,5.116024118,
0.0524,-4.472157866,0.0524,4.750593824,
0.05242,-3.741297278,0.05242,5.481454413,
0.05244,-3.010436689,0.05244,5.481454413,
0.05246,-5.568448748,0.05246,5.116024118,
0.05248,-2.645006395,0.05248,5.846884707,
0.0525,-3.741297278,0.0525,5.481454413,
0.05252,-1.548715513,0.05252,5.481454413,
0.05254,-1.183285218,0.05254,5.846884707,
0.05256,-1.548715513,0.05256,5.116024118,
0.05258,-2.279576101,0.05258,5.116024118,
0.0526,-0.08699433583,0.0526,5.481454413,
0.05262,-0.45242463,0.05262,5.116024118,
0.05264,0.2784359583,0.05264,4.38516353,
0.05266,-0.8178549242,0.05266,5.846884707,
0.05268,1.009296547,0.05268,5.116024118,
0.0527,2.471017723,0.0527,5.481454413,
0.05272,2.105587429,0.05272,5.846884707,
0.05274,2.471017723,0.05274,5.116024118,
0.05276,2.471017723,0.05276,5.116024118,
0.05278,2.836448018,0.05278,5.846884707,
0.0528,3.9327389,0.0528,5.116024118,
0.05282,2.105587429,0.05282,4.750593824,
0.05284,2.836448018,0.05284,5.846884707,
0.05286,2.471017723,0.05286,4.750593824,
0.05288,4.298169194,0.05288,4.750593824,
0.0529,2.836448018,0.0529,5.846884707,
0.05292,2.471017723,0.05292,5.116024118,
0.05294,2.836448018,0.05294,5.116024118,
0.05296,3.201878312,0.05296,5.481454413,
0.05298,3.201878312,0.05298,5.481454413,
0.053,1.740157135,0.053,5.116024118,
0.05302,1.009296547,0.05302,6.577745295,
0.05304,1.009296547,0.05304,5.481454413,
0.05306,0.2784359583,0.05306,4.750593824,
0.05308,-0.8178549242,0.05308,5.481454413,
0.0531,-1.548715513,0.0531,5.481454413,
0.05312,-2.645006395,0.05312,4.750593824,
0.05314,-1.183285218,0.05314,5.846884707,
0.05316,-1.914145807,0.05316,5.116024118,
0.05318,-2.279576101,0.05318,5.116024118,
0.0532,-3.375866983,0.0532,5.846884707,
0.05322,-0.8178549242,0.05322,6.212315001,
0.05324,-3.375866983,0.05324,4.750593824,
0.05326,-4.106727572,0.05326,5.481454413,
0.05328,-4.472157866,0.05328,5.116024118,
0.0533,-3.741297278,0.0533,5.481454413,
0.05332,-3.375866983,0.05332,6.212315001,
0.05334,-3.375866983,0.05334,5.116024118,
0.05336,-3.375866983,0.05336,5.116024118,
0.05338,-2.279576101,0.05338,5.846884707,
0.0534,-3.741297278,0.0534,5.116024118,
0.05342,-2.645006395,0.05342,4.38516353,
0.05344,-2.279576101,0.05344,5.846884707,
0.05346,-3.010436689,0.05346,5.481454413,
0.05348,-1.548715513,0.05348,5.116024118,
0.0535,-0.8178549242,0.0535,5.846884707,
0.05352,-0.8178549242,0.05352,5.846884707,
0.05354,-0.8178549242,0.05354,5.116024118,
0.05356,0.2784359583,0.05356,5.481454413,
0.05358,1.009296547,0.05358,5.481454413,
0.0536,1.374726841,0.0536,5.116024118,
0.05362,1.374726841,0.05362,5.846884707,
0.05364,2.471017723,0.05364,5.116024118,
0.05366,0.6438662525,0.05366,5.481454413,
0.05368,2.836448018,0.05368,5.846884707,
0.0537,2.471017723,0.0537,5.481454413,
0.05372,3.567308606,0.05372,5.116024118,
0.05374,3.567308606,0.05374,5.846884707,
0.05376,2.471017723,0.05376,5.481454413,
0.05378,4.298169194,0.05378,5.481454413,
0.0538,3.201878312,0.0538,5.481454413,
0.05382,2.836448018,0.05382,6.212315001,
0.05384,5.029029783,0.05384,5.116024118,
0.05386,4.663599488,0.05386,5.481454413,
0.05388,3.201878312,0.05388,5.481454413,
0.0539,3.567308606,0.0539,5.116024118,
0.05392,1.374726841,0.05392,5.116024118,
0.05394,1.009296547,0.05394,5.481454413,
0.05396,1.740157135,0.05396,4.750593824,
0.05398,1.374726841,0.05398,5.481454413,
0.054,-0.08699433583,0.054,5.481454413,
0.05402,0.2784359583,0.05402,5.846884707,
0.05404,-0.45242463,0.05404,5.481454413,
0.05406,-1.914145807,0.05406,5.116024118,
0.05408,-1.548715513,0.05408,5.116024118,
0.0541,-2.279576101,0.0541,5.846884707,
0.05412,-2.645006395,0.05412,5.846884707,
0.05414,-1.183285218,0.05414,5.116024118,
0.05416,-1.914145807,0.05416,4.38516353,
0.05418,-2.645006395,0.05418,5.481454413,
0.0542,-4.472157866,0.0542,4.38516353,
0.05422,-2.279576101,0.05422,5.116024118,
0.05424,-4.83758816,0.05424,4.38516353,
0.05426,-3.741297278,0.05426,5.116024118,
0.05428,-3.010436689,0.05428,5.481454413,
0.0543,-4.106727572,0.0543,5.481454413,
0.05432,-5.203018454,0.05432,5.481454413,
0.05434,-3.010436689,0.05434,5.481454413,
0.05436,-2.279576101,0.05436,5.116024118,
0.05438,-1.914145807,0.05438,5.481454413,
0.0544,-2.279576101,0.0544,5.481454413,
0.05442,-2.645006395,0.05442,5.846884707,
0.05444,-0.45242463,0.05444,5.116024118,
0.05446,-0.08699433583,0.05446,5.481454413,
0.05448,-0.8178549242,0.05448,5.846884707,
0.0545,1.374726841,0.0545,5.116024118,
0.05452,1.374726841,0.05452,5.116024118,
0.05454,-0.8178549242,0.05454,5.116024118,
0.05456,2.105587429,0.05456,5.116024118,
0.05458,3.201878312,0.05458,5.846884707,
0.0546,3.9327389,0.0546,5.116024118,
0.05462,3.9327389,0.05462,4.750593824,
0.05464,5.394460077,0.05464,5.116024118,
0.05466,3.9327389,0.05466,5.116024118,
0.05468,3.9327389,0.05468,4.750593824,
0.0547,3.9327389,0.0547,5.481454413,
0.05472,3.567308606,0.05472,5.116024118,
0.05474,2.471017723,0.05474,4.750593824,
0.05476,3.9327389,0.05476,5.481454413,
0.05478,2.836448018,0.05478,5.116024118,
0.0548,3.567308606,0.0548,5.116024118,
0.05482,2.836448018,0.05482,5.481454413,
0.05484,0.6438662525,0.05484,5.481454413,
0.05486,4.298169194,0.05486,5.481454413,
0.05488,2.105587429,0.05488,5.481454413,
0.0549,-1.914145807,0.0549,5.116024118,
0.05492,1.374726841,0.05492,5.116024118,
0.05494,-0.45242463,0.05494,5.481454413,
0.05496,-1.183285218,0.05496,5.481454413,
0.05498,-1.183285218,0.05498,5.116024118,
0.055,-0.8178549242,0.055,5.481454413,
0.05502,-2.645006395,0.05502,5.481454413,
0.05504,-1.914145807,0.05504,5.116024118,
0.05506,-1.914145807,0.05506,5.481454413,
0.05508,-3.375866983,0.05508,5.116024118,
0.0551,-2.645006395,0.0551,5.116024118,
0.05512,-3.010436689,0.05512,5.481454413,
0.05514,-3.375866983,0.05514,5.481454413,
0.05516,-2.645006395,0.05516,5.116024118,
0.05518,-3.741297278,0.05518,5.481454413,
0.0552,-5.203018454,0.0552,5.846884707,
0.05522,-4.106727572,0.05522,5.116024118,
0.05524,-3.741297278,0.05524,5.481454413,
0.05526,-4.472157866,0.05526,5.116024118,
0.05528,-4.106727572,0.05528,5.116024118,
0.0553,-1.914145807,0.0553,5.481454413,
0.05532,-1.914145807,0.05532,5.116024118,
0.05534,-3.010436689,0.05534,4.38516353,
0.05536,-1.183285218,0.05536,5.116024118,
0.05538,-3.741297278,0.05538,5.116024118,
0.0554,0.6438662525,0.0554,5.481454413,
0.05542,-0.45242463,0.05542,4.750593824,
0.05544,1.009296547,0.05544,5.116024118,
0.05546,1.374726841,0.05546,6.577745295,
0.05548,0.6438662525,0.05548,4.750593824,
0.0555,2.471017723,0.0555,5.116024118,
0.05552,2.836448018,0.05552,4.750593824,
0.05554,3.201878312,0.05554,4.38516353,
0.05556,2.471017723,0.05556,5.116024118,
0.05558,3.567308606,0.05558,5.116024118,
0.0556,3.567308606,0.0556,5.116024118,
0.05562,5.394460077,0.05562,5.116024118,
0.05564,5.394460077,0.05564,5.116024118,
0.05566,3.9327389,0.05566,5.116024118,
0.05568,3.9327389,0.05568,5.846884707,
0.0557,3.567308606,0.0557,5.116024118,
0.05572,2.836448018,0.05572,5.481454413,
0.05574,1.374726841,0.05574,5.481454413,
0.05576,2.471017723,0.05576,5.481454413,
0.05578,2.105587429,0.05578,4.750593824,
0.0558,1.740157135,0.0558,5.116024118,
0.05582,0.6438662525,0.05582,5.481454413,
0.05584,1.740157135,0.05584,5.116024118,
0.05586,-0.08699433583,0.05586,5.481454413,
0.05588,-1.548715513,0.05588,5.481454413,
0.0559,-1.183285218,0.0559,5.116024118,
0.05592,-2.279576101,0.05592,5.481454413,
0.05594,-1.183285218,0.05594,5.116024118,
0.05596,-1.548715513,0.05596,5.116024118,
0.05598,-3.741297278,0.05598,5.481454413,
0.056,-3.010436689,0.056,5.116024118,
0.05602,-2.645006395,0.05602,5.116024118,
0.05604,-2.279576101,0.05604,5.846884707,
0.05606,-4.106727572,0.05606,5.116024118,
0.05608,-3.375866983,0.05608,5.116024118,
0.0561,-4.83758816,0.0561,5.481454413,
0.05612,-3.741297278,0.05612,5.116024118,
0.05614,-4.83758816,0.05614,5.481454413,
0.05616,-4.106727572,0.05616,5.481454413,
0.05618,-2.279576101,0.05618,5.116024118,
0.0562,-2.645006395,0.0562,4.750593824,
0.05622,-3.010436689,0.05622,5.846884707,
0.05624,-2.645006395,0.05624,5.116024118,
0.05626,-1.914145807,0.05626,5.116024118,
0.05628,-1.183285218,0.05628,5.116024118,
0.0563,-1.183285218,0.0563,5.116024118,
0.05632,-0.45242463,0.05632,5.846884707,
0.05634,0.2784359583,0.05634,6.577745295,
0.05636,0.6438662525,0.05636,4.750593824,
0.05638,1.740157135,0.05638,5.481454413,
0.0564,1.374726841,0.0564,5.481454413,
0.05642,1.009296547,0.05642,5.116024118,
0.05644,2.471017723,0.05644,5.846884707,
0.05646,2.105587429,0.05646,5.481454413,
0.05648,3.201878312,0.05648,5.116024118,
0.0565,3.201878312,0.0565,5.481454413,
0.05652,2.471017723,0.05652,5.481454413,
0.05654,3.201878312,0.05654,3.654302942,
0.05656,4.298169194,0.05656,5.481454413,
0.05658,3.9327389,0.05658,5.846884707,
0.0566,7.587041842,0.0566,5.481454413,
0.05662,3.9327389,0.05662,5.846884707,
0.05664,3.9327389,0.05664,7.308605883,
0.05666,3.201878312,0.05666,5.116024118,
0.05668,2.836448018,0.05668,4.38516353,
0.0567,1.374726841,0.0567,5.481454413,
0.05672,2.105587429,0.05672,5.481454413,
0.05674,1.740157135,0.05674,4.019733236,
0.05676,2.105587429,0.05676,5.481454413,
0.05678,0.6438662525,0.05678,4.750593824,
0.0568,-0.08699433583,0.0568,5.481454413,
0.05682,0.6438662525,0.05682,5.116024118,
0.05684,-0.45242463,0.05684,5.481454413,
0.05686,-1.183285218,0.05686,5.116024118,
0.05688,-3.010436689,0.05688,5.481454413,
0.0569,-1.914145807,0.0569,5.116024118,
0.05692,-1.548715513,0.05692,5.481454413,
0.05694,-4.472157866,0.05694,6.212315001,
0.05696,-2.645006395,0.05696,5.481454413,
0.05698,-3.741297278,0.05698,5.481454413,
0.057,-3.741297278,0.057,5.481454413,
0.05702,-3.375866983,0.05702,5.116024118,
0.05704,-4.106727572,0.05704,4.019733236,
0.05706,-3.741297278,0.05706,5.481454413,
0.05708,-4.106727572,0.05708,5.116024118,
0.0571,-1.914145807,0.0571,5.116024118,
0.05712,-3.741297278,0.05712,5.481454413,
0.05714,-1.914145807,0.05714,6.577745295,
0.05716,-1.914145807,0.05716,5.481454413,
0.05718,-2.645006395,0.05718,5.481454413,
0.0572,-1.548715513,0.0572,5.116024118,
0.05722,-1.548715513,0.05722,5.481454413,
0.05724,-0.8178549242,0.05724,4.750593824,
0.05726,0.6438662525,0.05726,4.750593824,
0.05728,0.6438662525,0.05728,5.846884707,
0.0573,-3.010436689,0.0573,5.116024118,
0.05732,0.2784359583,0.05732,5.116024118,
0.05734,1.374726841,0.05734,5.116024118,
0.05736,0.2784359583,0.05736,5.481454413,
0.05738,2.105587429,0.05738,5.116024118,
0.0574,2.471017723,0.0574,5.481454413,
0.05742,2.105587429,0.05742,5.481454413,
0.05744,3.567308606,0.05744,5.846884707,
0.05746,3.9327389,0.05746,5.116024118,
0.05748,3.9327389,0.05748,5.481454413,
0.0575,6.125320665,0.0575,5.116024118,
0.05752,3.567308606,0.05752,5.116024118,
0.05754,3.567308606,0.05754,5.116024118,
0.05756,3.201878312,0.05756,5.116024118,
0.05758,3.567308606,0.05758,5.481454413,
0.0576,2.836448018,0.0576,5.116024118,
0.05762,2.836448018,0.05762,4.38516353,
0.05764,3.201878312,0.05764,5.116024118,
0.05766,2.471017723,0.05766,4.750593824,
0.05768,3.201878312,0.05768,4.750593824,
0.0577,0.6438662525,0.0577,5.481454413,
0.05772,1.740157135,0.05772,5.116024118,
0.05774,1.009296547,0.05774,5.481454413,
0.05776,-0.08699433583,0.05776,5.116024118,
0.05778,-1.183285218,0.05778,5.116024118,
0.0578,-0.45242463,0.0578,5.116024118,
0.05782,-1.183285218,0.05782,5.481454413,
0.05784,-1.183285218,0.05784,4.750593824,
0.05786,-1.183285218,0.05786,5.116024118,
0.05788,-2.645006395,0.05788,5.846884707,
0.0579,-3.741297278,0.0579,5.116024118,
0.05792,-3.010436689,0.05792,5.481454413,
0.05794,-3.010436689,0.05794,6.212315001,
0.05796,-3.010436689,0.05796,5.481454413,
0.05798,-1.914145807,0.05798,5.481454413,
0.058,-3.010436689,0.058,5.116024118,
0.05802,-3.010436689,0.05802,4.750593824,
0.05804,-3.010436689,0.05804,4.750593824,
0.05806,-4.106727572,0.05806,5.481454413,
0.05808,-2.279576101,0.05808,5.481454413,
0.0581,-2.279576101,0.0581,4.38516353,
0.05812,-1.914145807,0.05812,5.481454413,
0.05814,-2.279576101,0.05814,4.750593824,
0.05816,-1.183285218,0.05816,5.481454413,
0.05818,0.6438662525,0.05818,5.116024118,
0.0582,-0.8178549242,0.0582,5.116024118,
0.05822,0.6438662525,0.05822,5.481454413,
0.05824,-0.8178549242,0.05824,5.481454413,
0.05826,1.009296547,0.05826,4.750593824,
0.05828,1.740157135,0.05828,5.481454413,
0.0583,2.471017723,0.0583,4.750593824,
0.05832,2.836448018,0.05832,4.38516353,
