"A0_accX_x","A0_accX_y","A1_rmsX_x","A1_rmsX_y"
0,3.190440344,0,4.019733236,
2e-05,4.286731226,2e-05,4.019733236,
4e-05,2.459579755,4e-05,4.019733236,
6e-05,2.094149461,6e-05,3.288872648,
8e-05,0.9978585785,8e-05,3.654302942,
0.0001,0.6324282843,0.0001,4.38516353,
0.00012,0.6324282843,0.00012,4.38516353,
0.00014,-0.4638625982,0.00014,4.019733236,
0.00016,-0.09843230404,0.00016,4.019733236,
0.00018,-0.4638625982,0.00018,4.38516353,
0.0002,-1.925583775,0.0002,3.654302942,
0.00022,-1.560153481,0.00022,4.019733236,
0.00024,-3.021874657,0.00024,4.019733236,
0.00026,-2.291014069,0.00026,4.750593824,
0.00028,-3.752735246,0.00028,4.38516353,
0.0003,-3.387304952,0.0003,4.019733236,
0.00032,-1.560153481,0.00032,3.654302942,
0.00034,-1.194723187,0.00034,4.38516353,
0.00036,-3.752735246,0.00036,4.019733236,
0.00038,-4.11816554,0.00038,3.288872648,
0.0004,-3.021874657,0.0004,4.38516353,
0.00042,-3.752735246,0.00042,4.019733236,
0.00044,-3.387304952,0.00044,4.019733236,
0.00046,-2.291014069,0.00046,4.019733236,
0.00048,-1.194723187,0.00048,4.38516353,
0.0005,-2.291014069,0.0005,3.654302942,
0.00052,-1.194723187,0.00052,4.019733236,
0.00054,-1.194723187,0.00054,4.019733236,
0.00056,-4.483595834,0.00056,3.654302942,
0.00058,0.6324282843,0.00058,4.38516353,
0.0006,0.2669979901,0.0006,4.38516353,
0.00062,0.2669979901,0.00062,3.654302942,
0.00064,0.9978585785,0.00064,4.38516353,
0.00066,0.9978585785,0.00066,4.38516353,
0.00068,1.363288873,0.00068,4.019733236,
0.0007,2.825010049,0.0007,4.019733236,
0.00072,1.728719167,0.00072,4.019733236,
0.00074,0.9978585785,0.00074,3.654302942,
0.00076,3.190440344,0.00076,4.38516353,
0.00078,2.094149461,0.00078,4.019733236,
0.0008,3.555870638,0.0008,4.750593824,
0.00082,3.921300932,0.00082,4.38516353,
0.00084,3.921300932,0.00084,4.750593824,
0.00086,3.555870638,0.00086,4.38516353,
0.00088,2.825010049,0.00088,4.38516353,
0.0009,3.921300932,0.0009,4.019733236,
0.00092,3.190440344,0.00092,4.750593824,
0.00094,2.094149461,0.00094,4.750593824,
0.00096,2.825010049,0.00096,4.019733236,
0.00098,2.825010049,0.00098,4.750593824,
0.001,2.459579755,0.001,4.38516353,
0.00102,1.728719167,0.00102,4.38516353,
0.00104,1.363288873,0.00104,3.654302942,
0.00106,-0.09843230404,0.00106,4.750593824,
0.00108,-0.09843230404,0.00108,4.38516353,
0.0011,-1.194723187,0.0011,4.750593824,
0.00112,-1.925583775,0.00112,4.38516353,
0.00114,-3.021874657,0.00114,4.019733236,
0.00116,-2.656444363,0.00116,4.750593824,
0.00118,-2.656444363,0.00118,4.019733236,
0.0012,-2.656444363,0.0012,4.38516353,
0.00122,-3.387304952,0.00122,3.654302942,
0.00124,-3.752735246,0.00124,4.019733236,
0.00126,-3.752735246,0.00126,4.750593824,
0.00128,-4.11816554,0.00128,4.38516353,
0.0013,-4.11816554,0.0013,3.654302942,
0.00132,-3.021874657,0.00132,4.750593824,
0.00134,-5.945317011,0.00134,4.019733236,
0.00136,-4.483595834,0.00136,4.38516353,
0.00138,-3.021874657,0.00138,5.116024118,
0.0014,-3.387304952,0.0014,4.019733236,
0.00142,-3.387304952,0.00142,4.019733236,
0.00144,-2.656444363,0.00144,4.750593824,
0.00146,-2.656444363,0.00146,4.38516353,
0.00148,-1.560153481,0.00148,4.38516353,
0.0015,-2.291014069,0.0015,4.750593824,
0.00152,-0.8292928924,0.00152,4.019733236,
0.00154,-0.09843230404,0.00154,4.38516353,
0.00156,0.2669979901,0.00156,5.116024118,
0.00158,0.9978585785,0.00158,4.38516353,
0.0016,0.6324282843,0.0016,3.654302942,
0.00162,0.9978585785,0.00162,4.750593824,
0.00164,2.094149461,0.00164,4.38516353,
0.00166,2.094149461,0.00166,4.019733236,
0.00168,2.825010049,0.00168,4.750593824,
0.0017,1.728719167,0.0017,4.38516353,
0.00172,3.190440344,0.00172,4.019733236,
0.00174,5.017591814,0.00174,4.750593824,
0.00176,3.190440344,0.00176,4.38516353,
0.00178,3.921300932,0.00178,4.019733236,
0.0018,2.459579755,0.0018,4.750593824,
0.00182,3.190440344,0.00182,4.019733236,
0.00184,3.190440344,0.00184,4.38516353,
0.00186,2.825010049,0.00186,5.116024118,
0.00188,2.094149461,0.00188,4.38516353,
0.0019,2.094149461,0.0019,4.019733236,
0.00192,1.363288873,0.00192,4.750593824,
0.00194,-0.09843230404,0.00194,4.38516353,
0.00196,-0.4638625982,0.00196,3.654302942,
0.00198,0.2669979901,0.00198,4.750593824,
0.002,-0.8292928924,0.002,4.38516353,
0.00202,-0.4638625982,0.00202,4.019733236,
0.00204,-0.8292928924,0.00204,4.750593824,
0.00206,-1.925583775,0.00206,4.019733236,
0.00208,-2.291014069,0.00208,4.019733236,
0.0021,-2.291014069,0.0021,4.019733236,
0.00212,-1.560153481,0.00212,4.019733236,
0.00214,-1.925583775,0.00214,4.019733236,
0.00216,-1.925583775,0.00216,4.750593824,
0.00218,-4.11816554,0.00218,4.38516353,
0.0022,-3.387304952,0.0022,4.38516353,
0.00222,-4.11816554,0.00222,4.750593824,
0.00224,-4.483595834,0.00224,4.38516353,
0.00226,-3.021874657,0.00226,4.019733236,
0.00228,-3.752735246,0.00228,5.116024118,
0.0023,-3.021874657,0.0023,4.019733236,
0.00232,-3.021874657,0.00232,4.019733236,
0.00234,-2.656444363,0.00234,4.750593824,
0.00236,-3.021874657,0.00236,4.38516353,
0.00238,-2.656444363,0.00238,4.019733236,
0.0024,-1.560153481,0.0024,4.750593824,
0.00242,-1.560153481,0.00242,5.116024118,
0.00244,-3.021874657,0.00244,3.654302942,
0.00246,-0.4638625982,0.00246,4.750593824,
0.00248,-0.09843230404,0.00248,4.38516353,
0.0025,1.728719167,0.0025,4.019733236,
0.00252,1.363288873,0.00252,4.750593824,
0.00254,0.9978585785,0.00254,4.019733236,
0.00256,0.6324282843,0.00256,3.288872648,
0.00258,3.190440344,0.00258,4.38516353,
0.0026,0.9978585785,0.0026,4.019733236,
0.00262,3.190440344,0.00262,3.654302942,
0.00264,3.190440344,0.00264,4.38516353,
0.00266,3.555870638,0.00266,4.019733236,
0.00268,2.825010049,0.00268,4.019733236,
0.0027,3.921300932,0.0027,4.750593824,
0.00272,2.825010049,0.00272,4.750593824,
0.00274,5.017591814,0.00274,4.38516353,
0.00276,3.190440344,0.00276,4.750593824,
0.00278,2.825010049,0.00278,4.750593824,
0.0028,3.190440344,0.0028,4.019733236,
0.00282,1.363288873,0.00282,4.750593824,
0.00284,2.459579755,0.00284,4.019733236,
0.00286,1.728719167,0.00286,4.019733236,
0.00288,1.363288873,0.00288,5.116024118,
0.0029,0.2669979901,0.0029,4.38516353,
0.00292,0.2669979901,0.00292,4.019733236,
0.00294,0.2669979901,0.00294,5.116024118,
0.00296,-1.194723187,0.00296,4.38516353,
0.00298,-1.560153481,0.00298,4.019733236,
0.003,0.9978585785,0.003,4.750593824,
0.00302,-1.925583775,0.00302,4.38516353,
0.00304,-2.291014069,0.00304,4.38516353,
0.00306,-2.656444363,0.00306,4.750593824,
0.00308,-3.021874657,0.00308,3.654302942,
0.0031,-4.11816554,0.0031,3.654302942,
0.00312,-4.11816554,0.00312,4.750593824,
0.00314,-4.11816554,0.00314,4.38516353,
0.00316,-4.11816554,0.00316,4.019733236,
0.00318,-1.925583775,0.00318,5.481454413,
0.0032,-4.11816554,0.0032,4.38516353,
0.00322,-3.752735246,0.00322,4.019733236,
0.00324,-3.021874657,0.00324,4.750593824,
0.00326,-3.387304952,0.00326,4.019733236,
0.00328,-2.291014069,0.00328,4.38516353,
0.0033,-3.021874657,0.0033,4.750593824,
0.00332,-2.656444363,0.00332,3.654302942,
0.00334,0.6324282843,0.00334,4.019733236,
0.00336,-1.194723187,0.00336,4.38516353,
0.00338,-1.194723187,0.00338,3.288872648,
0.0034,-0.09843230404,0.0034,4.38516353,
0.00342,0.9978585785,0.00342,4.750593824,
0.00344,0.6324282843,0.00344,4.38516353,
0.00346,2.459579755,0.00346,4.38516353,
0.00348,0.6324282843,0.00348,4.750593824,
0.0035,2.459579755,0.0035,4.38516353,
0.00352,3.190440344,0.00352,4.38516353,
0.00354,2.094149461,0.00354,4.38516353,
0.00356,3.190440344,0.00356,4.750593824,
0.00358,3.555870638,0.00358,5.481454413,
0.0036,4.286731226,0.0036,4.750593824,
0.00362,3.190440344,0.00362,4.38516353,
0.00364,3.921300932,0.00364,4.019733236,
0.00366,3.921300932,0.00366,4.38516353,
0.00368,2.825010049,0.00368,3.654302942,
0.0037,4.65216152,0.0037,4.38516353,
0.00372,5.017591814,0.00372,4.38516353,
0.00374,2.459579755,0.00374,4.38516353,
0.00376,3.921300932,0.00376,4.38516353,
0.00378,1.728719167,0.00378,5.481454413,
0.0038,1.728719167,0.0038,4.38516353,
0.00382,1.363288873,0.00382,4.019733236,
0.00384,0.9978585785,0.00384,4.750593824,
0.00386,-0.09843230404,0.00386,4.38516353,
0.00388,-0.09843230404,0.00388,4.750593824,
0.0039,-0.09843230404,0.0039,4.38516353,
0.00392,-1.925583775,0.00392,4.750593824,
0.00394,-1.560153481,0.00394,4.019733236,
0.00396,-1.925583775,0.00396,4.750593824,
0.00398,-3.021874657,0.00398,4.38516353,
0.004,-4.849026128,0.004,3.654302942,
0.00402,-2.656444363,0.00402,4.750593824,
0.00404,-3.752735246,0.00404,4.38516353,
0.00406,-2.656444363,0.00406,4.38516353,
0.00408,-5.945317011,0.00408,4.019733236,
0.0041,-5.579886717,0.0041,4.019733236,
0.00412,-3.752735246,0.00412,4.38516353,
0.00414,-3.021874657,0.00414,5.116024118,
0.00416,-2.291014069,0.00416,4.019733236,
0.00418,-3.387304952,0.00418,4.750593824,
0.0042,-1.925583775,0.0042,4.750593824,
0.00422,-5.214456422,0.00422,4.019733236,
0.00424,-1.925583775,0.00424,4.38516353,
0.00426,-1.560153481,0.00426,4.38516353,
0.00428,-1.925583775,0.00428,4.019733236,
0.0043,1.363288873,0.0043,4.019733236,
0.00432,-0.4638625982,0.00432,4.750593824,
0.00434,-0.4638625982,0.00434,4.38516353,
0.00436,-0.09843230404,0.00436,4.019733236,
0.00438,1.363288873,0.00438,4.019733236,
0.0044,0.2669979901,0.0044,4.38516353,
0.00442,2.094149461,0.00442,4.019733236,
0.00444,1.363288873,0.00444,4.750593824,
0.00446,3.190440344,0.00446,4.750593824,
0.00448,2.094149461,0.00448,4.38516353,
0.0045,2.094149461,0.0045,4.750593824,
0.00452,2.825010049,0.00452,4.750593824,
0.00454,3.555870638,0.00454,4.38516353,
0.00456,6.479312991,0.00456,4.38516353,
0.00458,2.825010049,0.00458,5.116024118,
0.0046,5.748452403,0.0046,4.38516353,
0.00462,4.286731226,0.00462,4.750593824,
0.00464,2.825010049,0.00464,4.750593824,
0.00466,2.825010049,0.00466,4.019733236,
0.00468,3.190440344,0.00468,4.38516353,
0.0047,3.555870638,0.0047,4.750593824,
0.00472,0.9978585785,0.00472,4.38516353,
0.00474,2.094149461,0.00474,4.750593824,
0.00476,-0.09843230404,0.00476,4.38516353,
0.00478,1.728719167,0.00478,4.750593824,
0.0048,2.094149461,0.0048,4.38516353,
0.00482,-1.194723187,0.00482,4.38516353,
0.00484,-2.291014069,0.00484,4.38516353,
0.00486,-0.09843230404,0.00486,4.750593824,
0.00488,-0.4638625982,0.00488,4.38516353,
0.0049,-1.925583775,0.0049,2.923442353,
0.00492,-1.925583775,0.00492,5.116024118,
0.00494,-3.752735246,0.00494,3.654302942,
0.00496,-3.021874657,0.00496,4.750593824,
0.00498,-3.021874657,0.00498,4.38516353,
0.005,-4.483595834,0.005,4.38516353,
0.00502,-3.387304952,0.00502,4.38516353,
0.00504,-3.387304952,0.00504,4.750593824,
0.00506,-6.310747305,0.00506,4.38516353,
0.00508,-3.021874657,0.00508,4.750593824,
0.0051,-2.656444363,0.0051,4.38516353,
0.00512,-3.752735246,0.00512,4.38516353,
0.00514,-2.656444363,0.00514,4.38516353,
0.00516,-1.560153481,0.00516,4.750593824,
0.00518,-2.656444363,0.00518,4.38516353,
0.0052,-0.09843230404,0.0052,4.38516353,
0.00522,-0.8292928924,0.00522,4.38516353,
0.00524,-0.09843230404,0.00524,4.38516353,
0.00526,-0.09843230404,0.00526,4.38516353,
0.00528,-2.291014069,0.00528,4.750593824,
0.0053,1.728719167,0.0053,3.654302942,
0.00532,0.9978585785,0.00532,4.38516353,
0.00534,2.459579755,0.00534,4.019733236,
0.00536,2.094149461,0.00536,4.38516353,
0.00538,2.825010049,0.00538,4.38516353,
0.0054,1.363288873,0.0054,4.38516353,
0.00542,3.555870638,0.00542,4.38516353,
0.00544,3.921300932,0.00544,4.38516353,
0.00546,3.921300932,0.00546,3.654302942,
0.00548,4.286731226,0.00548,3.654302942,
0.0055,1.363288873,0.0055,4.019733236,
0.00552,3.190440344,0.00552,4.019733236,
0.00554,3.921300932,0.00554,3.654302942,
0.00556,4.286731226,0.00556,4.019733236,
0.00558,2.825010049,0.00558,3.654302942,
0.0056,3.555870638,0.0056,4.38516353,
0.00562,2.825010049,0.00562,4.38516353,
0.00564,2.094149461,0.00564,3.288872648,
0.00566,3.190440344,0.00566,4.750593824,
0.00568,1.363288873,0.00568,4.38516353,
0.0057,0.2669979901,0.0057,4.019733236,
0.00572,2.459579755,0.00572,4.019733236,
0.00574,0.2669979901,0.00574,4.019733236,
0.00576,0.2669979901,0.00576,3.654302942,
0.00578,-1.194723187,0.00578,4.38516353,
0.0058,-1.194723187,0.0058,4.019733236,
0.00582,-1.925583775,0.00582,3.654302942,
0.00584,-2.656444363,0.00584,3.654302942,
0.00586,-2.656444363,0.00586,4.38516353,
0.00588,-3.752735246,0.00588,4.019733236,
0.0059,-3.021874657,0.0059,4.019733236,
0.00592,-3.387304952,0.00592,4.38516353,
0.00594,-2.656444363,0.00594,4.019733236,
0.00596,-3.752735246,0.00596,4.019733236,
0.00598,-4.483595834,0.00598,4.38516353,
0.006,-4.11816554,0.006,4.38516353,
0.00602,-4.11816554,0.00602,4.38516353,
0.00604,-4.11816554,0.00604,4.38516353,
0.00606,-4.11816554,0.00606,4.750593824,
0.00608,-2.656444363,0.00608,4.38516353,
0.0061,-3.021874657,0.0061,4.38516353,
0.00612,-1.560153481,0.00612,4.38516353,
0.00614,-0.4638625982,0.00614,4.38516353,
0.00616,-0.09843230404,0.00616,5.116024118,
0.00618,-0.8292928924,0.00618,4.019733236,
0.0062,0.6324282843,0.0062,4.38516353,
0.00622,0.2669979901,0.00622,4.750593824,
0.00624,0.9978585785,0.00624,4.019733236,
0.00626,2.094149461,0.00626,4.38516353,
0.00628,1.728719167,0.00628,3.654302942,
0.0063,3.190440344,0.0063,4.750593824,
0.00632,2.094149461,0.00632,4.38516353,
0.00634,2.459579755,0.00634,4.38516353,
0.00636,3.921300932,0.00636,4.38516353,
0.00638,2.094149461,0.00638,4.38516353,
0.0064,4.65216152,0.0064,3.654302942,
0.00642,4.286731226,0.00642,4.750593824,
0.00644,3.190440344,0.00644,4.38516353,
0.00646,3.921300932,0.00646,4.38516353,
0.00648,5.017591814,0.00648,4.38516353,
0.0065,2.094149461,0.0065,4.750593824,
0.00652,3.190440344,0.00652,4.38516353,
0.00654,2.459579755,0.00654,4.38516353,
0.00656,1.728719167,0.00656,4.38516353,
0.00658,0.9978585785,0.00658,4.38516353,
0.0066,-0.09843230404,0.0066,4.750593824,
0.00662,0.9978585785,0.00662,4.750593824,
0.00664,0.6324282843,0.00664,4.38516353,
0.00666,-0.4638625982,0.00666,4.38516353,
0.00668,-0.8292928924,0.00668,4.38516353,
0.0067,-2.291014069,0.0067,3.654302942,
0.00672,-1.194723187,0.00672,5.116024118,
0.00674,-1.560153481,0.00674,4.38516353,
0.00676,-0.09843230404,0.00676,4.38516353,
0.00678,-1.194723187,0.00678,4.750593824,
0.0068,-2.656444363,0.0068,5.481454413,
0.00682,-3.021874657,0.00682,4.38516353,
0.00684,-4.11816554,0.00684,4.750593824,
0.00686,-4.483595834,0.00686,4.38516353,
0.00688,-4.11816554,0.00688,4.38516353,
0.0069,-3.387304952,0.0069,4.019733236,
0.00692,-4.483595834,0.00692,4.019733236,
0.00694,-3.387304952,0.00694,4.38516353,
0.00696,-3.387304952,0.00696,4.750593824,
0.00698,-0.09843230404,0.00698,4.38516353,
0.007,-3.752735246,0.007,3.654302942,
0.00702,-2.291014069,0.00702,4.38516353,
0.00704,-3.752735246,0.00704,4.019733236,
0.00706,0.2669979901,0.00706,4.38516353,
0.00708,-0.8292928924,0.00708,4.750593824,
0.0071,-0.8292928924,0.0071,5.481454413,
0.00712,-0.4638625982,0.00712,4.38516353,
0.00714,0.2669979901,0.00714,4.38516353,
0.00716,-1.194723187,0.00716,4.38516353,
0.00718,1.728719167,0.00718,4.019733236,
0.0072,2.094149461,0.0072,5.846884707,
0.00722,2.459579755,0.00722,4.38516353,
0.00724,2.825010049,0.00724,4.38516353,
0.00726,2.825010049,0.00726,4.38516353,
0.00728,2.825010049,0.00728,4.750593824,
0.0073,3.555870638,0.0073,2.558012059,
0.00732,3.555870638,0.00732,4.750593824,
0.00734,6.479312991,0.00734,4.750593824,
0.00736,4.286731226,0.00736,4.019733236,
0.00738,4.286731226,0.00738,4.750593824,
0.0074,2.825010049,0.0074,5.481454413,
0.00742,4.286731226,0.00742,2.923442353,
0.00744,3.555870638,0.00744,4.38516353,
0.00746,3.555870638,0.00746,5.116024118,
0.00748,2.459579755,0.00748,4.019733236,
0.0075,2.825010049,0.0075,5.481454413,
0.00752,-0.4638625982,0.00752,4.38516353,
0.00754,0.6324282843,0.00754,4.38516353,
0.00756,0.9978585785,0.00756,4.38516353,
0.00758,-0.09843230404,0.00758,4.38516353,
0.0076,0.2669979901,0.0076,2.923442353,
0.00762,0.6324282843,0.00762,4.38516353,
0.00764,-1.194723187,0.00764,4.38516353,
0.00766,-1.560153481,0.00766,4.019733236,
0.00768,-2.656444363,0.00768,4.750593824,
0.0077,-1.925583775,0.0077,5.481454413,
0.00772,-1.925583775,0.00772,4.38516353,
0.00774,-3.021874657,0.00774,4.750593824,
0.00776,-3.752735246,0.00776,4.750593824,
0.00778,-3.021874657,0.00778,4.019733236,
0.0078,-3.021874657,0.0078,5.116024118,
0.00782,-4.11816554,0.00782,4.38516353,
0.00784,-2.291014069,0.00784,4.019733236,
0.00786,-4.483595834,0.00786,4.38516353,
0.00788,-3.021874657,0.00788,4.750593824,
0.0079,-3.387304952,0.0079,3.654302942,
0.00792,-1.194723187,0.00792,4.750593824,
0.00794,-3.021874657,0.00794,4.019733236,
0.00796,-1.560153481,0.00796,4.38516353,
0.00798,-1.925583775,0.00798,4.38516353,
0.008,-2.291014069,0.008,4.38516353,
0.00802,-1.194723187,0.00802,4.38516353,
0.00804,-0.8292928924,0.00804,4.38516353,
0.00806,-0.4638625982,0.00806,4.38516353,
0.00808,0.6324282843,0.00808,4.019733236,
0.0081,0.6324282843,0.0081,5.116024118,
0.00812,0.9978585785,0.00812,4.750593824,
0.00814,1.363288873,0.00814,4.38516353,
0.00816,2.094149461,0.00816,4.38516353,
0.00818,2.094149461,0.00818,4.38516353,
0.0082,1.728719167,0.0082,5.116024118,
0.00822,2.459579755,0.00822,4.38516353,
0.00824,4.65216152,0.00824,4.019733236,
0.00826,3.921300932,0.00826,4.750593824,
0.00828,3.555870638,0.00828,4.019733236,
0.0083,3.555870638,0.0083,3.288872648,
0.00832,4.286731226,0.00832,4.019733236,
0.00834,3.555870638,0.00834,4.750593824,
0.00836,4.65216152,0.00836,4.019733236,
0.00838,2.825010049,0.00838,4.38516353,
0.0084,5.748452403,0.0084,4.38516353,
0.00842,2.094149461,0.00842,3.654302942,
0.00844,2.459579755,0.00844,4.38516353,
0.00846,2.094149461,0.00846,4.38516353,
0.00848,0.9978585785,0.00848,4.019733236,
0.0085,0.2669979901,0.0085,4.019733236,
0.00852,0.2669979901,0.00852,4.38516353,
0.00854,-4.11816554,0.00854,4.019733236,
0.00856,-0.8292928924,0.00856,4.019733236,
0.00858,-0.09843230404,0.00858,4.019733236,
0.0086,-1.560153481,0.0086,4.019733236,
0.00862,-2.291014069,0.00862,4.750593824,
0.00864,-2.291014069,0.00864,4.38516353,
0.00866,-1.560153481,0.00866,3.654302942,
0.00868,-2.656444363,0.00868,4.750593824,
0.0087,-2.291014069,0.0087,3.288872648,
0.00872,-3.021874657,0.00872,3.654302942,
0.00874,-3.752735246,0.00874,4.750593824,
0.00876,-3.387304952,0.00876,4.019733236,
0.00878,-3.387304952,0.00878,4.019733236,
0.0088,-1.925583775,0.0088,4.38516353,
0.00882,-4.11816554,0.00882,4.019733236,
0.00884,-3.021874657,0.00884,4.019733236,
0.00886,-2.291014069,0.00886,4.38516353,
0.00888,-1.194723187,0.00888,4.019733236,
0.0089,-3.387304952,0.0089,4.019733236,
0.00892,-1.194723187,0.00892,4.019733236,
0.00894,-1.925583775,0.00894,4.019733236,
0.00896,-1.560153481,0.00896,4.019733236,
0.00898,-0.09843230404,0.00898,4.019733236,
0.009,0.6324282843,0.009,4.38516353,
0.00902,-0.09843230404,0.00902,3.654302942,
0.00904,-0.4638625982,0.00904,4.019733236,
0.00906,0.9978585785,0.00906,4.38516353,
0.00908,1.728719167,0.00908,4.019733236,
0.0091,2.459579755,0.0091,4.38516353,
0.00912,2.825010049,0.00912,4.019733236,
0.00914,0.9978585785,0.00914,3.654302942,
0.00916,3.555870638,0.00916,4.38516353,
0.00918,3.555870638,0.00918,4.019733236,
0.0092,4.286731226,0.0092,4.019733236,
0.00922,3.921300932,0.00922,4.019733236,
0.00924,4.65216152,0.00924,4.38516353,
0.00926,3.921300932,0.00926,4.019733236,
0.00928,3.555870638,0.00928,4.750593824,
0.0093,3.921300932,0.0093,4.38516353,
0.00932,4.286731226,0.00932,3.654302942,
0.00934,2.825010049,0.00934,4.750593824,
0.00936,1.728719167,0.00936,4.38516353,
0.00938,0.2669979901,0.00938,3.654302942,
0.0094,2.094149461,0.0094,4.38516353,
0.00942,2.459579755,0.00942,4.019733236,
0.00944,-0.09843230404,0.00944,4.38516353,
0.00946,0.2669979901,0.00946,4.019733236,
0.00948,-0.09843230404,0.00948,4.019733236,
0.0095,-1.560153481,0.0095,3.654302942,
0.00952,-1.560153481,0.00952,4.019733236,
0.00954,-3.387304952,0.00954,4.38516353,
0.00956,-2.656444363,0.00956,4.019733236,
0.00958,-1.925583775,0.00958,4.019733236,
0.0096,-2.656444363,0.0096,4.38516353,
0.00962,-3.387304952,0.00962,3.654302942,
0.00964,-2.656444363,0.00964,4.38516353,
0.00966,-4.11816554,0.00966,4.019733236,
0.00968,-4.11816554,0.00968,3.654302942,
0.0097,-3.752735246,0.0097,4.38516353,
0.00972,-3.752735246,0.00972,4.019733236,
0.00974,-0.4638625982,0.00974,3.654302942,
0.00976,-2.656444363,0.00976,4.019733236,
0.00978,-3.752735246,0.00978,4.38516353,
0.0098,-2.656444363,0.0098,4.019733236,
0.00982,-3.387304952,0.00982,4.019733236,
0.00984,-1.925583775,0.00984,4.019733236,
0.00986,-1.925583775,0.00986,4.019733236,
0.00988,-0.4638625982,0.00988,4.38516353,
0.0099,-0.09843230404,0.0099,4.019733236,
0.00992,-0.09843230404,0.00992,4.019733236,
0.00994,0.6324282843,0.00994,5.481454413,
0.00996,-0.09843230404,0.00996,4.019733236,
0.00998,1.728719167,0.00998,3.288872648,
0.01,0.6324282843,0.01,4.38516353,
0.01002,2.825010049,0.01002,4.38516353,
0.01004,2.459579755,0.01004,3.654302942,
0.01006,2.459579755,0.01006,4.38516353,
0.01008,2.825010049,0.01008,4.019733236,
0.0101,3.555870638,0.0101,4.750593824,
0.01012,2.825010049,0.01012,4.019733236,
0.01014,3.555870638,0.01014,3.654302942,
0.01016,3.555870638,0.01016,4.750593824,
0.01018,5.748452403,0.01018,4.38516353,
0.0102,3.555870638,0.0102,4.019733236,
0.01022,3.555870638,0.01022,5.481454413,
0.01024,2.094149461,0.01024,4.38516353,
0.01026,1.728719167,0.01026,3.288872648,
0.01028,2.459579755,0.01028,4.750593824,
0.0103,1.363288873,0.0103,4.019733236,
0.01032,0.9978585785,0.01032,2.923442353,
0.01034,0.9978585785,0.01034,4.750593824,
0.01036,-0.4638625982,0.01036,4.019733236,
0.01038,-0.4638625982,0.01038,4.019733236,
0.0104,-0.8292928924,0.0104,4.750593824,
0.01042,-0.8292928924,0.01042,4.750593824,
0.01044,-0.8292928924,0.01044,4.019733236,
0.01046,-0.8292928924,0.01046,4.38516353,
0.01048,-1.925583775,0.01048,4.38516353,
0.0105,-3.021874657,0.0105,4.019733236,
0.01052,-3.387304952,0.01052,2.923442353,
0.01054,-2.656444363,0.01054,4.38516353,
0.01056,-3.021874657,0.01056,4.019733236,
0.01058,-3.387304952,0.01058,4.38516353,
0.0106,-3.387304952,0.0106,4.019733236,
0.01062,-4.11816554,0.01062,4.750593824,
0.01064,-4.11816554,0.01064,4.38516353,
0.01066,-3.752735246,0.01066,4.38516353,
0.01068,-3.021874657,0.01068,4.019733236,
0.0107,-3.021874657,0.0107,4.750593824,
0.01072,-3.387304952,0.01072,5.481454413,
0.01074,-1.925583775,0.01074,4.38516353,
0.01076,-1.925583775,0.01076,5.116024118,
0.01078,-2.291014069,0.01078,4.38516353,
0.0108,-1.194723187,0.0108,4.019733236,
0.01082,-0.09843230404,0.01082,4.750593824,
0.01084,-1.194723187,0.01084,4.38516353,
0.01086,-0.09843230404,0.01086,3.654302942,
0.01088,-2.656444363,0.01088,4.38516353,
0.0109,0.9978585785,0.0109,4.38516353,
0.01092,1.728719167,0.01092,3.654302942,
0.01094,0.2669979901,0.01094,4.750593824,
0.01096,1.728719167,0.01096,4.019733236,
0.01098,1.728719167,0.01098,3.654302942,
0.011,2.459579755,0.011,5.116024118,
0.01102,2.459579755,0.01102,4.38516353,
0.01104,3.190440344,0.01104,4.750593824,
0.01106,2.825010049,0.01106,4.38516353,
0.01108,4.286731226,0.01108,4.019733236,
0.0111,3.190440344,0.0111,4.38516353,
0.01112,3.921300932,0.01112,5.116024118,
0.01114,5.748452403,0.01114,4.750593824,
0.01116,3.555870638,0.01116,4.38516353,
0.01118,3.555870638,0.01118,4.38516353,
0.0112,3.921300932,0.0112,4.750593824,
0.01122,5.017591814,0.01122,4.38516353,
0.01124,-0.4638625982,0.01124,4.38516353,
0.01126,0.9978585785,0.01126,4.750593824,
0.01128,1.363288873,0.01128,4.38516353,
0.0113,0.2669979901,0.0113,4.019733236,
0.01132,-0.4638625982,0.01132,4.750593824,
0.01134,-1.194723187,0.01134,4.750593824,
0.01136,-0.8292928924,0.01136,4.38516353,
0.01138,-1.194723187,0.01138,4.019733236,
0.0114,-1.925583775,0.0114,4.38516353,
0.01142,-2.291014069,0.01142,5.116024118,
0.01144,-2.291014069,0.01144,4.38516353,
0.01146,-4.849026128,0.01146,4.38516353,
0.01148,-3.021874657,0.01148,4.38516353,
0.0115,-3.021874657,0.0115,4.38516353,
0.01152,-3.021874657,0.01152,4.38516353,
0.01154,-3.387304952,0.01154,4.750593824,
0.01156,-3.752735246,0.01156,4.38516353,
0.01158,-4.11816554,0.01158,4.019733236,
0.0116,-4.11816554,0.0116,4.750593824,
0.01162,-4.483595834,0.01162,4.019733236,
0.01164,-3.021874657,0.01164,4.38516353,
0.01166,-3.752735246,0.01166,5.116024118,
0.01168,-2.656444363,0.01168,4.019733236,
0.0117,-2.291014069,0.0117,4.019733236,
0.01172,-2.291014069,0.01172,4.750593824,
0.01174,-2.291014069,0.01174,4.019733236,
0.01176,-2.291014069,0.01176,4.019733236,
0.01178,-1.194723187,0.01178,4.750593824,
0.0118,-2.291014069,0.0118,4.019733236,
0.01182,-0.09843230404,0.01182,4.38516353,
0.01184,3.190440344,0.01184,4.750593824,
0.01186,0.9978585785,0.01186,4.38516353,
0.01188,2.094149461,0.01188,4.38516353,
0.0119,1.363288873,0.0119,5.481454413,
0.01192,2.459579755,0.01192,4.019733236,
0.01194,1.363288873,0.01194,4.019733236,
0.01196,2.825010049,0.01196,4.750593824,
0.01198,1.728719167,0.01198,4.019733236,
0.012,3.555870638,0.012,4.750593824,
0.01202,3.555870638,0.01202,4.019733236,
0.01204,2.094149461,0.01204,4.019733236,
0.01206,3.555870638,0.01206,4.750593824,
0.01208,2.825010049,0.01208,4.750593824,
0.0121,3.190440344,0.0121,4.38516353,
0.01212,2.825010049,0.01212,4.38516353,
0.01214,1.728719167,0.01214,4.019733236,
0.01216,1.728719167,0.01216,4.750593824,
0.01218,3.190440344,0.01218,4.38516353,
0.0122,0.6324282843,0.0122,4.38516353,
0.01222,1.363288873,0.01222,4.750593824,
0.01224,-0.09843230404,0.01224,4.750593824,
0.01226,-1.194723187,0.01226,4.38516353,
0.01228,-1.194723187,0.01228,4.019733236,
0.0123,-1.194723187,0.0123,4.750593824,
0.01232,-1.560153481,0.01232,4.750593824,
0.01234,0.2669979901,0.01234,4.38516353,
0.01236,-2.656444363,0.01236,4.38516353,
0.01238,-4.11816554,0.01238,4.750593824,
0.0124,-1.560153481,0.0124,4.38516353,
0.01242,-1.925583775,0.01242,4.750593824,
0.01244,-2.656444363,0.01244,4.38516353,
0.01246,-2.291014069,0.01246,4.019733236,
0.01248,-3.752735246,0.01248,5.481454413,
0.0125,-5.214456422,0.0125,4.750593824,
0.01252,-2.656444363,0.01252,5.116024118,
0.01254,-5.214456422,0.01254,4.750593824,
0.01256,-3.752735246,0.01256,4.38516353,
0.01258,-3.021874657,0.01258,4.019733236,
0.0126,-3.752735246,0.0126,5.116024118,
0.01262,-3.021874657,0.01262,4.38516353,
0.01264,-4.11816554,0.01264,4.019733236,
0.01266,-2.291014069,0.01266,5.116024118,
0.01268,-1.560153481,0.01268,4.38516353,
0.0127,-0.4638625982,0.0127,4.38516353,
0.01272,-1.560153481,0.01272,4.750593824,
0.01274,-0.09843230404,0.01274,4.750593824,
0.01276,0.6324282843,0.01276,4.019733236,
0.01278,1.728719167,0.01278,4.750593824,
0.0128,2.094149461,0.0128,4.38516353,
0.01282,0.9978585785,0.01282,4.019733236,
0.01284,3.190440344,0.01284,4.750593824,
0.01286,2.094149461,0.01286,4.38516353,
0.01288,4.286731226,0.01288,4.38516353,
0.0129,3.190440344,0.0129,4.750593824,
0.01292,2.825010049,0.01292,4.750593824,
0.01294,2.825010049,0.01294,4.38516353,
0.01296,3.555870638,0.01296,4.38516353,
0.01298,3.190440344,0.01298,4.019733236,
0.013,4.286731226,0.013,4.38516353,
0.01302,2.825010049,0.01302,4.750593824,
0.01304,2.825010049,0.01304,4.38516353,
0.01306,1.728719167,0.01306,4.38516353,
0.01308,2.825010049,0.01308,4.38516353,
0.0131,0.6324282843,0.0131,4.750593824,
0.01312,2.094149461,0.01312,4.38516353,
0.01314,2.094149461,0.01314,4.38516353,
0.01316,0.2669979901,0.01316,4.750593824,
0.01318,-1.560153481,0.01318,4.019733236,
0.0132,-0.4638625982,0.0132,4.38516353,
0.01322,-0.4638625982,0.01322,4.750593824,
0.01324,0.6324282843,0.01324,4.019733236,
0.01326,-0.09843230404,0.01326,4.750593824,
0.01328,-1.925583775,0.01328,4.38516353,
0.0133,-2.291014069,0.0133,4.019733236,
0.01332,-2.291014069,0.01332,4.38516353,
0.01334,-4.483595834,0.01334,4.750593824,
0.01336,-2.291014069,0.01336,4.38516353,
0.01338,-3.021874657,0.01338,4.750593824,
0.0134,-2.656444363,0.0134,4.750593824,
0.01342,-3.387304952,0.01342,4.019733236,
0.01344,-4.11816554,0.01344,4.38516353,
0.01346,-4.11816554,0.01346,4.750593824,
0.01348,-3.387304952,0.01348,4.019733236,
0.0135,-3.387304952,0.0135,4.750593824,
0.01352,-3.021874657,0.01352,4.38516353,
0.01354,-2.291014069,0.01354,3.654302942,
0.01356,-2.291014069,0.01356,4.750593824,
0.01358,-1.925583775,0.01358,4.38516353,
0.0136,-1.560153481,0.0136,4.019733236,
0.01362,-0.8292928924,0.01362,4.38516353,
0.01364,-0.4638625982,0.01364,5.116024118,
0.01366,-0.8292928924,0.01366,4.38516353,
0.01368,0.9978585785,0.01368,4.38516353,
0.0137,0.6324282843,0.0137,5.116024118,
0.01372,1.728719167,0.01372,4.38516353,
0.01374,2.094149461,0.01374,3.288872648,
0.01376,0.2669979901,0.01376,4.38516353,
0.01378,2.825010049,0.01378,4.38516353,
0.0138,2.825010049,0.0138,4.019733236,
0.01382,2.459579755,0.01382,4.38516353,
0.01384,2.825010049,0.01384,4.019733236,
0.01386,3.921300932,0.01386,5.116024118,
0.01388,4.286731226,0.01388,4.38516353,
0.0139,3.921300932,0.0139,4.38516353,
0.01392,3.190440344,0.01392,3.654302942,
0.01394,5.017591814,0.01394,6.577745295,
0.01396,3.555870638,0.01396,4.38516353,
0.01398,2.459579755,0.01398,4.019733236,
0.014,1.363288873,0.014,4.019733236,
0.01402,2.825010049,0.01402,4.38516353,
0.01404,3.921300932,0.01404,4.38516353,
0.01406,2.094149461,0.01406,4.38516353,
0.01408,1.728719167,0.01408,3.654302942,
0.0141,0.9978585785,0.0141,3.654302942,
0.01412,0.9978585785,0.01412,4.38516353,
0.01414,0.6324282843,0.01414,2.558012059,
0.01416,-0.8292928924,0.01416,4.019733236,
0.01418,-0.4638625982,0.01418,4.019733236,
0.0142,-1.194723187,0.0142,4.38516353,
0.01422,-1.194723187,0.01422,4.019733236,
0.01424,-0.8292928924,0.01424,2.923442353,
0.01426,-1.560153481,0.01426,4.38516353,
0.01428,-4.849026128,0.01428,4.019733236,
0.0143,-3.021874657,0.0143,4.38516353,
0.01432,-3.752735246,0.01432,4.019733236,
0.01434,-2.291014069,0.01434,2.558012059,
0.01436,-2.291014069,0.01436,4.38516353,
0.01438,-3.021874657,0.01438,4.019733236,
0.0144,-3.752735246,0.0144,3.654302942,
0.01442,-2.656444363,0.01442,4.38516353,
0.01444,-2.656444363,0.01444,5.481454413,
0.01446,-1.560153481,0.01446,4.019733236,
0.01448,-3.021874657,0.01448,4.019733236,
0.0145,-2.291014069,0.0145,4.019733236,
0.01452,-2.291014069,0.01452,4.019733236,
0.01454,-0.4638625982,0.01454,5.116024118,
0.01456,-1.925583775,0.01456,4.019733236,
0.01458,-1.194723187,0.01458,3.654302942,
0.0146,1.728719167,0.0146,4.38516353,
0.01462,1.728719167,0.01462,4.38516353,
0.01464,-0.8292928924,0.01464,2.558012059,
0.01466,2.094149461,0.01466,4.019733236,
0.01468,2.459579755,0.01468,4.750593824,
0.0147,1.363288873,0.0147,4.019733236,
0.01472,2.825010049,0.01472,4.38516353,
0.01474,3.921300932,0.01474,4.019733236,
0.01476,4.286731226,0.01476,3.654302942,
0.01478,4.286731226,0.01478,4.38516353,
0.0148,3.190440344,0.0148,4.019733236,
0.01482,3.921300932,0.01482,3.654302942,
0.01484,0.9978585785,0.01484,5.481454413,
0.01486,4.286731226,0.01486,4.019733236,
0.01488,2.459579755,0.01488,4.019733236,
0.0149,4.286731226,0.0149,4.019733236,
0.01492,2.459579755,0.01492,4.38516353,
0.01494,2.825010049,0.01494,4.019733236,
0.01496,2.094149461,0.01496,4.38516353,
0.01498,1.363288873,0.01498,4.019733236,
0.015,1.363288873,0.015,4.38516353,
0.01502,2.825010049,0.01502,4.019733236,
0.01504,0.6324282843,0.01504,4.38516353,
0.01506,-0.4638625982,0.01506,4.019733236,
0.01508,-0.4638625982,0.01508,4.019733236,
0.0151,0.2669979901,0.0151,4.019733236,
0.01512,-1.925583775,0.01512,4.019733236,
0.01514,-2.656444363,0.01514,4.019733236,
0.01516,-0.8292928924,0.01516,4.019733236,
0.01518,-3.752735246,0.01518,4.38516353,
0.0152,-2.656444363,0.0152,4.019733236,
0.01522,-3.021874657,0.01522,4.019733236,
0.01524,-1.925583775,0.01524,5.116024118,
0.01526,-3.387304952,0.01526,4.38516353,
0.01528,-4.483595834,0.01528,4.019733236,
0.0153,-4.11816554,0.0153,3.654302942,
0.01532,-3.021874657,0.01532,4.38516353,
0.01534,-1.925583775,0.01534,4.38516353,
0.01536,-1.925583775,0.01536,4.019733236,
0.01538,-3.752735246,0.01538,3.654302942,
0.0154,-2.656444363,0.0154,4.019733236,
0.01542,-3.752735246,0.01542,4.38516353,
0.01544,-0.8292928924,0.01544,4.38516353,
0.01546,-0.09843230404,0.01546,4.019733236,
0.01548,-1.194723187,0.01548,4.019733236,
0.0155,-1.194723187,0.0155,4.750593824,
0.01552,0.2669979901,0.01552,4.38516353,
0.01554,-0.4638625982,0.01554,4.38516353,
0.01556,1.363288873,0.01556,4.019733236,
0.01558,-1.194723187,0.01558,4.38516353,
0.0156,0.9978585785,0.0156,3.654302942,
0.01562,2.825010049,0.01562,4.38516353,
0.01564,2.094149461,0.01564,4.38516353,
0.01566,0.2669979901,0.01566,4.019733236,
0.01568,3.555870638,0.01568,4.38516353,
0.0157,3.555870638,0.0157,4.019733236,
0.01572,2.459579755,0.01572,4.38516353,
0.01574,3.555870638,0.01574,4.019733236,
0.01576,2.825010049,0.01576,4.38516353,
0.01578,3.555870638,0.01578,4.750593824,
0.0158,3.190440344,0.0158,4.38516353,
0.01582,3.555870638,0.01582,3.654302942,
0.01584,2.459579755,0.01584,4.750593824,
0.01586,2.459579755,0.01586,4.019733236,
0.01588,1.728719167,0.01588,4.38516353,
0.0159,-0.8292928924,0.0159,4.38516353,
0.01592,1.728719167,0.01592,4.38516353,
0.01594,0.6324282843,0.01594,4.019733236,
0.01596,0.2669979901,0.01596,4.750593824,
0.01598,0.2669979901,0.01598,4.38516353,
0.016,-0.8292928924,0.016,4.38516353,
0.01602,-1.194723187,0.01602,4.750593824,
0.01604,-1.560153481,0.01604,4.019733236,
0.01606,-2.291014069,0.01606,4.38516353,
0.01608,-3.021874657,0.01608,4.750593824,
0.0161,-2.656444363,0.0161,4.38516353,
0.01612,-3.021874657,0.01612,4.019733236,
0.01614,-3.752735246,0.01614,5.116024118,
0.01616,-3.021874657,0.01616,4.019733236,
0.01618,-3.021874657,0.01618,4.019733236,
0.0162,-3.752735246,0.0162,4.019733236,
0.01622,-4.11816554,0.01622,4.38516353,
0.01624,-3.752735246,0.01624,5.116024118,
0.01626,-3.021874657,0.01626,4.38516353,
0.01628,-3.752735246,0.01628,4.019733236,
0.0163,-2.656444363,0.0163,4.38516353,
0.01632,-1.560153481,0.01632,4.019733236,
0.01634,-3.752735246,0.01634,4.38516353,
0.01636,-2.656444363,0.01636,4.38516353,
0.01638,-2.291014069,0.01638,4.019733236,
0.0164,-1.925583775,0.0164,4.38516353,
0.01642,-1.194723187,0.01642,4.38516353,
0.01644,-1.194723187,0.01644,4.019733236,
0.01646,0.9978585785,0.01646,4.38516353,
0.01648,-0.09843230404,0.01648,4.38516353,
0.0165,0.9978585785,0.0165,4.750593824,
0.01652,1.363288873,0.01652,4.750593824,
0.01654,2.459579755,0.01654,4.38516353,
0.01656,2.825010049,0.01656,4.019733236,
0.01658,2.094149461,0.01658,4.750593824,
0.0166,2.825010049,0.0166,4.019733236,
0.01662,3.190440344,0.01662,4.750593824,
0.01664,1.363288873,0.01664,4.38516353,
0.01666,2.459579755,0.01666,4.38516353,
0.01668,4.65216152,0.01668,4.38516353,
0.0167,1.728719167,0.0167,4.38516353,
0.01672,3.190440344,0.01672,4.019733236,
0.01674,3.921300932,0.01674,4.38516353,
0.01676,3.921300932,0.01676,4.019733236,
0.01678,2.094149461,0.01678,4.019733236,
0.0168,3.190440344,0.0168,4.019733236,
0.01682,0.6324282843,0.01682,3.654302942,
0.01684,2.459579755,0.01684,4.019733236,
0.01686,1.728719167,0.01686,4.38516353,
0.01688,0.6324282843,0.01688,4.019733236,
0.0169,1.363288873,0.0169,4.019733236,
0.01692,0.2669979901,0.01692,4.019733236,
0.01694,0.6324282843,0.01694,3.654302942,
0.01696,-1.560153481,0.01696,4.019733236,
0.01698,-1.925583775,0.01698,4.38516353,
0.017,-1.925583775,0.017,4.019733236,
0.01702,-1.194723187,0.01702,4.38516353,
0.01704,-3.752735246,0.01704,4.38516353,
0.01706,-2.656444363,0.01706,4.019733236,
0.01708,-3.387304952,0.01708,4.019733236,
0.0171,-3.752735246,0.0171,4.750593824,
0.01712,-3.387304952,0.01712,4.019733236,
0.01714,-4.11816554,0.01714,4.38516353,
0.01716,-1.925583775,0.01716,4.38516353,
0.01718,-3.387304952,0.01718,4.019733236,
0.0172,-3.021874657,0.0172,4.38516353,
0.01722,-3.752735246,0.01722,4.019733236,
0.01724,-2.291014069,0.01724,4.38516353,
0.01726,-1.560153481,0.01726,4.750593824,
0.01728,-3.752735246,0.01728,4.019733236,
0.0173,-2.291014069,0.0173,4.019733236,
0.01732,-1.560153481,0.01732,4.019733236,
0.01734,-1.560153481,0.01734,4.38516353,
0.01736,-1.194723187,0.01736,3.654302942,
0.01738,-0.4638625982,0.01738,4.019733236,
0.0174,0.6324282843,0.0174,4.019733236,
0.01742,0.2669979901,0.01742,4.019733236,
0.01744,2.825010049,0.01744,4.38516353,
0.01746,2.459579755,0.01746,3.654302942,
0.01748,2.094149461,0.01748,3.654302942,
0.0175,3.555870638,0.0175,4.019733236,
0.01752,3.190440344,0.01752,4.38516353,
0.01754,2.094149461,0.01754,2.923442353,
0.01756,5.383022109,0.01756,4.38516353,
0.01758,3.921300932,0.01758,4.38516353,
0.0176,2.825010049,0.0176,3.654302942,
0.01762,3.555870638,0.01762,4.750593824,
0.01764,3.190440344,0.01764,4.38516353,
0.01766,3.555870638,0.01766,3.654302942,
0.01768,3.190440344,0.01768,4.750593824,
0.0177,4.65216152,0.0177,3.654302942,
0.01772,2.825010049,0.01772,3.654302942,
0.01774,3.921300932,0.01774,4.019733236,
0.01776,2.459579755,0.01776,3.654302942,
0.01778,0.9978585785,0.01778,4.019733236,
0.0178,2.094149461,0.0178,4.38516353,
0.01782,2.459579755,0.01782,4.38516353,
0.01784,0.9978585785,0.01784,4.38516353,
0.01786,0.6324282843,0.01786,5.116024118,
0.01788,0.2669979901,0.01788,4.019733236,
0.0179,-0.4638625982,0.0179,4.019733236,
0.01792,-0.8292928924,0.01792,4.38516353,
0.01794,-1.925583775,0.01794,4.38516353,
0.01796,-3.021874657,0.01796,4.38516353,
0.01798,-1.925583775,0.01798,4.38516353,
0.018,-2.656444363,0.018,4.38516353,
0.01802,-3.752735246,0.01802,4.019733236,
0.01804,-3.021874657,0.01804,4.019733236,
0.01806,-3.021874657,0.01806,3.288872648,
0.01808,-3.752735246,0.01808,3.654302942,
0.0181,-3.387304952,0.0181,4.38516353,
0.01812,-3.021874657,0.01812,3.654302942,
0.01814,-3.752735246,0.01814,4.019733236,
0.01816,-3.387304952,0.01816,4.019733236,
0.01818,-5.214456422,0.01818,4.38516353,
0.0182,-3.021874657,0.0182,3.654302942,
0.01822,-2.291014069,0.01822,4.019733236,
0.01824,-2.291014069,0.01824,4.38516353,
0.01826,-1.925583775,0.01826,4.750593824,
0.01828,0.2669979901,0.01828,4.38516353,
0.0183,0.2669979901,0.0183,4.38516353,
0.01832,0.2669979901,0.01832,3.654302942,
0.01834,0.6324282843,0.01834,4.38516353,
0.01836,0.6324282843,0.01836,3.654302942,
0.01838,0.2669979901,0.01838,4.019733236,
0.0184,0.6324282843,0.0184,4.019733236,
0.01842,2.825010049,0.01842,4.019733236,
0.01844,2.459579755,0.01844,4.019733236,
0.01846,3.190440344,0.01846,5.116024118,
0.01848,3.921300932,0.01848,4.019733236,
0.0185,3.190440344,0.0185,4.019733236,
0.01852,5.017591814,0.01852,4.38516353,
0.01854,3.555870638,0.01854,4.38516353,
0.01856,2.459579755,0.01856,3.654302942,
0.01858,4.286731226,0.01858,4.38516353,
0.0186,6.479312991,0.0186,4.38516353,
0.01862,3.190440344,0.01862,4.38516353,
0.01864,2.825010049,0.01864,4.38516353,
0.01866,3.190440344,0.01866,3.654302942,
0.01868,2.459579755,0.01868,5.116024118,
0.0187,0.2669979901,0.0187,4.019733236,
0.01872,1.363288873,0.01872,4.38516353,
0.01874,0.9978585785,0.01874,5.116024118,
0.01876,-0.09843230404,0.01876,5.116024118,
0.01878,-1.925583775,0.01878,4.019733236,
0.0188,0.2669979901,0.0188,4.38516353,
0.01882,-0.09843230404,0.01882,4.38516353,
0.01884,-2.656444363,0.01884,4.019733236,
0.01886,-1.560153481,0.01886,5.481454413,
0.01888,-1.925583775,0.01888,4.019733236,
0.0189,-3.387304952,0.0189,4.019733236,
0.01892,-2.656444363,0.01892,4.750593824,
0.01894,-3.021874657,0.01894,4.019733236,
0.01896,-3.021874657,0.01896,4.750593824,
0.01898,-2.291014069,0.01898,4.750593824,
0.019,-3.387304952,0.019,4.38516353,
0.01902,-1.925583775,0.01902,4.38516353,
0.01904,-3.387304952,0.01904,4.750593824,
0.01906,-4.11816554,0.01906,4.750593824,
0.01908,-3.387304952,0.01908,4.019733236,
0.0191,-3.021874657,0.0191,5.116024118,
0.01912,-3.387304952,0.01912,4.38516353,
0.01914,-2.291014069,0.01914,3.654302942,
0.01916,-0.4638625982,0.01916,4.750593824,
0.01918,-1.194723187,0.01918,4.38516353,
0.0192,-1.560153481,0.0192,4.019733236,
0.01922,-0.09843230404,0.01922,4.750593824,
0.01924,-0.09843230404,0.01924,4.38516353,
0.01926,-0.09843230404,0.01926,3.288872648,
0.01928,0.2669979901,0.01928,4.750593824,
0.0193,-0.09843230404,0.0193,4.750593824,
0.01932,1.363288873,0.01932,4.38516353,
0.01934,1.728719167,0.01934,4.750593824,
0.01936,1.728719167,0.01936,4.38516353,
0.01938,-0.4638625982,0.01938,4.019733236,
0.0194,3.190440344,0.0194,4.750593824,
0.01942,3.921300932,0.01942,4.38516353,
0.01944,3.190440344,0.01944,4.019733236,
0.01946,3.555870638,0.01946,5.116024118,
0.01948,3.921300932,0.01948,4.38516353,
0.0195,3.190440344,0.0195,4.019733236,
0.01952,4.65216152,0.01952,4.750593824,
0.01954,3.555870638,0.01954,4.38516353,
0.01956,2.825010049,0.01956,4.019733236,
0.01958,3.555870638,0.01958,4.750593824,
0.0196,0.2669979901,0.0196,4.38516353,
0.01962,2.094149461,0.01962,4.019733236,
0.01964,2.825010049,0.01964,4.750593824,
0.01966,1.363288873,0.01966,4.019733236,
0.01968,3.190440344,0.01968,4.019733236,
0.0197,0.2669979901,0.0197,4.38516353,
0.01972,-2.291014069,0.01972,3.654302942,
0.01974,-0.8292928924,0.01974,4.750593824,
0.01976,-1.194723187,0.01976,4.750593824,
0.01978,-3.021874657,0.01978,4.38516353,
0.0198,-3.021874657,0.0198,4.38516353,
0.01982,-1.925583775,0.01982,4.750593824,
0.01984,-2.656444363,0.01984,4.019733236,
0.01986,-3.021874657,0.01986,4.019733236,
0.01988,-4.11816554,0.01988,4.38516353,
0.0199,-4.11816554,0.0199,4.019733236,
0.01992,-2.291014069,0.01992,4.38516353,
0.01994,-3.752735246,0.01994,4.750593824,
0.01996,-4.483595834,0.01996,4.019733236,
0.01998,-3.021874657,0.01998,4.019733236,
0.02,-2.656444363,0.02,4.750593824,
0.02002,-3.387304952,0.02002,4.38516353,
0.02004,-3.021874657,0.02004,3.288872648,
0.02006,-3.021874657,0.02006,5.116024118,
0.02008,-1.194723187,0.02008,4.750593824,
0.0201,-3.021874657,0.0201,4.019733236,
0.02012,-2.656444363,0.02012,4.750593824,
0.02014,-1.560153481,0.02014,4.38516353,
0.02016,-0.4638625982,0.02016,3.654302942,
0.02018,-1.560153481,0.02018,4.019733236,
0.0202,-0.4638625982,0.0202,4.38516353,
0.02022,0.2669979901,0.02022,4.019733236,
0.02024,0.2669979901,0.02024,4.38516353,
0.02026,2.094149461,0.02026,4.38516353,
0.02028,0.2669979901,0.02028,4.019733236,
0.0203,0.9978585785,0.0203,4.750593824,
0.02032,0.2669979901,0.02032,4.019733236,
0.02034,2.825010049,0.02034,4.019733236,
0.02036,4.286731226,0.02036,4.38516353,
0.02038,2.459579755,0.02038,4.019733236,
0.0204,1.363288873,0.0204,4.019733236,
0.02042,1.728719167,0.02042,4.750593824,
0.02044,3.190440344,0.02044,4.019733236,
0.02046,2.459579755,0.02046,4.38516353,
0.02048,4.65216152,0.02048,4.750593824,
0.0205,3.555870638,0.0205,4.019733236,
0.02052,1.728719167,0.02052,4.019733236,
0.02054,2.825010049,0.02054,4.750593824,
0.02056,0.6324282843,0.02056,4.38516353,
0.02058,3.190440344,0.02058,4.38516353,
0.0206,0.6324282843,0.0206,4.38516353,
0.02062,0.2669979901,0.02062,4.019733236,
0.02064,-0.4638625982,0.02064,4.38516353,
0.02066,-0.8292928924,0.02066,4.019733236,
0.02068,4.65216152,0.02068,4.38516353,
0.0207,-0.4638625982,0.0207,4.38516353,
0.02072,-2.291014069,0.02072,4.38516353,
0.02074,-2.291014069,0.02074,4.38516353,
0.02076,-2.291014069,0.02076,4.750593824,
0.02078,-2.291014069,0.02078,4.38516353,
0.0208,-4.11816554,0.0208,4.38516353,
0.02082,-1.194723187,0.02082,4.38516353,
0.02084,-4.11816554,0.02084,4.38516353,
0.02086,-3.387304952,0.02086,4.38516353,
0.02088,-5.579886717,0.02088,4.38516353,
0.0209,-3.752735246,0.0209,4.38516353,
0.02092,-2.291014069,0.02092,4.38516353,
0.02094,-2.291014069,0.02094,4.38516353,
0.02096,-3.387304952,0.02096,4.38516353,
0.02098,-3.387304952,0.02098,4.38516353,
0.021,-2.291014069,0.021,4.750593824,
0.02102,-1.194723187,0.02102,4.38516353,
0.02104,-1.194723187,0.02104,4.019733236,
0.02106,-0.09843230404,0.02106,4.38516353,
0.02108,-0.4638625982,0.02108,4.38516353,
0.0211,-0.09843230404,0.0211,4.38516353,
0.02112,-0.8292928924,0.02112,4.750593824,
0.02114,-0.4638625982,0.02114,4.38516353,
0.02116,1.363288873,0.02116,4.38516353,
0.02118,2.094149461,0.02118,4.750593824,
0.0212,-0.4638625982,0.0212,4.38516353,
0.02122,2.825010049,0.02122,4.750593824,
0.02124,2.459579755,0.02124,4.750593824,
0.02126,2.825010049,0.02126,4.38516353,
0.02128,3.921300932,0.02128,4.38516353,
0.0213,3.921300932,0.0213,3.654302942,
0.02132,3.190440344,0.02132,4.019733236,
0.02134,4.286731226,0.02134,4.38516353,
0.02136,3.190440344,0.02136,4.38516353,
0.02138,2.825010049,0.02138,3.654302942,
0.0214,3.921300932,0.0214,4.38516353,
0.02142,3.921300932,0.02142,4.38516353,
0.02144,2.459579755,0.02144,4.38516353,
0.02146,3.190440344,0.02146,4.750593824,
0.02148,0.9978585785,0.02148,4.38516353,
0.0215,2.094149461,0.0215,4.38516353,
0.02152,2.459579755,0.02152,4.38516353,
0.02154,0.9978585785,0.02154,4.38516353,
0.02156,2.825010049,0.02156,4.38516353,
0.02158,-1.194723187,0.02158,4.38516353,
0.0216,-0.8292928924,0.0216,4.38516353,
0.02162,-0.8292928924,0.02162,4.750593824,
0.02164,-0.8292928924,0.02164,4.38516353,
0.02166,-1.925583775,0.02166,4.38516353,
0.02168,-3.752735246,0.02168,5.116024118,
0.0217,-1.925583775,0.0217,4.38516353,
0.02172,-3.387304952,0.02172,4.019733236,
0.02174,-3.021874657,0.02174,4.750593824,
0.02176,-5.214456422,0.02176,4.019733236,
0.02178,-3.021874657,0.02178,4.019733236,
0.0218,-4.11816554,0.0218,5.116024118,
0.02182,-3.752735246,0.02182,4.019733236,
0.02184,-3.752735246,0.02184,4.019733236,
0.02186,-4.11816554,0.02186,5.116024118,
0.02188,-2.656444363,0.02188,4.019733236,
0.0219,-4.11816554,0.0219,4.38516353,
0.02192,-2.656444363,0.02192,4.38516353,
0.02194,-3.021874657,0.02194,4.38516353,
0.02196,-1.925583775,0.02196,4.38516353,
0.02198,-2.656444363,0.02198,4.750593824,
0.022,-1.925583775,0.022,4.38516353,
0.02202,-1.925583775,0.02202,4.019733236,
0.02204,-0.09843230404,0.02204,4.750593824,
0.02206,-0.8292928924,0.02206,4.019733236,
0.02208,2.459579755,0.02208,4.38516353,
0.0221,1.363288873,0.0221,4.750593824,
0.02212,0.9978585785,0.02212,4.38516353,
0.02214,2.825010049,0.02214,4.019733236,
0.02216,2.094149461,0.02216,4.750593824,
0.02218,2.094149461,0.02218,4.750593824,
0.0222,2.825010049,0.0222,4.019733236,
0.02222,0.6324282843,0.02222,4.38516353,
0.02224,2.825010049,0.02224,4.019733236,
0.02226,2.094149461,0.02226,4.38516353,
0.02228,3.921300932,0.02228,4.38516353,
0.0223,3.190440344,0.0223,4.38516353,
0.02232,5.017591814,0.02232,4.38516353,
0.02234,3.190440344,0.02234,4.750593824,
0.02236,3.190440344,0.02236,4.019733236,
0.02238,3.921300932,0.02238,3.288872648,
0.0224,2.459579755,0.0224,4.38516353,
0.02242,1.728719167,0.02242,4.019733236,
0.02244,-1.560153481,0.02244,4.019733236,
0.02246,1.728719167,0.02246,5.116024118,
0.02248,1.728719167,0.02248,4.38516353,
0.0225,0.2669979901,0.0225,4.019733236,
0.02252,-0.09843230404,0.02252,5.116024118,
0.02254,-0.09843230404,0.02254,4.38516353,
0.02256,-1.194723187,0.02256,4.38516353,
0.02258,-0.09843230404,0.02258,5.846884707,
0.0226,-3.021874657,0.0226,4.019733236,
0.02262,-2.291014069,0.02262,4.38516353,
0.02264,-2.656444363,0.02264,4.750593824,
0.02266,-3.387304952,0.02266,4.019733236,
0.02268,-4.11816554,0.02268,4.019733236,
0.0227,-3.387304952,0.0227,5.116024118,
0.02272,-4.11816554,0.02272,4.019733236,
0.02274,-4.11816554,0.02274,4.019733236,
0.02276,-3.021874657,0.02276,5.116024118,
0.02278,-4.849026128,0.02278,3.288872648,
0.0228,-4.11816554,0.0228,4.019733236,
0.02282,-3.021874657,0.02282,4.750593824,
0.02284,-3.387304952,0.02284,4.38516353,
0.02286,-2.291014069,0.02286,4.38516353,
0.02288,-3.021874657,0.02288,5.116024118,
0.0229,-2.656444363,0.0229,4.019733236,
0.02292,-2.656444363,0.02292,4.019733236,
0.02294,-1.925583775,0.02294,4.750593824,
0.02296,-2.656444363,0.02296,4.38516353,
0.02298,-0.8292928924,0.02298,5.846884707,
0.023,0.2669979901,0.023,4.38516353,
0.02302,0.2669979901,0.02302,4.750593824,
0.02304,-0.09843230404,0.02304,4.019733236,
0.02306,1.728719167,0.02306,4.750593824,
0.02308,2.459579755,0.02308,4.019733236,
0.0231,1.363288873,0.0231,4.019733236,
0.02312,2.459579755,0.02312,4.750593824,
0.02314,2.825010049,0.02314,4.38516353,
0.02316,2.825010049,0.02316,4.019733236,
0.02318,4.286731226,0.02318,4.38516353,
0.0232,2.459579755,0.0232,4.019733236,
0.02322,3.555870638,0.02322,4.019733236,
0.02324,3.921300932,0.02324,5.116024118,
0.02326,2.459579755,0.02326,4.019733236,
0.02328,3.190440344,0.02328,3.288872648,
0.0233,2.825010049,0.0233,4.750593824,
0.02332,2.459579755,0.02332,4.750593824,
0.02334,2.094149461,0.02334,4.38516353,
0.02336,2.094149461,0.02336,4.750593824,
0.02338,2.825010049,0.02338,2.558012059,
0.0234,1.363288873,0.0234,4.38516353,
0.02342,2.459579755,0.02342,4.38516353,
0.02344,-0.8292928924,0.02344,4.38516353,
0.02346,-0.8292928924,0.02346,4.019733236,
0.02348,-1.560153481,0.02348,5.846884707,
0.0235,-0.8292928924,0.0235,4.750593824,
0.02352,-0.8292928924,0.02352,4.38516353,
0.02354,-1.925583775,0.02354,4.750593824,
0.02356,-2.291014069,0.02356,4.38516353,
0.02358,-3.021874657,0.02358,4.38516353,
0.0236,-3.021874657,0.0236,4.750593824,
0.02362,-3.387304952,0.02362,4.750593824,
0.02364,-3.021874657,0.02364,4.019733236,
0.02366,-3.021874657,0.02366,4.38516353,
0.02368,-4.483595834,0.02368,4.750593824,
0.0237,-3.021874657,0.0237,4.019733236,
0.02372,-4.483595834,0.02372,4.750593824,
0.02374,-4.11816554,0.02374,4.38516353,
0.02376,-3.387304952,0.02376,4.019733236,
0.02378,-2.291014069,0.02378,5.481454413,
0.0238,-3.752735246,0.0238,4.38516353,
0.02382,-1.925583775,0.02382,4.750593824,
0.02384,-1.560153481,0.02384,4.38516353,
0.02386,-1.925583775,0.02386,3.288872648,
0.02388,-2.291014069,0.02388,2.923442353,
0.0239,-1.194723187,0.0239,4.750593824,
0.02392,-0.4638625982,0.02392,4.38516353,
0.02394,0.6324282843,0.02394,4.38516353,
0.02396,1.728719167,0.02396,4.750593824,
0.02398,-0.8292928924,0.02398,3.654302942,
0.024,2.459579755,0.024,4.38516353,
0.02402,2.459579755,0.02402,4.750593824,
0.02404,3.190440344,0.02404,4.750593824,
0.02406,3.555870638,0.02406,4.38516353,
0.02408,2.459579755,0.02408,5.116024118,
0.0241,4.286731226,0.0241,3.654302942,
0.02412,3.921300932,0.02412,4.019733236,
0.02414,4.286731226,0.02414,4.750593824,
0.02416,3.190440344,0.02416,4.019733236,
0.02418,4.286731226,0.02418,4.750593824,
0.0242,3.190440344,0.0242,4.38516353,
0.02422,2.094149461,0.02422,4.019733236,
0.02424,3.190440344,0.02424,4.38516353,
0.02426,3.555870638,0.02426,4.750593824,
0.02428,1.363288873,0.02428,4.019733236,
0.0243,2.094149461,0.0243,4.019733236,
0.02432,1.728719167,0.02432,4.38516353,
0.02434,-0.4638625982,0.02434,4.750593824,
0.02436,1.728719167,0.02436,4.019733236,
0.02438,0.9978585785,0.02438,4.38516353,
0.0244,0.2669979901,0.0244,4.38516353,
0.02442,-0.4638625982,0.02442,4.019733236,
0.02444,-0.8292928924,0.02444,4.750593824,
0.02446,-1.925583775,0.02446,4.750593824,
0.02448,-2.291014069,0.02448,5.116024118,
0.0245,-1.560153481,0.0245,4.750593824,
0.02452,-1.560153481,0.02452,4.38516353,
0.02454,-4.483595834,0.02454,4.019733236,
0.02456,-3.387304952,0.02456,4.38516353,
0.02458,-4.11816554,0.02458,4.38516353,
0.0246,-3.387304952,0.0246,3.654302942,
0.02462,-3.021874657,0.02462,4.38516353,
0.02464,-4.11816554,0.02464,4.750593824,
0.02466,-3.387304952,0.02466,4.019733236,
0.02468,-3.752735246,0.02468,4.750593824,
0.0247,-3.387304952,0.0247,4.38516353,
0.02472,-1.560153481,0.02472,4.38516353,
0.02474,-1.194723187,0.02474,4.750593824,
0.02476,-0.09843230404,0.02476,4.38516353,
0.02478,-1.560153481,0.02478,4.750593824,
0.0248,-0.8292928924,0.0248,4.750593824,
0.02482,-1.560153481,0.02482,4.38516353,
0.02484,-0.8292928924,0.02484,4.750593824,
0.02486,0.6324282843,0.02486,4.019733236,
0.02488,0.6324282843,0.02488,4.38516353,
0.0249,0.6324282843,0.0249,4.019733236,
0.02492,1.728719167,0.02492,4.750593824,
0.02494,2.094149461,0.02494,4.38516353,
0.02496,2.459579755,0.02496,4.019733236,
0.02498,2.825010049,0.02498,4.38516353,
0.025,2.825010049,0.025,5.116024118,
0.02502,3.555870638,0.02502,4.019733236,
0.02504,4.286731226,0.02504,4.750593824,
0.02506,3.190440344,0.02506,4.750593824,
0.02508,2.459579755,0.02508,5.116024118,
0.0251,3.190440344,0.0251,4.38516353,
0.02512,2.825010049,0.02512,3.654302942,
0.02514,3.555870638,0.02514,4.38516353,
0.02516,3.921300932,0.02516,4.750593824,
0.02518,2.459579755,0.02518,4.750593824,
0.0252,2.825010049,0.0252,4.019733236,
0.02522,2.459579755,0.02522,4.750593824,
0.02524,1.728719167,0.02524,4.38516353,
0.02526,1.728719167,0.02526,4.38516353,
0.02528,1.728719167,0.02528,4.750593824,
0.0253,0.6324282843,0.0253,3.654302942,
0.02532,0.6324282843,0.02532,4.750593824,
0.02534,-0.8292928924,0.02534,3.654302942,
0.02536,0.6324282843,0.02536,4.019733236,
0.02538,0.9978585785,0.02538,4.38516353,
0.0254,-1.194723187,0.0254,4.019733236,
0.02542,-0.4638625982,0.02542,3.654302942,
0.02544,-1.560153481,0.02544,4.019733236,
0.02546,-3.021874657,0.02546,3.654302942,
0.02548,-2.291014069,0.02548,4.38516353,
0.0255,-2.656444363,0.0255,4.38516353,
0.02552,-3.387304952,0.02552,4.019733236,
0.02554,-3.021874657,0.02554,4.38516353,
0.02556,-3.021874657,0.02556,4.38516353,
0.02558,-3.752735246,0.02558,3.654302942,
0.0256,-2.656444363,0.0256,4.750593824,
0.02562,-3.021874657,0.02562,4.38516353,
0.02564,-4.483595834,0.02564,4.019733236,
0.02566,-3.021874657,0.02566,4.019733236,
0.02568,-3.021874657,0.02568,3.654302942,
0.0257,-2.291014069,0.0257,3.654302942,
0.02572,-1.925583775,0.02572,4.38516353,
0.02574,-0.8292928924,0.02574,4.019733236,
0.02576,-0.8292928924,0.02576,4.019733236,
0.02578,-0.09843230404,0.02578,4.38516353,
0.0258,1.728719167,0.0258,4.38516353,
0.02582,1.363288873,0.02582,3.654302942,
0.02584,2.094149461,0.02584,4.38516353,
0.02586,0.9978585785,0.02586,4.019733236,
0.02588,0.9978585785,0.02588,4.019733236,
0.0259,2.825010049,0.0259,4.019733236,
0.02592,2.825010049,0.02592,4.019733236,
0.02594,3.190440344,0.02594,4.019733236,
0.02596,4.286731226,0.02596,4.38516353,
0.02598,3.921300932,0.02598,4.38516353,
0.026,2.094149461,0.026,3.654302942,
0.02602,3.555870638,0.02602,4.750593824,
0.02604,3.555870638,0.02604,4.38516353,
0.02606,2.825010049,0.02606,4.019733236,
0.02608,3.921300932,0.02608,4.750593824,
0.0261,3.190440344,0.0261,4.38516353,
0.02612,2.459579755,0.02612,3.654302942,
0.02614,3.190440344,0.02614,4.019733236,
0.02616,2.094149461,0.02616,4.38516353,
0.02618,1.728719167,0.02618,4.019733236,
0.0262,2.459579755,0.0262,4.750593824,
0.02622,0.6324282843,0.02622,4.750593824,
0.02624,-0.4638625982,0.02624,4.38516353,
0.02626,0.2669979901,0.02626,4.38516353,
0.02628,-0.09843230404,0.02628,4.38516353,
0.0263,-1.194723187,0.0263,4.38516353,
0.02632,-0.8292928924,0.02632,4.019733236,
0.02634,-1.560153481,0.02634,4.750593824,
0.02636,-2.656444363,0.02636,4.38516353,
0.02638,-1.925583775,0.02638,4.019733236,
0.0264,-3.021874657,0.0264,4.019733236,
0.02642,-3.021874657,0.02642,4.019733236,
0.02644,-3.021874657,0.02644,4.38516353,
0.02646,-2.656444363,0.02646,4.38516353,
0.02648,-4.11816554,0.02648,4.019733236,
0.0265,-4.483595834,0.0265,4.38516353,
0.02652,-4.11816554,0.02652,4.38516353,
0.02654,-3.387304952,0.02654,4.750593824,
0.02656,-0.8292928924,0.02656,4.750593824,
0.02658,-2.291014069,0.02658,4.019733236,
0.0266,-2.291014069,0.0266,5.481454413,
0.02662,-5.214456422,0.02662,4.38516353,
0.02664,-1.560153481,0.02664,4.750593824,
0.02666,-1.194723187,0.02666,4.019733236,
0.02668,-1.560153481,0.02668,4.38516353,
0.0267,-0.4638625982,0.0267,4.38516353,
0.02672,-0.09843230404,0.02672,4.750593824,
0.02674,1.363288873,0.02674,5.116024118,
0.02676,0.2669979901,0.02676,4.38516353,
0.02678,1.728719167,0.02678,4.38516353,
0.0268,2.094149461,0.0268,3.654302942,
0.02682,3.190440344,0.02682,4.750593824,
0.02684,2.459579755,0.02684,4.38516353,
0.02686,3.190440344,0.02686,4.38516353,
0.02688,2.094149461,0.02688,4.750593824,
0.0269,2.094149461,0.0269,3.288872648,
0.02692,5.383022109,0.02692,4.38516353,
0.02694,3.555870638,0.02694,4.750593824,
0.02696,3.921300932,0.02696,4.019733236,
0.02698,3.190440344,0.02698,5.116024118,
0.027,4.286731226,0.027,5.846884707,
0.02702,3.190440344,0.02702,4.38516353,
0.02704,3.190440344,0.02704,4.750593824,
0.02706,2.094149461,0.02706,4.38516353,
0.02708,2.459579755,0.02708,4.019733236,
0.0271,1.728719167,0.0271,5.481454413,
0.02712,3.555870638,0.02712,4.019733236,
0.02714,0.6324282843,0.02714,4.019733236,
0.02716,2.825010049,0.02716,4.38516353,
0.02718,0.6324282843,0.02718,5.116024118,
0.0272,-0.4638625982,0.0272,5.481454413,
0.02722,-0.09843230404,0.02722,4.38516353,
0.02724,-0.4638625982,0.02724,4.38516353,
0.02726,-1.925583775,0.02726,4.38516353,
0.02728,-2.291014069,0.02728,5.116024118,
0.0273,-0.09843230404,0.0273,3.654302942,
0.02732,-2.656444363,0.02732,4.38516353,
0.02734,-3.752735246,0.02734,4.750593824,
0.02736,-4.11816554,0.02736,4.38516353,
0.02738,-3.021874657,0.02738,4.38516353,
0.0274,-4.483595834,0.0274,3.654302942,
0.02742,-4.849026128,0.02742,4.38516353,
0.02744,-3.021874657,0.02744,4.38516353,
0.02746,-3.387304952,0.02746,4.750593824,
0.02748,-4.11816554,0.02748,4.38516353,
0.0275,-3.021874657,0.0275,5.116024118,
0.02752,-3.021874657,0.02752,4.38516353,
0.02754,-2.291014069,0.02754,4.38516353,
0.02756,-2.291014069,0.02756,4.38516353,
0.02758,-2.291014069,0.02758,4.38516353,
0.0276,-0.8292928924,0.0276,5.481454413,
0.02762,-1.560153481,0.02762,4.38516353,
0.02764,0.2669979901,0.02764,4.38516353,
0.02766,2.459579755,0.02766,4.019733236,
0.02768,-0.09843230404,0.02768,4.019733236,
0.0277,1.363288873,0.0277,4.019733236,
0.02772,0.6324282843,0.02772,4.750593824,
0.02774,2.094149461,0.02774,4.38516353,
0.02776,1.363288873,0.02776,4.38516353,
0.02778,2.459579755,0.02778,4.38516353,
0.0278,3.555870638,0.0278,3.654302942,
0.02782,0.9978585785,0.02782,4.750593824,
0.02784,3.190440344,0.02784,4.38516353,
0.02786,3.190440344,0.02786,4.38516353,
0.02788,4.286731226,0.02788,4.750593824,
0.0279,3.921300932,0.0279,4.38516353,
0.02792,3.555870638,0.02792,4.38516353,
0.02794,3.921300932,0.02794,4.750593824,
0.02796,1.728719167,0.02796,4.019733236,
0.02798,4.286731226,0.02798,4.38516353,
0.028,2.459579755,0.028,5.116024118,
0.02802,4.65216152,0.02802,4.019733236,
0.02804,0.6324282843,0.02804,4.38516353,
0.02806,2.094149461,0.02806,4.38516353,
0.02808,0.9978585785,0.02808,4.38516353,
0.0281,-0.09843230404,0.0281,4.019733236,
0.02812,0.9978585785,0.02812,4.38516353,
0.02814,-0.4638625982,0.02814,4.019733236,
0.02816,0.2669979901,0.02816,4.019733236,
0.02818,-0.4638625982,0.02818,3.654302942,
0.0282,-1.560153481,0.0282,3.654302942,
0.02822,-1.194723187,0.02822,4.019733236,
0.02824,-3.021874657,0.02824,4.019733236,
0.02826,-2.656444363,0.02826,4.38516353,
0.02828,-3.021874657,0.02828,4.019733236,
0.0283,-3.387304952,0.0283,2.923442353,
0.02832,-4.483595834,0.02832,4.019733236,
0.02834,-3.021874657,0.02834,4.019733236,
0.02836,-3.752735246,0.02836,4.019733236,
0.02838,-2.656444363,0.02838,4.38516353,
0.0284,-3.021874657,0.0284,4.38516353,
0.02842,-7.041607893,0.02842,4.019733236,
0.02844,-1.194723187,0.02844,4.750593824,
0.02846,-3.387304952,0.02846,4.019733236,
0.02848,-2.291014069,0.02848,3.654302942,
0.0285,-2.656444363,0.0285,4.38516353,
0.02852,-0.4638625982,0.02852,3.654302942,
0.02854,-1.560153481,0.02854,4.019733236,
0.02856,-1.560153481,0.02856,4.38516353,
0.02858,-0.09843230404,0.02858,3.654302942,
0.0286,0.2669979901,0.0286,3.654302942,
0.02862,-0.4638625982,0.02862,4.38516353,
0.02864,1.728719167,0.02864,4.019733236,
0.02866,1.363288873,0.02866,3.654302942,
0.02868,3.921300932,0.02868,4.38516353,
0.0287,2.825010049,0.0287,3.654302942,
0.02872,2.459579755,0.02872,3.654302942,
0.02874,2.459579755,0.02874,4.38516353,
0.02876,3.921300932,0.02876,4.38516353,
0.02878,3.190440344,0.02878,3.654302942,
0.0288,3.190440344,0.0288,4.019733236,
0.02882,2.825010049,0.02882,4.38516353,
0.02884,3.555870638,0.02884,4.019733236,
0.02886,3.921300932,0.02886,4.019733236,
0.02888,1.363288873,0.02888,3.654302942,
0.0289,3.190440344,0.0289,4.019733236,
0.02892,5.017591814,0.02892,4.750593824,
0.02894,3.921300932,0.02894,4.019733236,
0.02896,1.363288873,0.02896,4.019733236,
0.02898,1.728719167,0.02898,4.38516353,
0.029,1.363288873,0.029,4.38516353,
0.02902,1.728719167,0.02902,4.38516353,
0.02904,0.6324282843,0.02904,4.38516353,
0.02906,-1.560153481,0.02906,4.38516353,
0.02908,-1.194723187,0.02908,4.019733236,
0.0291,-0.8292928924,0.0291,4.38516353,
0.02912,-1.194723187,0.02912,4.750593824,
0.02914,-3.387304952,0.02914,4.019733236,
0.02916,-3.021874657,0.02916,4.38516353,
0.02918,-1.925583775,0.02918,4.38516353,
0.0292,-2.291014069,0.0292,4.019733236,
0.02922,-4.483595834,0.02922,4.019733236,
0.02924,-3.387304952,0.02924,4.019733236,
0.02926,-2.656444363,0.02926,4.019733236,
0.02928,-2.656444363,0.02928,4.019733236,
0.0293,-3.021874657,0.0293,4.38516353,
0.02932,-3.752735246,0.02932,3.654302942,
0.02934,-2.291014069,0.02934,4.019733236,
0.02936,-2.291014069,0.02936,4.38516353,
0.02938,-3.021874657,0.02938,4.019733236,
0.0294,-2.291014069,0.0294,4.38516353,
0.02942,-0.8292928924,0.02942,4.38516353,
0.02944,-2.291014069,0.02944,3.654302942,
0.02946,-2.291014069,0.02946,4.38516353,
0.02948,-0.4638625982,0.02948,4.38516353,
0.0295,-0.8292928924,0.0295,3.654302942,
0.02952,0.9978585785,0.02952,4.38516353,
0.02954,0.2669979901,0.02954,4.38516353,
0.02956,2.459579755,0.02956,4.019733236,
0.02958,-0.8292928924,0.02958,4.38516353,
0.0296,2.459579755,0.0296,4.750593824,
0.02962,3.555870638,0.02962,4.019733236,
0.02964,3.555870638,0.02964,4.38516353,
0.02966,1.363288873,0.02966,4.750593824,
0.02968,1.728719167,0.02968,4.019733236,
0.0297,2.459579755,0.0297,4.019733236,
0.02972,2.825010049,0.02972,4.019733236,
0.02974,3.921300932,0.02974,4.019733236,
0.02976,3.921300932,0.02976,4.38516353,
0.02978,5.017591814,0.02978,4.38516353,
0.0298,3.190440344,0.0298,3.654302942,
0.02982,2.825010049,0.02982,4.38516353,
0.02984,4.286731226,0.02984,4.38516353,
0.02986,-0.4638625982,0.02986,4.019733236,
0.02988,3.190440344,0.02988,4.38516353,
0.0299,2.094149461,0.0299,4.019733236,
0.02992,-0.09843230404,0.02992,3.654302942,
0.02994,0.6324282843,0.02994,4.38516353,
0.02996,0.6324282843,0.02996,4.019733236,
0.02998,0.2669979901,0.02998,4.019733236,
0.03,0.2669979901,0.03,4.38516353,
0.03002,0.2669979901,0.03002,4.38516353,
0.03004,-1.560153481,0.03004,4.019733236,
0.03006,-1.194723187,0.03006,4.38516353,
0.03008,-3.021874657,0.03008,4.019733236,
0.0301,-2.656444363,0.0301,5.116024118,
0.03012,-2.656444363,0.03012,4.750593824,
0.03014,-3.387304952,0.03014,3.654302942,
0.03016,-4.849026128,0.03016,4.750593824,
0.03018,-3.752735246,0.03018,4.019733236,
0.0302,-3.752735246,0.0302,3.654302942,
0.03022,-3.021874657,0.03022,5.116024118,
0.03024,-1.560153481,0.03024,4.019733236,
0.03026,-3.752735246,0.03026,4.019733236,
0.03028,-3.387304952,0.03028,5.116024118,
0.0303,-3.752735246,0.0303,4.38516353,
0.03032,-3.387304952,0.03032,4.38516353,
0.03034,-2.291014069,0.03034,4.750593824,
0.03036,-2.656444363,0.03036,4.750593824,
0.03038,-2.291014069,0.03038,4.019733236,
0.0304,-0.8292928924,0.0304,4.750593824,
0.03042,-1.925583775,0.03042,4.38516353,
0.03044,-0.8292928924,0.03044,4.019733236,
0.03046,0.6324282843,0.03046,4.750593824,
0.03048,-0.4638625982,0.03048,4.750593824,
0.0305,0.9978585785,0.0305,4.019733236,
0.03052,0.9978585785,0.03052,4.750593824,
0.03054,1.728719167,0.03054,4.38516353,
0.03056,2.094149461,0.03056,4.019733236,
0.03058,3.190440344,0.03058,4.750593824,
0.0306,2.825010049,0.0306,4.019733236,
0.03062,2.459579755,0.03062,4.38516353,
0.03064,3.190440344,0.03064,5.116024118,
0.03066,3.190440344,0.03066,4.38516353,
0.03068,3.190440344,0.03068,4.019733236,
0.0307,2.825010049,0.0307,4.019733236,
0.03072,1.363288873,0.03072,4.019733236,
0.03074,3.190440344,0.03074,4.38516353,
0.03076,3.190440344,0.03076,4.750593824,
0.03078,2.825010049,0.03078,4.019733236,
0.0308,2.094149461,0.0308,4.019733236,
0.03082,2.459579755,0.03082,4.38516353,
0.03084,1.728719167,0.03084,4.019733236,
0.03086,2.825010049,0.03086,4.38516353,
0.03088,1.728719167,0.03088,4.750593824,
0.0309,-0.09843230404,0.0309,4.38516353,
0.03092,0.6324282843,0.03092,4.38516353,
0.03094,-0.4638625982,0.03094,4.38516353,
0.03096,-1.925583775,0.03096,4.019733236,
0.03098,-1.194723187,0.03098,4.38516353,
0.031,1.363288873,0.031,4.38516353,
0.03102,-2.656444363,0.03102,4.019733236,
0.03104,-3.021874657,0.03104,4.38516353,
0.03106,-3.387304952,0.03106,4.750593824,
0.03108,-3.752735246,0.03108,4.38516353,
0.0311,-3.752735246,0.0311,4.019733236,
0.03112,-4.849026128,0.03112,5.116024118,
0.03114,-3.387304952,0.03114,4.019733236,
0.03116,-3.387304952,0.03116,4.019733236,
0.03118,-2.291014069,0.03118,4.750593824,
0.0312,-3.387304952,0.0312,4.38516353,
0.03122,-4.11816554,0.03122,4.750593824,
0.03124,-3.021874657,0.03124,4.750593824,
0.03126,-2.291014069,0.03126,4.38516353,
0.03128,-2.291014069,0.03128,4.019733236,
0.0313,-0.8292928924,0.0313,4.38516353,
0.03132,-2.291014069,0.03132,4.750593824,
0.03134,-2.291014069,0.03134,4.019733236,
0.03136,-0.4638625982,0.03136,4.019733236,
0.03138,-0.8292928924,0.03138,4.38516353,
0.0314,-0.09843230404,0.0314,3.654302942,
0.03142,-0.4638625982,0.03142,5.116024118,
0.03144,0.9978585785,0.03144,4.019733236,
0.03146,0.6324282843,0.03146,4.38516353,
0.03148,2.459579755,0.03148,4.750593824,
0.0315,2.094149461,0.0315,4.38516353,
0.03152,2.094149461,0.03152,4.019733236,
0.03154,5.017591814,0.03154,4.38516353,
0.03156,3.921300932,0.03156,4.38516353,
0.03158,3.555870638,0.03158,3.654302942,
0.0316,3.921300932,0.0316,4.750593824,
0.03162,3.921300932,0.03162,3.654302942,
0.03164,3.190440344,0.03164,4.38516353,
0.03166,2.825010049,0.03166,4.38516353,
0.03168,3.555870638,0.03168,4.019733236,
0.0317,3.190440344,0.0317,4.750593824,
0.03172,4.286731226,0.03172,3.654302942,
0.03174,2.459579755,0.03174,4.019733236,
0.03176,1.728719167,0.03176,4.019733236,
0.03178,-0.4638625982,0.03178,4.38516353,
0.0318,1.728719167,0.0318,4.38516353,
0.03182,0.2669979901,0.03182,5.481454413,
0.03184,-1.560153481,0.03184,4.750593824,
0.03186,-1.194723187,0.03186,4.38516353,
0.03188,-1.560153481,0.03188,4.38516353,
0.0319,-0.8292928924,0.0319,4.750593824,
0.03192,-0.8292928924,0.03192,4.750593824,
0.03194,-1.560153481,0.03194,4.38516353,
0.03196,-4.483595834,0.03196,4.750593824,
0.03198,-2.656444363,0.03198,4.38516353,
0.032,-3.021874657,0.032,4.38516353,
0.03202,-4.483595834,0.03202,3.288872648,
0.03204,-3.752735246,0.03204,4.38516353,
0.03206,-2.656444363,0.03206,4.38516353,
0.03208,-3.752735246,0.03208,4.750593824,
0.0321,-3.387304952,0.0321,4.38516353,
0.03212,-3.752735246,0.03212,2.558012059,
0.03214,-3.021874657,0.03214,4.750593824,
0.03216,-3.021874657,0.03216,4.38516353,
0.03218,-4.483595834,0.03218,4.750593824,
0.0322,-2.291014069,0.0322,4.38516353,
0.03222,-2.656444363,0.03222,3.288872648,
0.03224,-2.656444363,0.03224,4.750593824,
0.03226,-1.925583775,0.03226,4.750593824,
0.03228,1.363288873,0.03228,4.38516353,
0.0323,-0.4638625982,0.0323,4.750593824,
0.03232,0.2669979901,0.03232,5.481454413,
0.03234,0.2669979901,0.03234,4.38516353,
0.03236,2.459579755,0.03236,4.38516353,
0.03238,0.6324282843,0.03238,3.654302942,
0.0324,2.094149461,0.0324,4.019733236,
0.03242,2.459579755,0.03242,5.481454413,
0.03244,2.094149461,0.03244,4.38516353,
0.03246,2.094149461,0.03246,4.019733236,
0.03248,2.825010049,0.03248,4.38516353,
0.0325,3.190440344,0.0325,4.019733236,
0.03252,4.286731226,0.03252,2.923442353,
0.03254,3.190440344,0.03254,5.116024118,
0.03256,3.190440344,0.03256,4.019733236,
0.03258,3.555870638,0.03258,4.019733236,
0.0326,2.094149461,0.0326,4.750593824,
0.03262,3.190440344,0.03262,4.019733236,
0.03264,4.286731226,0.03264,4.019733236,
0.03266,0.6324282843,0.03266,4.750593824,
0.03268,2.094149461,0.03268,5.116024118,
0.0327,2.825010049,0.0327,4.750593824,
0.03272,1.728719167,0.03272,5.846884707,
0.03274,0.9978585785,0.03274,4.38516353,
0.03276,0.6324282843,0.03276,4.38516353,
0.03278,0.2669979901,0.03278,4.750593824,
0.0328,0.2669979901,0.0328,4.38516353,
0.03282,-1.560153481,0.03282,3.288872648,
0.03284,-1.560153481,0.03284,4.750593824,
0.03286,-3.387304952,0.03286,4.38516353,
0.03288,-2.291014069,0.03288,4.38516353,
0.0329,-2.291014069,0.0329,5.116024118,
0.03292,-2.656444363,0.03292,4.750593824,
0.03294,-1.194723187,0.03294,4.019733236,
0.03296,-2.291014069,0.03296,4.750593824,
0.03298,-4.483595834,0.03298,4.750593824,
0.033,-3.021874657,0.033,4.38516353,
0.03302,-3.021874657,0.03302,5.481454413,
0.03304,-4.483595834,0.03304,4.38516353,
0.03306,-3.021874657,0.03306,4.38516353,
0.03308,-3.387304952,0.03308,4.750593824,
0.0331,-3.752735246,0.0331,4.38516353,
0.03312,-3.021874657,0.03312,3.288872648,
0.03314,-1.925583775,0.03314,4.38516353,
0.03316,-2.656444363,0.03316,4.38516353,
0.03318,-1.560153481,0.03318,4.019733236,
0.0332,-1.194723187,0.0332,4.750593824,
0.03322,-1.925583775,0.03322,3.654302942,
0.03324,-0.09843230404,0.03324,4.019733236,
0.03326,0.2669979901,0.03326,4.019733236,
0.03328,-0.09843230404,0.03328,4.019733236,
0.0333,1.363288873,0.0333,4.38516353,
0.03332,2.094149461,0.03332,4.750593824,
0.03334,2.094149461,0.03334,4.38516353,
0.03336,2.825010049,0.03336,4.38516353,
0.03338,3.555870638,0.03338,4.750593824,
0.0334,2.825010049,0.0334,4.38516353,
0.03342,0.9978585785,0.03342,5.116024118,
0.03344,4.286731226,0.03344,4.750593824,
0.03346,2.459579755,0.03346,4.38516353,
0.03348,3.555870638,0.03348,4.38516353,
0.0335,3.555870638,0.0335,4.019733236,
0.03352,1.728719167,0.03352,4.38516353,
0.03354,3.555870638,0.03354,4.019733236,
0.03356,2.459579755,0.03356,4.750593824,
0.03358,2.094149461,0.03358,4.38516353,
0.0336,3.190440344,0.0336,4.750593824,
0.03362,2.825010049,0.03362,4.750593824,
0.03364,2.094149461,0.03364,5.116024118,
0.03366,0.9978585785,0.03366,4.019733236,
0.03368,0.2669979901,0.03368,4.750593824,
0.0337,-0.09843230404,0.0337,5.116024118,
0.03372,0.2669979901,0.03372,4.750593824,
0.03374,-0.4638625982,0.03374,4.750593824,
0.03376,-1.560153481,0.03376,4.38516353,
0.03378,-1.560153481,0.03378,4.38516353,
0.0338,-1.925583775,0.0338,4.019733236,
0.03382,-3.387304952,0.03382,4.019733236,
0.03384,-3.387304952,0.03384,4.38516353,
0.03386,-3.021874657,0.03386,4.750593824,
0.03388,-3.387304952,0.03388,4.019733236,
0.0339,-3.752735246,0.0339,4.38516353,
0.03392,-3.387304952,0.03392,3.654302942,
0.03394,-3.021874657,0.03394,4.750593824,
0.03396,-3.387304952,0.03396,4.38516353,
0.03398,-4.11816554,0.03398,4.019733236,
0.034,-3.021874657,0.034,4.38516353,
0.03402,-1.925583775,0.03402,4.38516353,
0.03404,-2.656444363,0.03404,3.288872648,
0.03406,-2.291014069,0.03406,4.38516353,
0.03408,-1.560153481,0.03408,4.38516353,
0.0341,-1.560153481,0.0341,4.019733236,
0.03412,-0.09843230404,0.03412,4.38516353,
0.03414,-1.194723187,0.03414,4.38516353,
0.03416,-0.09843230404,0.03416,3.654302942,
0.03418,-0.4638625982,0.03418,4.750593824,
0.0342,0.2669979901,0.0342,4.750593824,
0.03422,0.6324282843,0.03422,4.019733236,
0.03424,0.9978585785,0.03424,4.019733236,
0.03426,3.555870638,0.03426,4.38516353,
0.03428,2.094149461,0.03428,3.654302942,
0.0343,2.094149461,0.0343,4.38516353,
0.03432,3.555870638,0.03432,4.38516353,
0.03434,2.459579755,0.03434,4.019733236,
0.03436,3.921300932,0.03436,4.750593824,
0.03438,5.383022109,0.03438,4.019733236,
0.0344,3.921300932,0.0344,4.019733236,
0.03442,4.286731226,0.03442,4.750593824,
0.03444,4.65216152,0.03444,4.019733236,
0.03446,5.017591814,0.03446,4.019733236,
0.03448,1.363288873,0.03448,4.38516353,
0.0345,2.825010049,0.0345,4.019733236,
0.03452,2.094149461,0.03452,3.654302942,
0.03454,2.825010049,0.03454,4.38516353,
0.03456,2.094149461,0.03456,4.38516353,
0.03458,0.6324282843,0.03458,4.019733236,
0.0346,1.728719167,0.0346,4.38516353,
0.03462,0.9978585785,0.03462,4.38516353,
0.03464,0.2669979901,0.03464,3.654302942,
0.03466,-0.4638625982,0.03466,4.750593824,
0.03468,-0.09843230404,0.03468,4.38516353,
0.0347,-2.291014069,0.0347,4.019733236,
0.03472,-0.4638625982,0.03472,4.38516353,
0.03474,-2.291014069,0.03474,4.38516353,
0.03476,-3.021874657,0.03476,4.019733236,
0.03478,-1.560153481,0.03478,4.750593824,
0.0348,-2.291014069,0.0348,4.38516353,
0.03482,-3.387304952,0.03482,3.654302942,
0.03484,-3.387304952,0.03484,4.38516353,
0.03486,-3.387304952,0.03486,4.38516353,
0.03488,-3.387304952,0.03488,3.654302942,
0.0349,-2.656444363,0.0349,4.38516353,
0.03492,-4.11816554,0.03492,4.38516353,
0.03494,-3.021874657,0.03494,3.654302942,
0.03496,-3.387304952,0.03496,4.38516353,
0.03498,-2.291014069,0.03498,4.38516353,
0.035,-2.656444363,0.035,4.019733236,
0.03502,0.9978585785,0.03502,4.38516353,
0.03504,-1.925583775,0.03504,4.38516353,
0.03506,-2.291014069,0.03506,3.288872648,
0.03508,-0.09843230404,0.03508,4.750593824,
0.0351,1.728719167,0.0351,4.38516353,
0.03512,-0.4638625982,0.03512,4.019733236,
0.03514,0.9978585785,0.03514,4.38516353,
0.03516,2.094149461,0.03516,4.019733236,
0.03518,1.363288873,0.03518,4.019733236,
0.0352,2.825010049,0.0352,4.38516353,
0.03522,3.190440344,0.03522,4.019733236,
0.03524,2.825010049,0.03524,4.019733236,
0.03526,3.921300932,0.03526,4.750593824,
0.03528,3.921300932,0.03528,3.654302942,
0.0353,3.921300932,0.0353,4.019733236,
0.03532,3.921300932,0.03532,4.38516353,
0.03534,2.825010049,0.03534,4.38516353,
0.03536,3.190440344,0.03536,4.019733236,
0.03538,3.190440344,0.03538,4.38516353,
0.0354,3.921300932,0.0354,4.38516353,
0.03542,2.094149461,0.03542,3.654302942,
0.03544,3.190440344,0.03544,3.654302942,
0.03546,3.190440344,0.03546,3.654302942,
0.03548,1.728719167,0.03548,4.019733236,
0.0355,2.825010049,0.0355,4.019733236,
0.03552,2.094149461,0.03552,4.38516353,
0.03554,0.2669979901,0.03554,4.38516353,
0.03556,0.9978585785,0.03556,4.38516353,
0.03558,0.2669979901,0.03558,4.019733236,
0.0356,-1.194723187,0.0356,3.654302942,
0.03562,-0.4638625982,0.03562,4.38516353,
0.03564,-1.194723187,0.03564,5.116024118,
0.03566,-1.560153481,0.03566,3.654302942,
0.03568,-4.11816554,0.03568,4.38516353,
0.0357,-2.656444363,0.0357,4.019733236,
0.03572,-3.021874657,0.03572,3.654302942,
0.03574,-2.656444363,0.03574,4.019733236,
0.03576,-3.752735246,0.03576,4.38516353,
0.03578,-4.11816554,0.03578,4.38516353,
0.0358,-3.752735246,0.0358,4.750593824,
0.03582,-4.483595834,0.03582,4.38516353,
0.03584,-3.752735246,0.03584,4.019733236,
0.03586,-4.849026128,0.03586,4.38516353,
0.03588,-4.11816554,0.03588,4.38516353,
0.0359,-1.925583775,0.0359,5.116024118,
0.03592,-1.560153481,0.03592,4.38516353,
0.03594,-3.387304952,0.03594,5.116024118,
0.03596,-3.387304952,0.03596,4.38516353,
0.03598,-0.4638625982,0.03598,4.38516353,
0.036,-0.09843230404,0.036,4.38516353,
0.03602,-0.8292928924,0.03602,4.750593824,
0.03604,1.363288873,0.03604,3.654302942,
0.03606,-0.4638625982,0.03606,4.019733236,
0.03608,0.6324282843,0.03608,4.750593824,
0.0361,0.9978585785,0.0361,4.019733236,
0.03612,0.6324282843,0.03612,4.38516353,
0.03614,2.094149461,0.03614,5.481454413,
0.03616,1.728719167,0.03616,4.019733236,
0.03618,2.825010049,0.03618,4.38516353,
0.0362,3.190440344,0.0362,4.750593824,
0.03622,5.017591814,0.03622,4.019733236,
0.03624,2.094149461,0.03624,4.750593824,
0.03626,3.555870638,0.03626,4.38516353,
0.03628,3.921300932,0.03628,4.019733236,
0.0363,3.190440344,0.0363,4.019733236,
0.03632,4.286731226,0.03632,5.116024118,
0.03634,4.286731226,0.03634,4.019733236,
0.03636,3.190440344,0.03636,4.38516353,
0.03638,1.363288873,0.03638,4.38516353,
0.0364,1.363288873,0.0364,4.019733236,
0.03642,1.728719167,0.03642,4.38516353,
0.03644,2.459579755,0.03644,3.654302942,
0.03646,-0.09843230404,0.03646,4.38516353,
0.03648,0.6324282843,0.03648,4.38516353,
0.0365,-0.8292928924,0.0365,4.38516353,
0.03652,-3.021874657,0.03652,3.654302942,
0.03654,-0.8292928924,0.03654,3.288872648,
0.03656,-1.925583775,0.03656,4.38516353,
0.03658,-3.387304952,0.03658,4.38516353,
0.0366,-2.291014069,0.0366,4.019733236,
0.03662,-3.752735246,0.03662,4.750593824,
0.03664,-2.656444363,0.03664,4.38516353,
0.03666,-3.752735246,0.03666,4.019733236,
0.03668,-3.021874657,0.03668,4.019733236,
0.0367,-2.291014069,0.0367,4.38516353,
0.03672,-4.483595834,0.03672,4.38516353,
0.03674,-3.387304952,0.03674,5.116024118,
0.03676,-0.4638625982,0.03676,4.38516353,
0.03678,-3.387304952,0.03678,4.38516353,
0.0368,-3.752735246,0.0368,4.750593824,
0.03682,-2.656444363,0.03682,4.38516353,
0.03684,-2.291014069,0.03684,4.38516353,
0.03686,-4.849026128,0.03686,4.38516353,
0.03688,-2.656444363,0.03688,4.750593824,
0.0369,-1.925583775,0.0369,4.750593824,
0.03692,-0.8292928924,0.03692,4.38516353,
0.03694,-0.8292928924,0.03694,4.019733236,
0.03696,-2.656444363,0.03696,3.654302942,
0.03698,-0.09843230404,0.03698,4.019733236,
0.037,-0.09843230404,0.037,4.019733236,
0.03702,1.728719167,0.03702,4.750593824,
0.03704,2.094149461,0.03704,4.38516353,
0.03706,-0.09843230404,0.03706,3.654302942,
0.03708,3.921300932,0.03708,4.38516353,
0.0371,2.094149461,0.0371,4.38516353,
0.03712,3.190440344,0.03712,4.019733236,
0.03714,4.286731226,0.03714,4.38516353,
0.03716,5.383022109,0.03716,4.38516353,
0.03718,3.921300932,0.03718,4.019733236,
0.0372,4.286731226,0.0372,4.38516353,
0.03722,3.921300932,0.03722,4.38516353,
0.03724,3.190440344,0.03724,3.654302942,
0.03726,3.190440344,0.03726,4.38516353,
0.03728,5.383022109,0.03728,4.38516353,
0.0373,3.190440344,0.0373,4.38516353,
0.03732,1.363288873,0.03732,4.38516353,
0.03734,2.459579755,0.03734,4.750593824,
0.03736,3.190440344,0.03736,4.38516353,
0.03738,2.459579755,0.03738,4.38516353,
0.0374,-0.4638625982,0.0374,4.019733236,
0.03742,1.728719167,0.03742,4.019733236,
0.03744,0.6324282843,0.03744,4.750593824,
0.03746,0.2669979901,0.03746,4.38516353,
0.03748,-0.09843230404,0.03748,3.654302942,
0.0375,0.2669979901,0.0375,4.38516353,
0.03752,-1.925583775,0.03752,4.38516353,
0.03754,-2.656444363,0.03754,4.019733236,
0.03756,-3.387304952,0.03756,4.750593824,
0.03758,-3.021874657,0.03758,4.38516353,
0.0376,-3.021874657,0.0376,4.019733236,
0.03762,-2.656444363,0.03762,4.750593824,
0.03764,0.6324282843,0.03764,4.750593824,
0.03766,-4.11816554,0.03766,3.654302942,
0.03768,-3.752735246,0.03768,4.750593824,
0.0377,-2.656444363,0.0377,4.38516353,
0.03772,-3.752735246,0.03772,3.654302942,
0.03774,-3.021874657,0.03774,4.38516353,
0.03776,-1.560153481,0.03776,4.38516353,
0.03778,-1.560153481,0.03778,4.019733236,
0.0378,-1.925583775,0.0378,4.38516353,
0.03782,-1.560153481,0.03782,4.019733236,
0.03784,-0.09843230404,0.03784,3.654302942,
0.03786,-1.560153481,0.03786,4.38516353,
0.03788,-0.4638625982,0.03788,4.019733236,
0.0379,-0.09843230404,0.0379,4.019733236,
0.03792,0.6324282843,0.03792,4.019733236,
0.03794,0.2669979901,0.03794,4.019733236,
0.03796,-0.09843230404,0.03796,4.019733236,
0.03798,2.459579755,0.03798,4.019733236,
0.038,2.459579755,0.038,4.38516353,
0.03802,2.825010049,0.03802,4.019733236,
0.03804,3.190440344,0.03804,4.38516353,
0.03806,1.363288873,0.03806,4.38516353,
0.03808,3.555870638,0.03808,3.654302942,
0.0381,4.65216152,0.0381,4.019733236,
0.03812,3.921300932,0.03812,4.38516353,
0.03814,3.190440344,0.03814,3.654302942,
0.03816,4.286731226,0.03816,4.38516353,
0.03818,3.921300932,0.03818,4.750593824,
0.0382,3.555870638,0.0382,4.38516353,
0.03822,3.555870638,0.03822,4.38516353,
0.03824,3.921300932,0.03824,4.38516353,
0.03826,1.728719167,0.03826,4.019733236,
0.03828,3.921300932,0.03828,4.38516353,
0.0383,2.825010049,0.0383,4.38516353,
0.03832,2.094149461,0.03832,4.38516353,
0.03834,-0.09843230404,0.03834,4.019733236,
0.03836,1.728719167,0.03836,4.750593824,
0.03838,0.2669979901,0.03838,4.019733236,
0.0384,0.2669979901,0.0384,4.38516353,
0.03842,-2.656444363,0.03842,4.38516353,
0.03844,-0.8292928924,0.03844,3.654302942,
0.03846,-0.09843230404,0.03846,4.019733236,
0.03848,-2.656444363,0.03848,4.019733236,
0.0385,-4.11816554,0.0385,3.288872648,
0.03852,-1.560153481,0.03852,4.019733236,
0.03854,-1.925583775,0.03854,4.019733236,
0.03856,-2.291014069,0.03856,3.654302942,
0.03858,-3.021874657,0.03858,4.38516353,
0.0386,-3.021874657,0.0386,4.019733236,
0.03862,-3.752735246,0.03862,4.38516353,
0.03864,-4.483595834,0.03864,4.38516353,
0.03866,-4.11816554,0.03866,4.38516353,
0.03868,-3.752735246,0.03868,4.750593824,
0.0387,-4.11816554,0.0387,4.019733236,
0.03872,-3.387304952,0.03872,4.019733236,
0.03874,-3.021874657,0.03874,4.750593824,
0.03876,-2.656444363,0.03876,4.019733236,
0.03878,-1.925583775,0.03878,4.38516353,
0.0388,-1.194723187,0.0388,4.750593824,
0.03882,-0.8292928924,0.03882,4.019733236,
0.03884,-0.4638625982,0.03884,4.38516353,
0.03886,-0.8292928924,0.03886,4.750593824,
0.03888,1.363288873,0.03888,3.654302942,
0.0389,0.9978585785,0.0389,4.019733236,
0.03892,1.728719167,0.03892,5.116024118,
0.03894,1.363288873,0.03894,3.654302942,
0.03896,3.555870638,0.03896,4.019733236,
0.03898,2.459579755,0.03898,4.750593824,
0.039,2.094149461,0.039,4.38516353,
0.03902,3.190440344,0.03902,4.38516353,
0.03904,3.921300932,0.03904,4.750593824,
0.03906,3.190440344,0.03906,4.019733236,
0.03908,3.555870638,0.03908,4.019733236,
0.0391,3.555870638,0.0391,4.750593824,
0.03912,2.825010049,0.03912,4.38516353,
0.03914,3.555870638,0.03914,4.019733236,
0.03916,4.65216152,0.03916,4.38516353,
0.03918,2.094149461,0.03918,4.019733236,
0.0392,3.921300932,0.0392,4.019733236,
0.03922,0.9978585785,0.03922,4.750593824,
0.03924,0.9978585785,0.03924,4.019733236,
0.03926,-0.4638625982,0.03926,4.38516353,
0.03928,0.6324282843,0.03928,5.116024118,
0.0393,-0.4638625982,0.0393,4.019733236,
0.03932,-0.4638625982,0.03932,4.019733236,
0.03934,1.728719167,0.03934,4.750593824,
0.03936,-1.925583775,0.03936,3.654302942,
0.03938,-2.291014069,0.03938,4.38516353,
0.0394,-1.925583775,0.0394,4.750593824,
0.03942,-2.656444363,0.03942,4.750593824,
0.03944,-3.387304952,0.03944,4.019733236,
0.03946,-2.291014069,0.03946,4.750593824,
0.03948,-3.752735246,0.03948,4.38516353,
0.0395,-3.387304952,0.0395,4.38516353,
0.03952,-2.656444363,0.03952,4.750593824,
0.03954,-2.656444363,0.03954,4.38516353,
0.03956,-3.752735246,0.03956,5.116024118,
0.03958,-3.021874657,0.03958,4.750593824,
0.0396,-3.752735246,0.0396,4.38516353,
0.03962,-0.4638625982,0.03962,4.019733236,
0.03964,-3.021874657,0.03964,4.38516353,
0.03966,-0.8292928924,0.03966,4.019733236,
0.03968,-2.291014069,0.03968,4.019733236,
0.0397,-0.8292928924,0.0397,4.38516353,
0.03972,-1.925583775,0.03972,4.38516353,
0.03974,-1.560153481,0.03974,4.019733236,
0.03976,-0.8292928924,0.03976,2.923442353,
0.03978,-0.4638625982,0.03978,4.38516353,
0.0398,0.6324282843,0.0398,4.019733236,
0.03982,0.6324282843,0.03982,5.116024118,
0.03984,0.6324282843,0.03984,4.38516353,
0.03986,1.363288873,0.03986,2.558012059,
0.03988,2.459579755,0.03988,4.750593824,
0.0399,0.9978585785,0.0399,4.38516353,
0.03992,0.9978585785,0.03992,4.38516353,
0.03994,3.921300932,0.03994,4.750593824,
0.03996,2.094149461,0.03996,3.288872648,
0.03998,1.728719167,0.03998,3.654302942,
0.04,3.190440344,0.04,4.750593824,
0.04002,2.459579755,0.04002,4.38516353,
0.04004,2.094149461,0.04004,4.38516353,
0.04006,3.555870638,0.04006,6.577745295,
0.04008,2.825010049,0.04008,4.019733236,
0.0401,1.728719167,0.0401,4.019733236,
0.04012,2.459579755,0.04012,5.116024118,
0.04014,0.6324282843,0.04014,4.38516353,
0.04016,0.9978585785,0.04016,4.750593824,
0.04018,1.728719167,0.04018,4.750593824,
0.0402,-0.09843230404,0.0402,4.019733236,
0.04022,-1.560153481,0.04022,4.750593824,
0.04024,0.6324282843,0.04024,4.019733236,
0.04026,-0.09843230404,0.04026,2.192581765,
0.04028,-0.09843230404,0.04028,4.019733236,
0.0403,-0.09843230404,0.0403,4.750593824,
0.04032,-1.925583775,0.04032,4.38516353,
0.04034,-3.387304952,0.04034,4.019733236,
0.04036,-1.925583775,0.04036,4.38516353,
0.04038,-2.291014069,0.04038,4.38516353,
0.0404,-6.310747305,0.0404,4.019733236,
0.04042,-4.11816554,0.04042,4.019733236,
0.04044,-3.752735246,0.04044,4.019733236,
0.04046,-3.752735246,0.04046,5.116024118,
0.04048,-3.752735246,0.04048,4.750593824,
0.0405,-3.752735246,0.0405,4.38516353,
0.04052,-4.849026128,0.04052,4.019733236,
0.04054,-3.387304952,0.04054,4.750593824,
0.04056,-3.752735246,0.04056,4.019733236,
0.04058,-3.387304952,0.04058,5.481454413,
0.0406,-3.021874657,0.0406,5.116024118,
0.04062,-1.194723187,0.04062,4.38516353,
0.04064,-3.021874657,0.04064,4.38516353,
0.04066,-1.560153481,0.04066,3.654302942,
0.04068,-0.8292928924,0.04068,4.38516353,
0.0407,-0.09843230404,0.0407,4.750593824,
0.04072,-1.194723187,0.04072,4.38516353,
0.04074,1.728719167,0.04074,4.38516353,
0.04076,5.383022109,0.04076,5.846884707,
0.04078,1.363288873,0.04078,4.750593824,
0.0408,0.9978585785,0.0408,4.38516353,
0.04082,2.825010049,0.04082,4.38516353,
0.04084,2.094149461,0.04084,4.750593824,
0.04086,3.921300932,0.04086,4.019733236,
0.04088,2.094149461,0.04088,4.750593824,
0.0409,2.825010049,0.0409,4.750593824,
0.04092,3.190440344,0.04092,4.38516353,
0.04094,3.190440344,0.04094,4.38516353,
0.04096,2.825010049,0.04096,3.654302942,
0.04098,5.748452403,0.04098,4.38516353,
0.041,2.825010049,0.041,4.019733236,
0.04102,2.825010049,0.04102,4.019733236,
0.04104,3.190440344,0.04104,4.38516353,
0.04106,1.363288873,0.04106,5.116024118,
0.04108,2.825010049,0.04108,4.38516353,
0.0411,1.363288873,0.0411,4.38516353,
0.04112,2.459579755,0.04112,4.750593824,
0.04114,2.094149461,0.04114,4.38516353,
0.04116,0.2669979901,0.04116,4.750593824,
0.04118,-0.4638625982,0.04118,4.38516353,
0.0412,-1.560153481,0.0412,4.019733236,
0.04122,-0.8292928924,0.04122,4.38516353,
0.04124,-1.560153481,0.04124,5.116024118,
0.04126,-1.925583775,0.04126,3.654302942,
0.04128,-4.11816554,0.04128,4.750593824,
0.0413,-1.925583775,0.0413,4.38516353,
0.04132,-2.656444363,0.04132,4.38516353,
0.04134,-3.021874657,0.04134,4.750593824,
0.04136,-3.387304952,0.04136,4.38516353,
0.04138,-4.483595834,0.04138,4.38516353,
0.0414,-3.021874657,0.0414,4.38516353,
0.04142,-3.752735246,0.04142,4.750593824,
0.04144,-3.752735246,0.04144,4.750593824,
0.04146,-3.021874657,0.04146,3.654302942,
0.04148,-2.656444363,0.04148,4.38516353,
0.0415,-4.849026128,0.0415,4.38516353,
0.04152,-2.656444363,0.04152,4.019733236,
0.04154,-1.925583775,0.04154,4.38516353,
0.04156,-2.656444363,0.04156,4.38516353,
0.04158,-1.925583775,0.04158,4.38516353,
0.0416,0.2669979901,0.0416,4.750593824,
0.04162,0.2669979901,0.04162,4.38516353,
0.04164,0.2669979901,0.04164,4.38516353,
0.04166,0.2669979901,0.04166,4.38516353,
0.04168,-0.4638625982,0.04168,4.750593824,
0.0417,1.363288873,0.0417,4.38516353,
0.04172,1.728719167,0.04172,4.750593824,
0.04174,2.094149461,0.04174,4.38516353,
0.04176,2.459579755,0.04176,3.654302942,
0.04178,2.825010049,0.04178,4.019733236,
0.0418,2.825010049,0.0418,3.654302942,
0.04182,2.459579755,0.04182,4.38516353,
0.04184,3.555870638,0.04184,4.750593824,
0.04186,3.555870638,0.04186,4.38516353,
0.04188,3.190440344,0.04188,4.38516353,
0.0419,3.190440344,0.0419,4.38516353,
0.04192,3.921300932,0.04192,4.38516353,
0.04194,2.825010049,0.04194,4.38516353,
0.04196,2.094149461,0.04196,4.38516353,
0.04198,2.094149461,0.04198,4.38516353,
0.042,0.9978585785,0.042,4.38516353,
0.04202,2.459579755,0.04202,4.750593824,
0.04204,1.728719167,0.04204,4.38516353,
0.04206,1.363288873,0.04206,4.019733236,
0.04208,0.9978585785,0.04208,4.38516353,
0.0421,0.6324282843,0.0421,4.38516353,
0.04212,-1.925583775,0.04212,4.38516353,
0.04214,-0.4638625982,0.04214,4.38516353,
0.04216,-5.214456422,0.04216,4.019733236,
0.04218,-1.925583775,0.04218,4.38516353,
0.0422,-1.560153481,0.0422,4.019733236,
0.04222,-2.656444363,0.04222,4.750593824,
0.04224,-2.656444363,0.04224,4.38516353,
0.04226,-2.291014069,0.04226,4.38516353,
0.04228,-3.387304952,0.04228,4.750593824,
0.0423,-3.387304952,0.0423,4.38516353,
0.04232,-3.021874657,0.04232,4.019733236,
0.04234,-3.021874657,0.04234,4.750593824,
0.04236,-3.387304952,0.04236,4.38516353,
0.04238,-3.021874657,0.04238,4.019733236,
0.0424,-3.021874657,0.0424,5.116024118,
0.04242,-3.387304952,0.04242,4.019733236,
0.04244,-3.021874657,0.04244,4.019733236,
0.04246,-1.925583775,0.04246,4.38516353,
0.04248,-1.560153481,0.04248,3.654302942,
0.0425,-1.925583775,0.0425,4.38516353,
0.04252,-0.8292928924,0.04252,4.019733236,
0.04254,-0.09843230404,0.04254,4.019733236,
0.04256,0.2669979901,0.04256,4.38516353,
0.04258,0.6324282843,0.04258,4.019733236,
0.0426,0.9978585785,0.0426,4.019733236,
0.04262,0.6324282843,0.04262,4.019733236,
0.04264,2.094149461,0.04264,4.019733236,
0.04266,1.728719167,0.04266,3.654302942,
0.04268,2.825010049,0.04268,4.38516353,
0.0427,2.825010049,0.0427,4.019733236,
0.04272,2.459579755,0.04272,3.654302942,
0.04274,2.094149461,0.04274,4.38516353,
0.04276,3.190440344,0.04276,4.750593824,
0.04278,3.555870638,0.04278,4.38516353,
0.0428,4.286731226,0.0428,4.019733236,
0.04282,3.190440344,0.04282,4.38516353,
0.04284,3.190440344,0.04284,4.019733236,
0.04286,3.190440344,0.04286,4.38516353,
0.04288,3.190440344,0.04288,4.019733236,
0.0429,3.190440344,0.0429,3.654302942,
0.04292,2.825010049,0.04292,3.288872648,
0.04294,3.190440344,0.04294,4.38516353,
0.04296,2.094149461,0.04296,3.654302942,
0.04298,1.728719167,0.04298,4.38516353,
0.043,0.6324282843,0.043,4.38516353,
0.04302,1.363288873,0.04302,3.654302942,
0.04304,0.2669979901,0.04304,4.38516353,
0.04306,-0.09843230404,0.04306,4.38516353,
0.04308,-1.194723187,0.04308,4.019733236,
0.0431,-0.8292928924,0.0431,4.38516353,
0.04312,-1.560153481,0.04312,4.019733236,
0.04314,-2.291014069,0.04314,4.019733236,
0.04316,-1.925583775,0.04316,4.019733236,
0.04318,-4.11816554,0.04318,4.750593824,
0.0432,-3.387304952,0.0432,4.019733236,
0.04322,-3.021874657,0.04322,4.019733236,
0.04324,-3.021874657,0.04324,4.38516353,
0.04326,-4.849026128,0.04326,3.654302942,
0.04328,-3.752735246,0.04328,4.38516353,
0.0433,-3.021874657,0.0433,4.750593824,
0.04332,-3.752735246,0.04332,3.654302942,
0.04334,-3.021874657,0.04334,4.38516353,
0.04336,-3.387304952,0.04336,4.019733236,
0.04338,-3.387304952,0.04338,2.923442353,
0.0434,-2.291014069,0.0434,4.019733236,
0.04342,-1.925583775,0.04342,4.019733236,
0.04344,-2.291014069,0.04344,4.019733236,
0.04346,-0.09843230404,0.04346,4.019733236,
0.04348,-0.4638625982,0.04348,4.750593824,
0.0435,0.2669979901,0.0435,3.654302942,
0.04352,0.2669979901,0.04352,4.38516353,
0.04354,0.9978585785,0.04354,4.38516353,
0.04356,0.9978585785,0.04356,3.654302942,
0.04358,2.459579755,0.04358,4.750593824,
0.0436,2.459579755,0.0436,4.38516353,
0.04362,2.459579755,0.04362,4.019733236,
0.04364,4.286731226,0.04364,4.38516353,
0.04366,3.190440344,0.04366,4.019733236,
0.04368,3.190440344,0.04368,2.923442353,
0.0437,4.286731226,0.0437,4.38516353,
0.04372,3.555870638,0.04372,4.750593824,
0.04374,3.555870638,0.04374,3.654302942,
0.04376,2.825010049,0.04376,4.019733236,
0.04378,4.286731226,0.04378,3.288872648,
0.0438,2.825010049,0.0438,4.019733236,
0.04382,3.921300932,0.04382,4.38516353,
0.04384,2.825010049,0.04384,4.38516353,
0.04386,1.728719167,0.04386,3.288872648,
0.04388,2.459579755,0.04388,4.38516353,
0.0439,2.094149461,0.0439,4.38516353,
0.04392,2.459579755,0.04392,4.019733236,
0.04394,1.728719167,0.04394,4.750593824,
0.04396,1.363288873,0.04396,4.38516353,
0.04398,-0.8292928924,0.04398,4.38516353,
0.044,-0.8292928924,0.044,4.38516353,
0.04402,0.2669979901,0.04402,4.019733236,
0.04404,-1.560153481,0.04404,2.558012059,
0.04406,-2.291014069,0.04406,4.019733236,
0.04408,-2.656444363,0.04408,2.923442353,
0.0441,-3.021874657,0.0441,4.019733236,
0.04412,-3.021874657,0.04412,4.38516353,
0.04414,-1.560153481,0.04414,4.38516353,
0.04416,-4.11816554,0.04416,3.654302942,
0.04418,-2.656444363,0.04418,3.654302942,
0.0442,-2.291014069,0.0442,4.38516353,
0.04422,-4.483595834,0.04422,3.654302942,
0.04424,-3.387304952,0.04424,4.750593824,
0.04426,-4.11816554,0.04426,4.38516353,
0.04428,-3.752735246,0.04428,5.116024118,
0.0443,-1.925583775,0.0443,4.38516353,
0.04432,-2.656444363,0.04432,4.019733236,
0.04434,-3.021874657,0.04434,4.019733236,
0.04436,-3.752735246,0.04436,4.750593824,
0.04438,-4.483595834,0.04438,4.750593824,
0.0444,-0.8292928924,0.0444,4.019733236,
0.04442,0.9978585785,0.04442,4.750593824,
0.04444,-0.4638625982,0.04444,4.38516353,
0.04446,0.9978585785,0.04446,4.019733236,
0.04448,-0.4638625982,0.04448,4.019733236,
0.0445,0.2669979901,0.0445,4.019733236,
0.04452,0.6324282843,0.04452,4.38516353,
0.04454,2.459579755,0.04454,5.116024118,
0.04456,2.094149461,0.04456,4.38516353,
0.04458,2.094149461,0.04458,3.654302942,
0.0446,1.728719167,0.0446,5.116024118,
0.04462,2.459579755,0.04462,4.38516353,
0.04464,5.383022109,0.04464,4.019733236,
0.04466,3.555870638,0.04466,4.750593824,
0.04468,2.825010049,0.04468,4.38516353,
0.0447,1.728719167,0.0447,4.019733236,
0.04472,3.921300932,0.04472,4.750593824,
0.04474,3.555870638,0.04474,4.38516353,
0.04476,2.459579755,0.04476,4.38516353,
0.04478,3.921300932,0.04478,5.481454413,
0.0448,1.728719167,0.0448,4.38516353,
0.04482,2.094149461,0.04482,4.38516353,
0.04484,2.094149461,0.04484,4.750593824,
0.04486,2.094149461,0.04486,4.38516353,
0.04488,-0.4638625982,0.04488,3.654302942,
0.0449,-1.194723187,0.0449,4.750593824,
0.04492,0.2669979901,0.04492,4.019733236,
0.04494,-1.194723187,0.04494,4.019733236,
0.04496,-1.194723187,0.04496,4.750593824,
0.04498,-1.194723187,0.04498,4.019733236,
0.045,-3.752735246,0.045,4.38516353,
0.04502,-4.11816554,0.04502,4.750593824,
0.04504,-3.021874657,0.04504,4.38516353,
0.04506,-3.387304952,0.04506,4.019733236,
0.04508,-3.752735246,0.04508,5.116024118,
0.0451,-3.387304952,0.0451,4.38516353,
0.04512,-3.752735246,0.04512,4.019733236,
0.04514,-3.387304952,0.04514,4.750593824,
0.04516,-2.291014069,0.04516,4.019733236,
0.04518,-4.11816554,0.04518,4.38516353,
0.0452,-2.656444363,0.0452,4.750593824,
0.04522,-4.11816554,0.04522,4.019733236,
0.04524,-3.021874657,0.04524,4.38516353,
0.04526,-3.387304952,0.04526,5.116024118,
0.04528,-2.291014069,0.04528,3.288872648,
0.0453,-1.925583775,0.0453,4.750593824,
0.04532,-1.560153481,0.04532,4.750593824,
0.04534,-0.4638625982,0.04534,4.38516353,
0.04536,-0.4638625982,0.04536,4.38516353,
0.04538,1.363288873,0.04538,4.750593824,
0.0454,-1.194723187,0.0454,4.38516353,
0.04542,1.363288873,0.04542,4.019733236,
0.04544,1.728719167,0.04544,4.38516353,
0.04546,2.094149461,0.04546,4.019733236,
0.04548,2.094149461,0.04548,4.38516353,
0.0455,4.286731226,0.0455,4.750593824,
0.04552,2.825010049,0.04552,4.38516353,
0.04554,2.459579755,0.04554,4.019733236,
0.04556,2.825010049,0.04556,4.750593824,
0.04558,3.190440344,0.04558,4.38516353,
0.0456,5.017591814,0.0456,4.019733236,
0.04562,2.459579755,0.04562,4.38516353,
0.04564,3.555870638,0.04564,4.019733236,
0.04566,3.921300932,0.04566,4.019733236,
0.04568,2.459579755,0.04568,4.750593824,
0.0457,2.459579755,0.0457,4.38516353,
0.04572,2.094149461,0.04572,4.019733236,
0.04574,2.459579755,0.04574,4.750593824,
0.04576,2.459579755,0.04576,4.38516353,
0.04578,1.728719167,0.04578,4.019733236,
0.0458,0.6324282843,0.0458,4.38516353,
0.04582,0.2669979901,0.04582,4.019733236,
0.04584,-1.560153481,0.04584,4.38516353,
0.04586,0.2669979901,0.04586,4.38516353,
0.04588,-0.8292928924,0.04588,3.654302942,
0.0459,-0.8292928924,0.0459,4.019733236,
0.04592,-1.925583775,0.04592,5.116024118,
0.04594,-1.925583775,0.04594,4.019733236,
0.04596,-3.021874657,0.04596,4.019733236,
0.04598,-3.752735246,0.04598,4.750593824,
0.046,-1.925583775,0.046,4.750593824,
0.04602,-4.11816554,0.04602,4.019733236,
0.04604,-2.656444363,0.04604,4.750593824,
0.04606,-3.752735246,0.04606,4.019733236,
0.04608,-3.752735246,0.04608,4.38516353,
0.0461,-5.214456422,0.0461,4.750593824,
0.04612,-3.387304952,0.04612,4.38516353,
0.04614,-3.752735246,0.04614,4.019733236,
0.04616,-2.656444363,0.04616,5.116024118,
0.04618,-3.752735246,0.04618,4.019733236,
0.0462,-3.387304952,0.0462,4.38516353,
0.04622,-1.560153481,0.04622,4.38516353,
0.04624,-1.925583775,0.04624,4.750593824,
0.04626,-0.8292928924,0.04626,5.116024118,
0.04628,-1.194723187,0.04628,4.019733236,
0.0463,-0.4638625982,0.0463,4.019733236,
0.04632,1.363288873,0.04632,4.750593824,
0.04634,0.2669979901,0.04634,4.38516353,
0.04636,0.9978585785,0.04636,4.750593824,
0.04638,1.728719167,0.04638,4.750593824,
0.0464,3.555870638,0.0464,4.019733236,
0.04642,3.190440344,0.04642,4.019733236,
0.04644,3.190440344,0.04644,4.38516353,
0.04646,1.728719167,0.04646,4.019733236,
0.04648,3.555870638,0.04648,4.019733236,
0.0465,6.844743285,0.0465,4.750593824,
0.04652,3.190440344,0.04652,4.750593824,
0.04654,5.748452403,0.04654,4.019733236,
0.04656,3.555870638,0.04656,5.116024118,
0.04658,2.459579755,0.04658,4.019733236,
0.0466,3.921300932,0.0466,4.019733236,
0.04662,1.363288873,0.04662,4.38516353,
0.04664,2.459579755,0.04664,4.750593824,
0.04666,1.728719167,0.04666,4.38516353,
0.04668,2.459579755,0.04668,4.750593824,
0.0467,0.2669979901,0.0467,4.019733236,
0.04672,2.094149461,0.04672,4.38516353,
0.04674,0.2669979901,0.04674,4.750593824,
0.04676,-0.09843230404,0.04676,4.750593824,
0.04678,-0.09843230404,0.04678,4.38516353,
0.0468,0.6324282843,0.0468,4.750593824,
0.04682,-1.560153481,0.04682,4.38516353,
0.04684,-0.8292928924,0.04684,4.019733236,
0.04686,-2.291014069,0.04686,4.750593824,
0.04688,-2.291014069,0.04688,4.019733236,
0.0469,-2.291014069,0.0469,4.38516353,
0.04692,-2.291014069,0.04692,4.750593824,
0.04694,-3.387304952,0.04694,4.38516353,
0.04696,-3.387304952,0.04696,4.38516353,
0.04698,-4.11816554,0.04698,4.38516353,
0.047,-1.925583775,0.047,4.38516353,
0.04702,-3.752735246,0.04702,4.38516353,
0.04704,-4.849026128,0.04704,4.38516353,
0.04706,-1.925583775,0.04706,4.750593824,
0.04708,-2.656444363,0.04708,4.38516353,
0.0471,-3.387304952,0.0471,4.750593824,
0.04712,-2.656444363,0.04712,4.38516353,
0.04714,-1.560153481,0.04714,3.654302942,
0.04716,-3.752735246,0.04716,4.750593824,
0.04718,-2.656444363,0.04718,4.38516353,
0.0472,-1.560153481,0.0472,4.38516353,
0.04722,-0.09843230404,0.04722,4.38516353,
0.04724,-0.4638625982,0.04724,4.750593824,
0.04726,-0.4638625982,0.04726,4.38516353,
0.04728,2.825010049,0.04728,4.38516353,
0.0473,1.363288873,0.0473,4.38516353,
0.04732,3.190440344,0.04732,4.38516353,
0.04734,3.190440344,0.04734,4.38516353,
0.04736,2.459579755,0.04736,4.750593824,
0.04738,2.825010049,0.04738,4.38516353,
0.0474,4.286731226,0.0474,5.481454413,
0.04742,6.844743285,0.04742,4.38516353,
0.04744,3.555870638,0.04744,4.38516353,
0.04746,4.286731226,0.04746,4.019733236,
0.04748,0.2669979901,0.04748,4.750593824,
0.0475,3.190440344,0.0475,3.288872648,
0.04752,3.555870638,0.04752,4.019733236,
0.04754,3.555870638,0.04754,4.38516353,
0.04756,2.094149461,0.04756,4.38516353,
0.04758,2.825010049,0.04758,4.38516353,
0.0476,0.9978585785,0.0476,3.288872648,
0.04762,0.6324282843,0.04762,4.38516353,
0.04764,3.555870638,0.04764,4.38516353,
0.04766,0.6324282843,0.04766,5.116024118,
0.04768,0.6324282843,0.04768,4.38516353,
0.0477,-0.09843230404,0.0477,5.481454413,
0.04772,-0.09843230404,0.04772,4.750593824,
0.04774,-2.291014069,0.04774,4.750593824,
0.04776,-1.194723187,0.04776,4.38516353,
0.04778,-1.194723187,0.04778,4.750593824,
0.0478,-2.656444363,0.0478,6.577745295,
0.04782,-2.656444363,0.04782,4.38516353,
0.04784,-4.11816554,0.04784,4.750593824,
0.04786,-4.483595834,0.04786,4.750593824,
0.04788,-3.021874657,0.04788,4.38516353,
0.0479,-4.483595834,0.0479,6.577745295,
0.04792,-3.387304952,0.04792,4.38516353,
0.04794,-3.021874657,0.04794,4.38516353,
0.04796,-3.387304952,0.04796,4.38516353,
0.04798,-1.560153481,0.04798,4.750593824,
0.048,-2.291014069,0.048,5.116024118,
0.04802,-2.656444363,0.04802,4.38516353,
0.04804,-3.752735246,0.04804,5.116024118,
0.04806,-2.291014069,0.04806,4.38516353,
0.04808,-1.925583775,0.04808,4.38516353,
0.0481,-1.925583775,0.0481,2.923442353,
0.04812,-0.4638625982,0.04812,4.019733236,
0.04814,-0.4638625982,0.04814,4.750593824,
0.04816,-1.560153481,0.04816,4.750593824,
0.04818,0.6324282843,0.04818,4.019733236,
0.0482,1.363288873,0.0482,5.116024118,
0.04822,1.363288873,0.04822,4.019733236,
0.04824,0.9978585785,0.04824,3.654302942,
0.04826,0.6324282843,0.04826,4.019733236,
0.04828,2.459579755,0.04828,3.654302942,
0.0483,0.6324282843,0.0483,5.481454413,
0.04832,2.825010049,0.04832,4.38516353,
0.04834,2.825010049,0.04834,3.654302942,
0.04836,4.286731226,0.04836,4.019733236,
0.04838,3.921300932,0.04838,4.019733236,
0.0484,3.190440344,0.0484,2.923442353,
0.04842,3.190440344,0.04842,4.38516353,
0.04844,4.65216152,0.04844,4.38516353,
0.04846,3.190440344,0.04846,4.019733236,
0.04848,2.459579755,0.04848,4.750593824,
0.0485,2.094149461,0.0485,3.288872648,
0.04852,3.190440344,0.04852,4.019733236,
0.04854,2.459579755,0.04854,4.019733236,
0.04856,2.459579755,0.04856,4.750593824,
0.04858,0.9978585785,0.04858,4.019733236,
0.0486,1.363288873,0.0486,5.481454413,
0.04862,-0.09843230404,0.04862,4.38516353,
0.04864,-0.09843230404,0.04864,4.019733236,
0.04866,1.363288873,0.04866,4.38516353,
0.04868,-0.09843230404,0.04868,4.750593824,
0.0487,-1.194723187,0.0487,4.750593824,
0.04872,-1.925583775,0.04872,4.38516353,
0.04874,-1.925583775,0.04874,4.38516353,
0.04876,-2.656444363,0.04876,4.38516353,
0.04878,-3.752735246,0.04878,4.38516353,
0.0488,-3.021874657,0.0488,3.288872648,
0.04882,-4.849026128,0.04882,4.019733236,
0.04884,-2.656444363,0.04884,4.38516353,
0.04886,-4.11816554,0.04886,4.38516353,
0.04888,-3.752735246,0.04888,3.288872648,
0.0489,-4.11816554,0.0489,4.38516353,
0.04892,-4.849026128,0.04892,4.019733236,
0.04894,-3.752735246,0.04894,4.019733236,
0.04896,-2.291014069,0.04896,4.019733236,
0.04898,-2.291014069,0.04898,3.654302942,
0.049,-3.021874657,0.049,4.750593824,
0.04902,-1.560153481,0.04902,4.38516353,
0.04904,-0.8292928924,0.04904,4.019733236,
0.04906,-0.8292928924,0.04906,4.38516353,
0.04908,-0.8292928924,0.04908,4.38516353,
0.0491,0.6324282843,0.0491,4.38516353,
0.04912,0.9978585785,0.04912,4.019733236,
0.04914,0.9978585785,0.04914,4.750593824,
0.04916,1.728719167,0.04916,4.019733236,
0.04918,1.363288873,0.04918,4.019733236,
0.0492,2.459579755,0.0492,3.654302942,
0.04922,3.555870638,0.04922,4.019733236,
0.04924,3.190440344,0.04924,4.019733236,
0.04926,4.286731226,0.04926,4.019733236,
0.04928,3.555870638,0.04928,4.38516353,
0.0493,1.363288873,0.0493,4.38516353,
0.04932,4.65216152,0.04932,4.38516353,
0.04934,4.286731226,0.04934,4.38516353,
0.04936,3.555870638,0.04936,4.019733236,
0.04938,3.555870638,0.04938,4.38516353,
0.0494,2.825010049,0.0494,4.750593824,
0.04942,3.555870638,0.04942,4.019733236,
0.04944,3.555870638,0.04944,4.38516353,
0.04946,3.921300932,0.04946,4.38516353,
0.04948,1.363288873,0.04948,4.019733236,
0.0495,1.728719167,0.0495,4.38516353,
0.04952,0.2669979901,0.04952,4.019733236,
0.04954,0.6324282843,0.04954,4.019733236,
0.04956,0.9978585785,0.04956,4.019733236,
0.04958,-2.291014069,0.04958,4.019733236,
0.0496,-1.560153481,0.0496,3.288872648,
0.04962,-1.194723187,0.04962,4.019733236,
0.04964,-1.560153481,0.04964,4.38516353,
0.04966,-1.560153481,0.04966,4.019733236,
0.04968,-2.656444363,0.04968,4.38516353,
0.0497,-4.483595834,0.0497,4.38516353,
0.04972,-2.656444363,0.04972,3.654302942,
0.04974,-3.387304952,0.04974,4.38516353,
0.04976,-2.656444363,0.04976,4.38516353,
0.04978,-3.752735246,0.04978,3.654302942,
0.0498,-3.387304952,0.0498,4.38516353,
0.04982,-5.214456422,0.04982,4.38516353,
0.04984,-3.752735246,0.04984,4.019733236,
0.04986,-3.021874657,0.04986,4.019733236,
0.04988,-1.194723187,0.04988,4.019733236,
0.0499,-3.021874657,0.0499,4.019733236,
0.04992,-2.291014069,0.04992,4.019733236,
0.04994,0.9978585785,0.04994,4.38516353,
0.04996,-1.194723187,0.04996,3.654302942,
0.04998,-1.194723187,0.04998,4.38516353,
0.05,-0.09843230404,0.05,3.654302942,
0.05002,-1.194723187,0.05002,3.654302942,
0.05004,-0.4638625982,0.05004,4.38516353,
0.05006,-2.291014069,0.05006,4.019733236,
0.05008,0.6324282843,0.05008,3.654302942,
0.0501,0.9978585785,0.0501,5.116024118,
0.05012,1.728719167,0.05012,4.38516353,
0.05014,1.728719167,0.05014,4.38516353,
0.05016,3.555870638,0.05016,4.750593824,
0.05018,1.363288873,0.05018,4.019733236,
0.0502,2.825010049,0.0502,3.654302942,
0.05022,3.190440344,0.05022,4.750593824,
0.05024,3.190440344,0.05024,4.019733236,
0.05026,3.555870638,0.05026,4.019733236,
0.05028,4.286731226,0.05028,4.750593824,
0.0503,3.555870638,0.0503,4.019733236,
0.05032,3.190440344,0.05032,2.923442353,
0.05034,3.190440344,0.05034,4.750593824,
0.05036,1.728719167,0.05036,4.019733236,
0.05038,3.190440344,0.05038,4.019733236,
0.0504,2.094149461,0.0504,4.750593824,
0.05042,1.363288873,0.05042,4.38516353,
0.05044,2.825010049,0.05044,4.019733236,
0.05046,1.363288873,0.05046,4.750593824,
0.05048,-0.8292928924,0.05048,4.750593824,
0.0505,0.2669979901,0.0505,4.019733236,
0.05052,-0.4638625982,0.05052,4.750593824,
0.05054,-1.560153481,0.05054,4.019733236,
0.05056,-1.925583775,0.05056,4.019733236,
0.05058,-1.925583775,0.05058,5.116024118,
0.0506,-3.387304952,0.0506,3.654302942,
0.05062,-2.656444363,0.05062,4.019733236,
0.05064,-2.291014069,0.05064,4.750593824,
0.05066,-2.656444363,0.05066,4.38516353,
0.05068,-3.387304952,0.05068,4.38516353,
0.0507,-3.387304952,0.0507,5.116024118,
0.05072,-5.214456422,0.05072,4.019733236,
0.05074,-4.11816554,0.05074,3.654302942,
0.05076,-5.214456422,0.05076,4.750593824,
0.05078,-4.11816554,0.05078,4.38516353,
0.0508,-2.656444363,0.0508,4.38516353,
0.05082,-3.021874657,0.05082,4.750593824,
0.05084,-3.387304952,0.05084,4.38516353,
0.05086,-2.291014069,0.05086,4.019733236,
0.05088,-1.560153481,0.05088,4.750593824,
0.0509,-2.291014069,0.0509,4.38516353,
0.05092,-1.194723187,0.05092,4.019733236,
0.05094,-1.560153481,0.05094,4.750593824,
0.05096,-0.8292928924,0.05096,4.38516353,
0.05098,0.6324282843,0.05098,4.38516353,
0.051,0.9978585785,0.051,4.38516353,
0.05102,0.9978585785,0.05102,4.38516353,
0.05104,0.2669979901,0.05104,4.019733236,
0.05106,1.728719167,0.05106,4.750593824,
0.05108,2.459579755,0.05108,4.019733236,
0.0511,3.555870638,0.0511,3.654302942,
0.05112,5.017591814,0.05112,5.116024118,
0.05114,2.459579755,0.05114,4.750593824,
0.05116,2.825010049,0.05116,4.019733236,
0.05118,3.555870638,0.05118,4.750593824,
0.0512,2.094149461,0.0512,5.116024118,
0.05122,3.555870638,0.05122,4.38516353,
0.05124,3.921300932,0.05124,4.750593824,
0.05126,3.190440344,0.05126,4.38516353,
0.05128,3.190440344,0.05128,4.019733236,
0.0513,3.555870638,0.0513,4.750593824,
0.05132,1.728719167,0.05132,3.288872648,
0.05134,2.094149461,0.05134,3.654302942,
0.05136,1.728719167,0.05136,4.750593824,
0.05138,0.9978585785,0.05138,4.38516353,
0.0514,0.6324282843,0.0514,4.019733236,
0.05142,0.2669979901,0.05142,4.38516353,
0.05144,-0.09843230404,0.05144,4.38516353,
0.05146,-0.8292928924,0.05146,4.38516353,
0.05148,-0.4638625982,0.05148,4.750593824,
0.0515,-1.560153481,0.0515,4.019733236,
0.05152,-4.11816554,0.05152,4.750593824,
0.05154,-1.925583775,0.05154,4.38516353,
0.05156,-2.656444363,0.05156,4.38516353,
0.05158,-3.387304952,0.05158,4.38516353,
0.0516,-3.387304952,0.0516,5.116024118,
0.05162,-3.387304952,0.05162,4.019733236,
0.05164,-3.387304952,0.05164,4.38516353,
0.05166,-3.387304952,0.05166,4.750593824,
0.05168,-3.387304952,0.05168,4.38516353,
0.0517,-3.387304952,0.0517,4.38516353,
0.05172,-3.387304952,0.05172,5.846884707,
0.05174,-3.387304952,0.05174,4.38516353,
0.05176,-4.11816554,0.05176,4.38516353,
0.05178,-3.021874657,0.05178,4.750593824,
0.0518,-3.021874657,0.0518,4.38516353,
0.05182,-1.925583775,0.05182,2.923442353,
0.05184,-1.194723187,0.05184,5.116024118,
0.05186,-1.925583775,0.05186,4.38516353,
0.05188,-0.8292928924,0.05188,4.38516353,
0.0519,-0.09843230404,0.0519,4.750593824,
0.05192,0.2669979901,0.05192,4.38516353,
0.05194,-1.194723187,0.05194,4.019733236,
0.05196,2.094149461,0.05196,5.481454413,
0.05198,5.017591814,0.05198,4.019733236,
0.052,4.286731226,0.052,4.38516353,
0.05202,3.190440344,0.05202,5.481454413,
0.05204,3.190440344,0.05204,4.38516353,
0.05206,3.555870638,0.05206,4.019733236,
0.05208,5.017591814,0.05208,4.750593824,
0.0521,3.555870638,0.0521,4.019733236,
0.05212,3.921300932,0.05212,4.750593824,
0.05214,2.459579755,0.05214,4.38516353,
0.05216,3.921300932,0.05216,4.750593824,
0.05218,3.190440344,0.05218,4.38516353,
0.0522,2.459579755,0.0522,4.019733236,
0.05222,2.825010049,0.05222,3.288872648,
0.05224,2.459579755,0.05224,4.019733236,
0.05226,2.459579755,0.05226,4.38516353,
0.05228,2.094149461,0.05228,4.019733236,
0.0523,0.6324282843,0.0523,4.38516353,
0.05232,3.190440344,0.05232,3.654302942,
0.05234,-0.4638625982,0.05234,4.38516353,
0.05236,0.2669979901,0.05236,4.750593824,
0.05238,-0.09843230404,0.05238,4.38516353,
0.0524,-0.09843230404,0.0524,4.750593824,
0.05242,-1.925583775,0.05242,5.116024118,
0.05244,-1.560153481,0.05244,4.750593824,
0.05246,-1.925583775,0.05246,4.750593824,
0.05248,-2.656444363,0.05248,4.019733236,
0.0525,-2.656444363,0.0525,4.38516353,
0.05252,-2.656444363,0.05252,4.750593824,
0.05254,-4.849026128,0.05254,4.019733236,
0.05256,-3.752735246,0.05256,4.38516353,
0.05258,-3.752735246,0.05258,4.750593824,
0.0526,-4.11816554,0.0526,4.38516353,
0.05262,-3.021874657,0.05262,4.38516353,
0.05264,-3.752735246,0.05264,4.750593824,
0.05266,-3.387304952,0.05266,4.38516353,
0.05268,-3.021874657,0.05268,4.38516353,
0.0527,-3.021874657,0.0527,4.750593824,
0.05272,-3.021874657,0.05272,5.116024118,
0.05274,-0.4638625982,0.05274,4.019733236,
0.05276,-5.579886717,0.05276,4.750593824,
0.05278,-2.656444363,0.05278,4.019733236,
0.0528,-1.194723187,0.0528,4.38516353,
0.05282,-0.4638625982,0.05282,4.38516353,
0.05284,-0.8292928924,0.05284,4.019733236,
0.05286,0.9978585785,0.05286,4.750593824,
0.05288,1.363288873,0.05288,4.019733236,
0.0529,0.6324282843,0.0529,4.750593824,
0.05292,2.459579755,0.05292,4.38516353,
0.05294,2.094149461,0.05294,4.38516353,
0.05296,3.190440344,0.05296,4.38516353,
0.05298,3.921300932,0.05298,4.019733236,
0.053,3.555870638,0.053,4.019733236,
0.05302,3.190440344,0.05302,4.38516353,
0.05304,3.555870638,0.05304,4.019733236,
0.05306,3.555870638,0.05306,5.116024118,
0.05308,3.190440344,0.05308,4.38516353,
0.0531,2.825010049,0.0531,4.019733236,
0.05312,3.555870638,0.05312,5.116024118,
0.05314,3.555870638,0.05314,4.38516353,
0.05316,2.094149461,0.05316,4.750593824,
0.05318,3.190440344,0.05318,4.750593824,
0.0532,0.9978585785,0.0532,4.38516353,
0.05322,2.825010049,0.05322,4.019733236,
0.05324,-0.09843230404,0.05324,4.750593824,
0.05326,0.2669979901,0.05326,4.38516353,
0.05328,0.6324282843,0.05328,4.019733236,
0.0533,0.6324282843,0.0533,4.750593824,
0.05332,-1.194723187,0.05332,4.38516353,
0.05334,-2.656444363,0.05334,4.019733236,
0.05336,-0.8292928924,0.05336,4.750593824,
0.05338,-2.656444363,0.05338,4.38516353,
0.0534,-2.656444363,0.0534,4.019733236,
0.05342,-3.021874657,0.05342,4.750593824,
0.05344,-3.387304952,0.05344,4.750593824,
0.05346,-3.021874657,0.05346,4.38516353,
0.05348,-3.021874657,0.05348,4.750593824,
0.0535,-4.11816554,0.0535,4.38516353,
0.05352,-0.8292928924,0.05352,4.019733236,
0.05354,-1.925583775,0.05354,4.38516353,
0.05356,-4.849026128,0.05356,4.750593824,
0.05358,-3.021874657,0.05358,4.019733236,
0.0536,-3.021874657,0.0536,4.38516353,
0.05362,-4.11816554,0.05362,4.38516353,
0.05364,-2.656444363,0.05364,4.019733236,
0.05366,-0.8292928924,0.05366,4.019733236,
0.05368,-1.925583775,0.05368,4.38516353,
0.0537,-1.560153481,0.0537,4.019733236,
0.05372,-1.194723187,0.05372,4.750593824,
0.05374,-1.560153481,0.05374,4.38516353,
0.05376,-0.4638625982,0.05376,4.38516353,
0.05378,1.363288873,0.05378,4.38516353,
0.0538,0.9978585785,0.0538,4.38516353,
0.05382,0.2669979901,0.05382,4.38516353,
0.05384,1.363288873,0.05384,4.38516353,
0.05386,2.459579755,0.05386,4.019733236,
0.05388,2.094149461,0.05388,4.019733236,
0.0539,2.825010049,0.0539,4.38516353,
0.05392,3.190440344,0.05392,4.019733236,
0.05394,4.65216152,0.05394,4.019733236,
0.05396,4.65216152,0.05396,4.38516353,
0.05398,3.190440344,0.05398,3.654302942,
0.054,3.555870638,0.054,4.38516353,
0.05402,3.921300932,0.05402,3.654302942,
0.05404,3.190440344,0.05404,3.654302942,
0.05406,3.555870638,0.05406,4.38516353,
0.05408,3.555870638,0.05408,4.38516353,
0.0541,1.728719167,0.0541,4.019733236,
0.05412,2.825010049,0.05412,4.38516353,
0.05414,2.825010049,0.05414,5.481454413,
0.05416,1.363288873,0.05416,4.019733236,
0.05418,3.555870638,0.05418,4.38516353,
0.0542,0.9978585785,0.0542,4.019733236,
0.05422,-0.09843230404,0.05422,4.019733236,
0.05424,0.9978585785,0.05424,4.38516353,
0.05426,-0.4638625982,0.05426,4.750593824,
0.05428,-0.8292928924,0.05428,4.019733236,
0.0543,-0.8292928924,0.0543,4.750593824,
0.05432,-1.560153481,0.05432,4.38516353,
0.05434,-3.752735246,0.05434,3.654302942,
0.05436,-2.291014069,0.05436,4.750593824,
0.05438,-1.560153481,0.05438,4.019733236,
0.0544,-4.483595834,0.0544,4.019733236,
0.05442,-2.656444363,0.05442,4.38516353,
0.05444,-4.849026128,0.05444,4.38516353,
0.05446,-3.752735246,0.05446,4.019733236,
0.05448,-3.387304952,0.05448,4.38516353,
0.0545,-3.021874657,0.0545,4.38516353,
0.05452,-3.752735246,0.05452,4.019733236,
0.05454,-2.656444363,0.05454,3.654302942,
0.05456,-2.656444363,0.05456,4.019733236,
0.05458,-2.656444363,0.05458,4.019733236,
0.0546,-2.291014069,0.0546,4.38516353,
0.05462,-3.387304952,0.05462,4.38516353,
0.05464,-1.925583775,0.05464,5.116024118,
0.05466,-0.4638625982,0.05466,4.38516353,
0.05468,-0.8292928924,0.05468,4.38516353,
0.0547,-0.09843230404,0.0547,3.654302942,
0.05472,1.728719167,0.05472,4.750593824,
0.05474,1.363288873,0.05474,3.654302942,
0.05476,0.6324282843,0.05476,4.019733236,
0.05478,2.825010049,0.05478,4.019733236,
0.0548,3.190440344,0.0548,4.38516353,
0.05482,1.363288873,0.05482,4.019733236,
0.05484,2.825010049,0.05484,4.019733236,
0.05486,4.65216152,0.05486,4.019733236,
0.05488,3.555870638,0.05488,3.654302942,
0.0549,3.190440344,0.0549,4.38516353,
0.05492,4.65216152,0.05492,4.38516353,
0.05494,4.286731226,0.05494,5.116024118,
0.05496,3.921300932,0.05496,4.38516353,
0.05498,4.286731226,0.05498,4.38516353,
0.055,2.825010049,0.055,4.750593824,
0.05502,3.555870638,0.05502,4.019733236,
0.05504,3.190440344,0.05504,2.558012059,
0.05506,2.094149461,0.05506,4.019733236,
0.05508,0.9978585785,0.05508,4.019733236,
0.0551,2.094149461,0.0551,4.019733236,
0.05512,0.9978585785,0.05512,4.38516353,
0.05514,0.9978585785,0.05514,3.654302942,
0.05516,1.363288873,0.05516,4.38516353,
0.05518,-0.4638625982,0.05518,4.38516353,
0.0552,-0.09843230404,0.0552,4.38516353,
0.05522,-1.194723187,0.05522,4.019733236,
0.05524,-3.752735246,0.05524,5.116024118,
0.05526,-2.656444363,0.05526,4.38516353,
0.05528,-2.656444363,0.05528,4.38516353,
0.0553,-3.752735246,0.0553,4.019733236,
0.05532,-2.291014069,0.05532,4.38516353,
0.05534,-3.021874657,0.05534,2.558012059,
0.05536,-3.752735246,0.05536,3.288872648,
0.05538,-4.11816554,0.05538,4.38516353,
0.0554,-3.387304952,0.0554,4.019733236,
0.05542,-3.387304952,0.05542,4.019733236,
0.05544,-2.656444363,0.05544,4.750593824,
0.05546,-2.656444363,0.05546,4.38516353,
0.05548,-3.752735246,0.05548,4.019733236,
0.0555,-2.291014069,0.0555,4.019733236,
0.05552,-2.291014069,0.05552,4.38516353,
0.05554,-1.560153481,0.05554,4.019733236,
0.05556,-1.925583775,0.05556,4.38516353,
0.05558,-0.09843230404,0.05558,4.019733236,
0.0556,-0.09843230404,0.0556,3.654302942,
0.05562,-0.4638625982,0.05562,5.116024118,
0.05564,-0.8292928924,0.05564,3.288872648,
0.05566,2.825010049,0.05566,3.654302942,
0.05568,1.728719167,0.05568,4.750593824,
0.0557,2.094149461,0.0557,4.38516353,
0.05572,0.9978585785,0.05572,4.019733236,
0.05574,2.459579755,0.05574,4.750593824,
0.05576,3.190440344,0.05576,4.019733236,
0.05578,1.363288873,0.05578,4.750593824,
0.0558,3.190440344,0.0558,4.38516353,
0.05582,2.825010049,0.05582,4.38516353,
0.05584,2.825010049,0.05584,5.116024118,
0.05586,2.825010049,0.05586,4.019733236,
0.05588,3.190440344,0.05588,3.654302942,
0.0559,3.921300932,0.0559,4.750593824,
0.05592,2.825010049,0.05592,4.750593824,
0.05594,3.555870638,0.05594,3.288872648,
0.05596,2.825010049,0.05596,4.750593824,
0.05598,1.728719167,0.05598,4.38516353,
0.056,1.363288873,0.056,4.38516353,
0.05602,4.65216152,0.05602,4.750593824,
0.05604,1.728719167,0.05604,4.019733236,
0.05606,1.728719167,0.05606,4.019733236,
0.05608,-0.4638625982,0.05608,4.38516353,
0.0561,-0.8292928924,0.0561,4.38516353,
0.05612,-0.09843230404,0.05612,4.38516353,
0.05614,-1.560153481,0.05614,4.750593824,
0.05616,-1.560153481,0.05616,4.38516353,
0.05618,-1.194723187,0.05618,4.38516353,
0.0562,-1.560153481,0.0562,4.750593824,
0.05622,-2.656444363,0.05622,4.019733236,
0.05624,-5.214456422,0.05624,4.019733236,
0.05626,-2.291014069,0.05626,4.38516353,
0.05628,-3.021874657,0.05628,4.38516353,
0.0563,-4.11816554,0.0563,3.654302942,
0.05632,-3.021874657,0.05632,4.38516353,
0.05634,-4.483595834,0.05634,3.654302942,
0.05636,-4.483595834,0.05636,4.38516353,
0.05638,-3.387304952,0.05638,5.116024118,
0.0564,-3.021874657,0.0564,4.38516353,
0.05642,-3.387304952,0.05642,4.019733236,
0.05644,-1.925583775,0.05644,5.116024118,
0.05646,-2.291014069,0.05646,4.38516353,
0.05648,-1.194723187,0.05648,3.654302942,
0.0565,-1.194723187,0.0565,4.750593824,
0.05652,-1.560153481,0.05652,4.38516353,
0.05654,-1.194723187,0.05654,4.019733236,
0.05656,-0.4638625982,0.05656,5.116024118,
0.05658,0.2669979901,0.05658,4.019733236,
0.0566,0.6324282843,0.0566,4.019733236,
0.05662,2.459579755,0.05662,5.116024118,
0.05664,1.728719167,0.05664,4.019733236,
0.05666,1.728719167,0.05666,4.019733236,
0.05668,1.728719167,0.05668,4.750593824,
0.0567,1.363288873,0.0567,4.019733236,
0.05672,2.459579755,0.05672,4.38516353,
0.05674,3.921300932,0.05674,5.116024118,
0.05676,5.017591814,0.05676,4.019733236,
0.05678,0.6324282843,0.05678,4.019733236,
0.0568,6.479312991,0.0568,4.750593824,
0.05682,5.017591814,0.05682,3.654302942,
0.05684,4.65216152,0.05684,4.019733236,
0.05686,3.555870638,0.05686,4.38516353,
0.05688,3.555870638,0.05688,4.019733236,
0.0569,1.363288873,0.0569,4.019733236,
0.05692,1.728719167,0.05692,4.750593824,
0.05694,0.6324282843,0.05694,4.38516353,
0.05696,1.728719167,0.05696,4.38516353,
0.05698,1.363288873,0.05698,4.38516353,
0.057,-0.09843230404,0.057,4.38516353,
0.05702,0.6324282843,0.05702,4.019733236,
0.05704,-0.8292928924,0.05704,4.750593824,
0.05706,-1.194723187,0.05706,4.019733236,
0.05708,-2.291014069,0.05708,4.019733236,
0.0571,-1.560153481,0.0571,4.750593824,
0.05712,-1.194723187,0.05712,4.019733236,
0.05714,-1.925583775,0.05714,4.019733236,
0.05716,-2.656444363,0.05716,4.019733236,
0.05718,-3.021874657,0.05718,3.654302942,
0.0572,-3.752735246,0.0572,4.019733236,
0.05722,-4.849026128,0.05722,4.38516353,
0.05724,-2.656444363,0.05724,4.019733236,
0.05726,-1.925583775,0.05726,4.019733236,
0.05728,-4.483595834,0.05728,4.38516353,
0.0573,-2.656444363,0.0573,4.38516353,
0.05732,-3.021874657,0.05732,4.38516353,
0.05734,-2.656444363,0.05734,4.38516353,
0.05736,-2.291014069,0.05736,4.750593824,
0.05738,-2.656444363,0.05738,4.750593824,
0.0574,-1.925583775,0.0574,4.38516353,
0.05742,-1.925583775,0.05742,4.38516353,
0.05744,-1.560153481,0.05744,4.019733236,
0.05746,-0.4638625982,0.05746,4.019733236,
0.05748,-0.8292928924,0.05748,4.750593824,
0.0575,-0.4638625982,0.0575,4.019733236,
0.05752,1.363288873,0.05752,4.750593824,
0.05754,2.094149461,0.05754,4.38516353,
0.05756,2.094149461,0.05756,4.38516353,
0.05758,3.190440344,0.05758,4.38516353,
0.0576,1.363288873,0.0576,4.38516353,
0.05762,2.825010049,0.05762,4.38516353,
0.05764,3.555870638,0.05764,4.38516353,
0.05766,2.094149461,0.05766,4.750593824,
0.05768,3.190440344,0.05768,4.38516353,
0.0577,3.921300932,0.0577,4.38516353,
0.05772,4.65216152,0.05772,4.750593824,
0.05774,3.555870638,0.05774,4.38516353,
0.05776,3.555870638,0.05776,4.750593824,
0.05778,3.190440344,0.05778,4.38516353,
0.0578,3.921300932,0.0578,4.38516353,
0.05782,2.825010049,0.05782,4.38516353,
0.05784,2.825010049,0.05784,4.750593824,
0.05786,2.825010049,0.05786,5.481454413,
0.05788,2.094149461,0.05788,5.116024118,
0.0579,0.9978585785,0.0579,4.019733236,
0.05792,1.363288873,0.05792,5.116024118,
0.05794,2.459579755,0.05794,4.750593824,
0.05796,0.9978585785,0.05796,3.654302942,
0.05798,-0.4638625982,0.05798,4.38516353,
0.058,-0.09843230404,0.058,4.750593824,
0.05802,-0.8292928924,0.05802,4.38516353,
0.05804,-1.194723187,0.05804,4.38516353,
0.05806,-1.560153481,0.05806,3.654302942,
0.05808,-1.194723187,0.05808,4.38516353,
0.0581,-3.752735246,0.0581,4.019733236,
0.05812,-3.387304952,0.05812,4.750593824,
0.05814,-5.214456422,0.05814,4.019733236,
0.05816,-3.387304952,0.05816,5.116024118,
0.05818,-3.021874657,0.05818,4.38516353,
0.0582,-4.483595834,0.0582,4.38516353,
0.05822,-3.752735246,0.05822,4.750593824,
0.05824,-5.579886717,0.05824,4.750593824,
0.05826,-2.656444363,0.05826,3.654302942,
0.05828,-4.11816554,0.05828,4.750593824,
0.0583,-1.925583775,0.0583,4.38516353,
0.05832,-2.656444363,0.05832,4.38516353,
0.05834,-1.560153481,0.05834,4.750593824,
0.05836,-2.291014069,0.05836,4.750593824,
0.05838,-0.8292928924,0.05838,4.38516353,
0.0584,-1.560153481,0.0584,4.019733236,
0.05842,-0.09843230404,0.05842,4.38516353,
0.05844,0.2669979901,0.05844,4.38516353,
0.05846,-0.09843230404,0.05846,4.019733236,
0.05848,2.459579755,0.05848,4.38516353,
0.0585,2.459579755,0.0585,4.38516353,
0.05852,1.363288873,0.05852,4.38516353,
0.05854,2.094149461,0.05854,4.38516353,
0.05856,3.190440344,0.05856,3.288872648,
0.05858,3.190440344,0.05858,4.38516353,
0.0586,2.825010049,0.0586,4.38516353,
0.05862,3.921300932,0.05862,3.654302942,
0.05864,5.017591814,0.05864,3.654302942,
