"A0_accX_x","A0_accX_y","A1_rmsX_x","A1_rmsX_y"
0,-0.432545222,0,4.750593824,
2e-05,-0.06711492783,2e-05,4.019733236,
4e-05,1.394606249,4e-05,5.481454413,
6e-05,0.6637456605,6e-05,5.116024118,
8e-05,1.760036543,8e-05,4.38516353,
0.0001,2.856327426,0.0001,4.38516353,
0.00012,2.856327426,0.00012,4.38516353,
0.00014,3.22175772,0.00014,3.654302942,
0.00016,3.587188014,0.00016,4.750593824,
0.00018,2.125466837,0.00018,4.750593824,
0.0002,4.318048602,0.0002,4.019733236,
0.00022,3.587188014,0.00022,4.019733236,
0.00024,3.22175772,0.00024,3.288872648,
0.00026,3.952618308,0.00026,4.38516353,
0.00028,3.587188014,0.00028,4.019733236,
0.0003,3.22175772,0.0003,4.750593824,
0.00032,4.318048602,0.00032,4.38516353,
0.00034,2.856327426,0.00034,5.481454413,
0.00036,2.490897131,0.00036,4.750593824,
0.00038,2.856327426,0.00038,4.38516353,
0.0004,1.760036543,0.0004,4.750593824,
0.00042,0.6637456605,0.00042,5.116024118,
0.00044,-0.432545222,0.00044,3.654302942,
0.00046,-2.259696693,0.00046,4.750593824,
0.00048,-0.432545222,0.00048,5.846884707,
0.0005,-0.7979755162,0.0005,4.38516353,
0.00052,-1.16340581,0.00052,4.38516353,
0.00054,-2.259696693,0.00054,4.750593824,
0.00056,-2.625126987,0.00056,4.38516353,
0.00058,-1.894266399,0.00058,4.38516353,
0.0006,-2.990557281,0.0006,4.750593824,
0.00062,-1.16340581,0.00062,4.38516353,
0.00064,-4.086848164,0.00064,5.116024118,
0.00066,0.6637456605,0.00066,4.38516353,
0.00068,-2.990557281,0.00068,4.38516353,
0.0007,-2.990557281,0.0007,4.750593824,
0.00072,-4.086848164,0.00072,4.750593824,
0.00074,-2.990557281,0.00074,3.654302942,
0.00076,-4.452278458,0.00076,4.38516353,
0.00078,-4.086848164,0.00078,4.750593824,
0.0008,-2.625126987,0.0008,4.38516353,
0.00082,-2.259696693,0.00082,4.38516353,
0.00084,-3.355987575,0.00084,4.750593824,
0.00086,-1.528836105,0.00086,4.38516353,
0.00088,0.6637456605,0.00088,4.750593824,
0.0009,-1.16340581,0.0009,4.750593824,
0.00092,0.6637456605,0.00092,4.38516353,
0.00094,-0.06711492783,0.00094,4.750593824,
0.00096,1.394606249,0.00096,5.116024118,
0.00098,2.490897131,0.00098,4.38516353,
0.001,1.394606249,0.001,4.750593824,
0.00102,1.760036543,0.00102,4.750593824,
0.00104,1.760036543,0.00104,4.019733236,
0.00106,2.490897131,0.00106,4.750593824,
0.00108,1.760036543,0.00108,4.38516353,
0.0011,2.125466837,0.0011,4.38516353,
0.00112,1.029175955,0.00112,4.38516353,
0.00114,3.587188014,0.00114,4.750593824,
0.00116,5.414339485,0.00116,4.38516353,
0.00118,3.587188014,0.00118,4.750593824,
0.0012,3.952618308,0.0012,4.38516353,
0.00122,3.952618308,0.00122,4.38516353,
0.00124,3.22175772,0.00124,4.38516353,
0.00126,3.22175772,0.00126,4.750593824,
0.00128,2.856327426,0.00128,4.750593824,
0.0013,4.318048602,0.0013,4.38516353,
0.00132,0.2983153663,0.00132,4.38516353,
0.00134,2.856327426,0.00134,3.654302942,
0.00136,-0.432545222,0.00136,4.750593824,
0.00138,0.6637456605,0.00138,4.750593824,
0.0014,-1.16340581,0.0014,4.38516353,
0.00142,-0.7979755162,0.00142,5.116024118,
0.00144,-1.16340581,0.00144,4.38516353,
0.00146,-2.990557281,0.00146,4.38516353,
0.00148,-1.894266399,0.00148,4.750593824,
0.0015,-2.990557281,0.0015,4.38516353,
0.00152,-2.259696693,0.00152,4.38516353,
0.00154,-2.990557281,0.00154,4.019733236,
0.00156,-2.990557281,0.00156,4.38516353,
0.00158,-2.990557281,0.00158,4.38516353,
0.0016,-3.355987575,0.0016,4.750593824,
0.00162,-3.72141787,0.00162,4.38516353,
0.00164,-3.355987575,0.00164,4.38516353,
0.00166,-3.355987575,0.00166,4.750593824,
0.00168,-3.355987575,0.00168,4.38516353,
0.0017,-3.72141787,0.0017,4.38516353,
0.00172,-2.990557281,0.00172,4.750593824,
0.00174,-2.625126987,0.00174,4.019733236,
0.00176,-2.990557281,0.00176,4.38516353,
0.00178,-0.7979755162,0.00178,4.38516353,
0.0018,-2.259696693,0.0018,4.750593824,
0.00182,-1.16340581,0.00182,4.019733236,
0.00184,-0.432545222,0.00184,5.116024118,
0.00186,-1.894266399,0.00186,4.019733236,
0.00188,1.029175955,0.00188,4.38516353,
0.0019,2.490897131,0.0019,4.750593824,
0.00192,1.029175955,0.00192,4.750593824,
0.00194,2.125466837,0.00194,4.019733236,
0.00196,2.125466837,0.00196,4.38516353,
0.00198,1.394606249,0.00198,4.019733236,
0.002,3.587188014,0.002,4.019733236,
0.00202,3.22175772,0.00202,4.38516353,
0.00204,3.587188014,0.00204,4.019733236,
0.00206,3.587188014,0.00206,4.38516353,
0.00208,3.587188014,0.00208,4.38516353,
0.0021,3.22175772,0.0021,3.654302942,
0.00212,2.856327426,0.00212,4.38516353,
0.00214,3.22175772,0.00214,4.38516353,
0.00216,3.587188014,0.00216,4.019733236,
0.00218,2.856327426,0.00218,4.38516353,
0.0022,2.856327426,0.0022,4.38516353,
0.00222,2.856327426,0.00222,3.288872648,
0.00224,1.394606249,0.00224,4.38516353,
0.00226,3.587188014,0.00226,4.38516353,
0.00228,1.394606249,0.00228,4.019733236,
0.0023,1.029175955,0.0023,4.38516353,
0.00232,1.029175955,0.00232,4.38516353,
0.00234,-1.16340581,0.00234,4.019733236,
0.00236,-1.894266399,0.00236,4.38516353,
0.00238,-0.432545222,0.00238,4.38516353,
0.0024,-1.528836105,0.0024,4.019733236,
0.00242,-2.259696693,0.00242,4.38516353,
0.00244,-0.7979755162,0.00244,4.38516353,
0.00246,-4.086848164,0.00246,3.654302942,
0.00248,-2.625126987,0.00248,4.38516353,
0.0025,-3.355987575,0.0025,4.750593824,
0.00252,-3.355987575,0.00252,4.019733236,
0.00254,-2.259696693,0.00254,4.38516353,
0.00256,-1.894266399,0.00256,4.38516353,
0.00258,-3.355987575,0.00258,4.019733236,
0.0026,-4.817708752,0.0026,4.38516353,
0.00262,-3.72141787,0.00262,4.750593824,
0.00264,-3.72141787,0.00264,4.019733236,
0.00266,0.2983153663,0.00266,4.019733236,
0.00268,-3.355987575,0.00268,4.019733236,
0.0027,-2.259696693,0.0027,3.654302942,
0.00272,-2.625126987,0.00272,4.019733236,
0.00274,-0.06711492783,0.00274,4.750593824,
0.00276,-0.7979755162,0.00276,3.288872648,
0.00278,-0.432545222,0.00278,4.38516353,
0.0028,-0.06711492783,0.0028,4.38516353,
0.00282,1.029175955,0.00282,4.019733236,
0.00284,3.587188014,0.00284,4.38516353,
0.00286,1.760036543,0.00286,4.750593824,
0.00288,2.125466837,0.00288,3.654302942,
0.0029,2.856327426,0.0029,4.38516353,
0.00292,1.760036543,0.00292,4.38516353,
0.00294,3.22175772,0.00294,3.654302942,
0.00296,2.125466837,0.00296,4.38516353,
0.00298,3.952618308,0.00298,4.019733236,
0.003,3.952618308,0.003,4.019733236,
0.00302,3.952618308,0.00302,4.750593824,
0.00304,5.779769779,0.00304,4.019733236,
0.00306,3.587188014,0.00306,2.558012059,
0.00308,4.318048602,0.00308,4.019733236,
0.0031,3.587188014,0.0031,4.38516353,
0.00312,3.22175772,0.00312,4.019733236,
0.00314,2.856327426,0.00314,4.38516353,
0.00316,3.22175772,0.00316,5.116024118,
0.00318,1.760036543,0.00318,3.654302942,
0.0032,2.125466837,0.0032,4.750593824,
0.00322,1.394606249,0.00322,4.750593824,
0.00324,0.6637456605,0.00324,3.654302942,
0.00326,1.029175955,0.00326,3.288872648,
0.00328,0.2983153663,0.00328,4.019733236,
0.0033,-0.7979755162,0.0033,3.288872648,
0.00332,-0.7979755162,0.00332,4.019733236,
0.00334,-1.16340581,0.00334,4.019733236,
0.00336,-2.625126987,0.00336,4.019733236,
0.00338,-1.894266399,0.00338,4.38516353,
0.0034,-2.259696693,0.0034,4.38516353,
0.00342,-2.990557281,0.00342,3.654302942,
0.00344,-2.625126987,0.00344,4.019733236,
0.00346,-4.086848164,0.00346,6.577745295,
0.00348,-2.990557281,0.00348,4.019733236,
0.0035,-4.452278458,0.0035,4.019733236,
0.00352,-3.355987575,0.00352,4.38516353,
0.00354,-3.355987575,0.00354,3.654302942,
0.00356,-3.72141787,0.00356,5.116024118,
0.00358,-1.528836105,0.00358,4.38516353,
0.0036,-2.259696693,0.0036,4.019733236,
0.00362,-2.259696693,0.00362,4.38516353,
0.00364,-0.06711492783,0.00364,4.38516353,
0.00366,-2.625126987,0.00366,2.192581765,
0.00368,-0.06711492783,0.00368,4.019733236,
0.0037,-0.432545222,0.0037,4.019733236,
0.00372,-0.432545222,0.00372,4.019733236,
0.00374,0.6637456605,0.00374,4.38516353,
0.00376,1.029175955,0.00376,3.288872648,
0.00378,1.394606249,0.00378,5.116024118,
0.0038,1.029175955,0.0038,4.38516353,
0.00382,-0.06711492783,0.00382,4.019733236,
0.00384,2.490897131,0.00384,3.654302942,
0.00386,2.490897131,0.00386,5.481454413,
0.00388,2.490897131,0.00388,4.019733236,
0.0039,2.125466837,0.0039,4.38516353,
0.00392,3.22175772,0.00392,4.38516353,
0.00394,5.048909191,0.00394,4.019733236,
0.00396,2.856327426,0.00396,4.750593824,
0.00398,1.760036543,0.00398,4.750593824,
0.004,3.952618308,0.004,4.38516353,
0.00402,3.587188014,0.00402,4.019733236,
0.00404,1.760036543,0.00404,4.019733236,
0.00406,2.856327426,0.00406,2.923442353,
0.00408,1.394606249,0.00408,4.38516353,
0.0041,2.125466837,0.0041,4.019733236,
0.00412,2.490897131,0.00412,4.019733236,
0.00414,1.029175955,0.00414,4.38516353,
0.00416,1.029175955,0.00416,4.019733236,
0.00418,2.125466837,0.00418,4.38516353,
0.0042,-1.528836105,0.0042,4.019733236,
0.00422,-0.432545222,0.00422,4.019733236,
0.00424,-0.06711492783,0.00424,4.38516353,
0.00426,-1.528836105,0.00426,5.481454413,
0.00428,-2.990557281,0.00428,4.38516353,
0.0043,-1.528836105,0.0043,3.654302942,
0.00432,-3.355987575,0.00432,4.38516353,
0.00434,-3.355987575,0.00434,4.750593824,
0.00436,-2.990557281,0.00436,3.654302942,
0.00438,-5.913999635,0.00438,4.750593824,
0.0044,-3.355987575,0.0044,4.38516353,
0.00442,-3.355987575,0.00442,4.38516353,
0.00444,-3.72141787,0.00444,4.38516353,
0.00446,-3.72141787,0.00446,3.288872648,
0.00448,-2.259696693,0.00448,4.750593824,
0.0045,-3.355987575,0.0045,4.38516353,
0.00452,-2.625126987,0.00452,4.38516353,
0.00454,-1.528836105,0.00454,4.750593824,
0.00456,-2.990557281,0.00456,5.481454413,
0.00458,-1.16340581,0.00458,4.38516353,
0.0046,-0.7979755162,0.0046,4.750593824,
0.00462,-1.16340581,0.00462,4.750593824,
0.00464,-0.432545222,0.00464,4.38516353,
0.00466,0.2983153663,0.00466,5.481454413,
0.00468,-0.7979755162,0.00468,4.38516353,
0.0047,-0.06711492783,0.0047,4.38516353,
0.00472,1.394606249,0.00472,4.38516353,
0.00474,1.029175955,0.00474,4.019733236,
0.00476,3.587188014,0.00476,4.019733236,
0.00478,1.760036543,0.00478,4.38516353,
0.0048,2.856327426,0.0048,3.654302942,
0.00482,3.22175772,0.00482,4.38516353,
0.00484,3.587188014,0.00484,4.750593824,
0.00486,3.587188014,0.00486,4.019733236,
0.00488,4.683478896,0.00488,4.38516353,
0.0049,4.683478896,0.0049,4.38516353,
0.00492,2.856327426,0.00492,4.019733236,
0.00494,2.125466837,0.00494,4.750593824,
0.00496,4.318048602,0.00496,4.750593824,
0.00498,2.490897131,0.00498,4.019733236,
0.005,1.760036543,0.005,4.019733236,
0.00502,3.22175772,0.00502,4.38516353,
0.00504,2.125466837,0.00504,4.019733236,
0.00506,1.760036543,0.00506,4.38516353,
0.00508,1.029175955,0.00508,4.019733236,
0.0051,0.6637456605,0.0051,3.654302942,
0.00512,1.394606249,0.00512,4.38516353,
0.00514,-0.06711492783,0.00514,4.019733236,
0.00516,-0.432545222,0.00516,3.654302942,
0.00518,-1.528836105,0.00518,4.019733236,
0.0052,-1.528836105,0.0052,4.38516353,
0.00522,-2.625126987,0.00522,4.019733236,
0.00524,-3.72141787,0.00524,4.019733236,
0.00526,-1.894266399,0.00526,4.750593824,
0.00528,-4.817708752,0.00528,4.019733236,
0.0053,-3.355987575,0.0053,4.38516353,
0.00532,-2.259696693,0.00532,4.38516353,
0.00534,-4.086848164,0.00534,4.019733236,
0.00536,-2.990557281,0.00536,4.019733236,
0.00538,-2.990557281,0.00538,4.38516353,
0.0054,-3.72141787,0.0054,4.38516353,
0.00542,-2.990557281,0.00542,4.019733236,
0.00544,-4.086848164,0.00544,4.38516353,
0.00546,-4.817708752,0.00546,4.38516353,
0.00548,-3.355987575,0.00548,4.38516353,
0.0055,-3.72141787,0.0055,4.019733236,
0.00552,-2.259696693,0.00552,3.654302942,
0.00554,-1.528836105,0.00554,4.38516353,
0.00556,-0.06711492783,0.00556,4.019733236,
0.00558,-0.432545222,0.00558,3.654302942,
0.0056,-0.432545222,0.0056,4.38516353,
0.00562,1.029175955,0.00562,4.38516353,
0.00564,0.2983153663,0.00564,3.288872648,
0.00566,1.029175955,0.00566,4.38516353,
0.00568,2.856327426,0.00568,4.38516353,
0.0057,1.760036543,0.0057,3.654302942,
0.00572,3.587188014,0.00572,4.750593824,
0.00574,2.856327426,0.00574,4.38516353,
0.00576,2.490897131,0.00576,4.019733236,
0.00578,3.952618308,0.00578,4.750593824,
0.0058,3.587188014,0.0058,4.38516353,
0.00582,4.318048602,0.00582,4.019733236,
0.00584,3.587188014,0.00584,4.38516353,
0.00586,5.048909191,0.00586,4.019733236,
0.00588,2.856327426,0.00588,3.654302942,
0.0059,2.856327426,0.0059,4.750593824,
0.00592,3.22175772,0.00592,4.019733236,
0.00594,2.125466837,0.00594,4.019733236,
0.00596,2.856327426,0.00596,4.38516353,
0.00598,3.22175772,0.00598,4.019733236,
0.006,2.490897131,0.006,4.019733236,
0.00602,2.856327426,0.00602,4.750593824,
0.00604,1.394606249,0.00604,4.38516353,
0.00606,-0.7979755162,0.00606,3.654302942,
0.00608,-0.06711492783,0.00608,4.38516353,
0.0061,-0.432545222,0.0061,3.654302942,
0.00612,-1.894266399,0.00612,4.019733236,
0.00614,-0.7979755162,0.00614,4.750593824,
0.00616,-2.990557281,0.00616,4.019733236,
0.00618,-2.259696693,0.00618,3.654302942,
0.0062,-1.894266399,0.0062,4.750593824,
0.00622,-2.259696693,0.00622,4.019733236,
0.00624,-2.259696693,0.00624,4.019733236,
0.00626,-3.355987575,0.00626,5.116024118,
0.00628,-2.625126987,0.00628,4.019733236,
0.0063,-3.355987575,0.0063,3.654302942,
0.00632,-2.625126987,0.00632,4.38516353,
0.00634,-3.72141787,0.00634,4.38516353,
0.00636,-5.913999635,0.00636,4.019733236,
0.00638,-3.72141787,0.00638,4.38516353,
0.0064,-2.990557281,0.0064,4.019733236,
0.00642,-2.259696693,0.00642,4.019733236,
0.00644,-1.528836105,0.00644,4.38516353,
0.00646,0.2983153663,0.00646,4.019733236,
0.00648,-1.16340581,0.00648,3.654302942,
0.0065,-0.7979755162,0.0065,4.019733236,
0.00652,0.2983153663,0.00652,4.38516353,
0.00654,-0.7979755162,0.00654,4.019733236,
0.00656,1.029175955,0.00656,4.38516353,
0.00658,0.6637456605,0.00658,4.750593824,
0.0066,1.760036543,0.0066,3.654302942,
0.00662,2.125466837,0.00662,5.116024118,
0.00664,2.125466837,0.00664,4.019733236,
0.00666,2.125466837,0.00666,4.019733236,
0.00668,2.490897131,0.00668,4.019733236,
0.0067,2.856327426,0.0067,4.38516353,
0.00672,4.683478896,0.00672,4.019733236,
0.00674,3.22175772,0.00674,4.750593824,
0.00676,1.394606249,0.00676,4.38516353,
0.00678,2.490897131,0.00678,4.38516353,
0.0068,3.952618308,0.0068,4.750593824,
0.00682,2.856327426,0.00682,4.38516353,
0.00684,3.22175772,0.00684,4.019733236,
0.00686,3.587188014,0.00686,4.38516353,
0.00688,2.125466837,0.00688,5.116024118,
0.0069,2.125466837,0.0069,3.654302942,
0.00692,1.760036543,0.00692,4.38516353,
0.00694,0.6637456605,0.00694,4.38516353,
0.00696,1.394606249,0.00696,4.019733236,
0.00698,0.2983153663,0.00698,4.38516353,
0.007,-0.06711492783,0.007,4.019733236,
0.00702,-0.06711492783,0.00702,4.019733236,
0.00704,-0.06711492783,0.00704,4.750593824,
0.00706,-1.894266399,0.00706,4.019733236,
0.00708,-1.894266399,0.00708,2.923442353,
0.0071,-1.528836105,0.0071,4.750593824,
0.00712,-2.259696693,0.00712,4.019733236,
0.00714,-2.625126987,0.00714,4.019733236,
0.00716,-4.086848164,0.00716,4.750593824,
0.00718,-2.990557281,0.00718,5.481454413,
0.0072,-3.355987575,0.0072,4.019733236,
0.00722,-3.355987575,0.00722,4.750593824,
0.00724,-4.086848164,0.00724,4.019733236,
0.00726,-4.452278458,0.00726,4.019733236,
0.00728,-1.894266399,0.00728,4.019733236,
0.0073,-3.72141787,0.0073,4.38516353,
0.00732,-3.355987575,0.00732,4.019733236,
0.00734,-2.259696693,0.00734,4.750593824,
0.00736,-2.990557281,0.00736,4.019733236,
0.00738,-1.894266399,0.00738,2.923442353,
0.0074,-1.894266399,0.0074,4.750593824,
0.00742,-1.894266399,0.00742,4.019733236,
0.00744,-0.7979755162,0.00744,4.019733236,
0.00746,0.6637456605,0.00746,4.750593824,
0.00748,-0.7979755162,0.00748,4.38516353,
0.0075,0.2983153663,0.0075,4.019733236,
0.00752,2.125466837,0.00752,4.750593824,
0.00754,2.125466837,0.00754,4.38516353,
0.00756,1.394606249,0.00756,4.019733236,
0.00758,-0.432545222,0.00758,4.38516353,
0.0076,2.490897131,0.0076,4.38516353,
0.00762,2.856327426,0.00762,4.019733236,
0.00764,3.952618308,0.00764,4.38516353,
0.00766,2.125466837,0.00766,4.750593824,
0.00768,1.760036543,0.00768,3.654302942,
0.0077,2.856327426,0.0077,4.750593824,
0.00772,4.683478896,0.00772,4.38516353,
0.00774,2.490897131,0.00774,4.019733236,
0.00776,3.22175772,0.00776,4.750593824,
0.00778,2.856327426,0.00778,5.116024118,
0.0078,3.22175772,0.0078,4.019733236,
0.00782,3.22175772,0.00782,4.750593824,
0.00784,2.125466837,0.00784,4.38516353,
0.00786,0.2983153663,0.00786,4.38516353,
0.00788,1.760036543,0.00788,5.116024118,
0.0079,2.490897131,0.0079,4.38516353,
0.00792,-0.432545222,0.00792,4.019733236,
0.00794,-0.7979755162,0.00794,4.38516353,
0.00796,-1.16340581,0.00796,4.38516353,
0.00798,-0.7979755162,0.00798,3.654302942,
0.008,0.2983153663,0.008,4.750593824,
0.00802,-2.259696693,0.00802,4.38516353,
0.00804,-1.894266399,0.00804,4.019733236,
0.00806,-2.259696693,0.00806,5.116024118,
0.00808,-2.990557281,0.00808,4.019733236,
0.0081,-6.644860223,0.0081,4.019733236,
0.00812,-4.452278458,0.00812,4.750593824,
0.00814,-4.452278458,0.00814,4.750593824,
0.00816,-3.72141787,0.00816,4.38516353,
0.00818,-3.72141787,0.00818,5.116024118,
0.0082,-5.54856934,0.0082,4.019733236,
0.00822,-3.355987575,0.00822,4.019733236,
0.00824,-3.72141787,0.00824,4.750593824,
0.00826,-3.72141787,0.00826,4.019733236,
0.00828,-1.894266399,0.00828,4.750593824,
0.0083,-1.894266399,0.0083,4.750593824,
0.00832,-2.259696693,0.00832,4.38516353,
0.00834,-1.16340581,0.00834,4.38516353,
0.00836,-1.528836105,0.00836,4.38516353,
0.00838,-2.990557281,0.00838,3.654302942,
0.0084,-2.259696693,0.0084,4.019733236,
0.00842,1.760036543,0.00842,4.38516353,
0.00844,0.2983153663,0.00844,3.654302942,
0.00846,0.6637456605,0.00846,3.654302942,
0.00848,1.760036543,0.00848,5.116024118,
0.0085,3.952618308,0.0085,4.38516353,
0.00852,2.490897131,0.00852,4.38516353,
0.00854,2.856327426,0.00854,4.750593824,
0.00856,2.490897131,0.00856,4.750593824,
0.00858,3.587188014,0.00858,4.750593824,
0.0086,2.856327426,0.0086,4.38516353,
0.00862,3.587188014,0.00862,4.750593824,
0.00864,4.683478896,0.00864,4.750593824,
0.00866,2.490897131,0.00866,4.38516353,
0.00868,3.587188014,0.00868,4.38516353,
0.0087,1.760036543,0.0087,4.750593824,
0.00872,2.490897131,0.00872,4.38516353,
0.00874,3.22175772,0.00874,4.38516353,
0.00876,2.125466837,0.00876,4.750593824,
0.00878,1.394606249,0.00878,4.750593824,
0.0088,2.856327426,0.0088,4.38516353,
0.00882,1.029175955,0.00882,4.750593824,
0.00884,-0.7979755162,0.00884,4.750593824,
0.00886,-0.432545222,0.00886,4.019733236,
0.00888,-0.7979755162,0.00888,4.750593824,
0.0089,-1.528836105,0.0089,4.750593824,
0.00892,-1.16340581,0.00892,4.750593824,
0.00894,-1.528836105,0.00894,4.750593824,
0.00896,-2.990557281,0.00896,4.750593824,
0.00898,-1.894266399,0.00898,4.750593824,
0.009,-2.990557281,0.009,4.750593824,
0.00902,-1.894266399,0.00902,4.38516353,
0.00904,-1.894266399,0.00904,4.38516353,
0.00906,-3.355987575,0.00906,4.750593824,
0.00908,-3.355987575,0.00908,4.38516353,
0.0091,-3.355987575,0.0091,4.750593824,
0.00912,-2.990557281,0.00912,4.38516353,
0.00914,-3.355987575,0.00914,4.750593824,
0.00916,-2.990557281,0.00916,4.38516353,
0.00918,-3.72141787,0.00918,4.750593824,
0.0092,-2.259696693,0.0092,4.38516353,
0.00922,-1.894266399,0.00922,4.019733236,
0.00924,-1.894266399,0.00924,4.750593824,
0.00926,-1.528836105,0.00926,4.750593824,
0.00928,-0.7979755162,0.00928,4.38516353,
0.0093,-0.432545222,0.0093,4.38516353,
0.00932,-0.7979755162,0.00932,4.019733236,
0.00934,0.6637456605,0.00934,5.116024118,
0.00936,-1.528836105,0.00936,4.38516353,
0.00938,1.029175955,0.00938,4.38516353,
0.0094,1.029175955,0.0094,3.654302942,
0.00942,1.760036543,0.00942,4.019733236,
0.00944,2.490897131,0.00944,4.750593824,
0.00946,2.856327426,0.00946,4.750593824,
0.00948,3.952618308,0.00948,5.116024118,
0.0095,1.029175955,0.0095,4.019733236,
0.00952,2.856327426,0.00952,4.38516353,
0.00954,3.22175772,0.00954,4.019733236,
0.00956,4.683478896,0.00956,4.750593824,
0.00958,3.22175772,0.00958,4.019733236,
0.0096,3.587188014,0.0096,4.019733236,
0.00962,3.587188014,0.00962,4.750593824,
0.00964,1.394606249,0.00964,4.019733236,
0.00966,3.22175772,0.00966,4.38516353,
0.00968,3.22175772,0.00968,4.38516353,
0.0097,2.856327426,0.0097,4.019733236,
0.00972,0.2983153663,0.00972,4.38516353,
0.00974,1.394606249,0.00974,4.750593824,
0.00976,0.2983153663,0.00976,4.019733236,
0.00978,-0.06711492783,0.00978,4.38516353,
0.0098,-0.06711492783,0.0098,5.481454413,
0.00982,-0.432545222,0.00982,4.019733236,
0.00984,0.6637456605,0.00984,4.019733236,
0.00986,-0.432545222,0.00986,4.750593824,
0.00988,-2.990557281,0.00988,4.38516353,
0.0099,-4.086848164,0.0099,4.38516353,
0.00992,-2.625126987,0.00992,4.750593824,
0.00994,-2.990557281,0.00994,4.019733236,
0.00996,-3.355987575,0.00996,4.019733236,
0.00998,-1.894266399,0.00998,4.38516353,
0.01,-4.086848164,0.01,2.923442353,
0.01002,-3.72141787,0.01002,4.38516353,
0.01004,-4.086848164,0.01004,4.750593824,
0.01006,-7.010290517,0.01006,4.38516353,
0.01008,-3.355987575,0.01008,4.019733236,
0.0101,-2.625126987,0.0101,5.481454413,
0.01012,-3.72141787,0.01012,4.019733236,
0.01014,-3.355987575,0.01014,4.019733236,
0.01016,-1.894266399,0.01016,4.38516353,
0.01018,-2.990557281,0.01018,4.019733236,
0.0102,-2.259696693,0.0102,3.288872648,
0.01022,-1.894266399,0.01022,4.38516353,
0.01024,-0.7979755162,0.01024,3.654302942,
0.01026,-0.06711492783,0.01026,4.38516353,
0.01028,-0.432545222,0.01028,4.38516353,
0.0103,0.2983153663,0.0103,2.558012059,
0.01032,-0.432545222,0.01032,4.38516353,
0.01034,2.856327426,0.01034,5.116024118,
0.01036,1.394606249,0.01036,4.38516353,
0.01038,2.125466837,0.01038,4.750593824,
0.0104,2.125466837,0.0104,6.577745295,
0.01042,2.490897131,0.01042,4.750593824,
0.01044,4.318048602,0.01044,4.019733236,
0.01046,3.22175772,0.01046,4.750593824,
0.01048,2.856327426,0.01048,4.750593824,
0.0105,5.414339485,0.0105,2.192581765,
0.01052,3.952618308,0.01052,4.750593824,
0.01054,2.856327426,0.01054,4.38516353,
0.01056,2.856327426,0.01056,4.019733236,
0.01058,2.490897131,0.01058,4.750593824,
0.0106,3.22175772,0.0106,3.654302942,
0.01062,3.22175772,0.01062,4.38516353,
0.01064,2.856327426,0.01064,4.38516353,
0.01066,1.394606249,0.01066,4.38516353,
0.01068,1.029175955,0.01068,4.38516353,
0.0107,0.2983153663,0.0107,6.943175589,
0.01072,-0.06711492783,0.01072,4.38516353,
0.01074,-0.432545222,0.01074,4.019733236,
0.01076,-0.7979755162,0.01076,4.38516353,
0.01078,-1.894266399,0.01078,4.38516353,
0.0108,-1.894266399,0.0108,4.750593824,
0.01082,-3.72141787,0.01082,4.750593824,
0.01084,-2.259696693,0.01084,4.38516353,
0.01086,-2.625126987,0.01086,4.38516353,
0.01088,-2.625126987,0.01088,4.38516353,
0.0109,-4.086848164,0.0109,2.923442353,
0.01092,-4.817708752,0.01092,4.019733236,
0.01094,-4.086848164,0.01094,4.750593824,
0.01096,-4.086848164,0.01096,4.019733236,
0.01098,-3.72141787,0.01098,4.019733236,
0.011,-2.625126987,0.011,5.116024118,
0.01102,-2.990557281,0.01102,4.019733236,
0.01104,-2.990557281,0.01104,4.38516353,
0.01106,-2.990557281,0.01106,4.750593824,
0.01108,-3.72141787,0.01108,4.019733236,
0.0111,-1.894266399,0.0111,5.481454413,
0.01112,0.6637456605,0.01112,4.750593824,
0.01114,-1.16340581,0.01114,4.750593824,
0.01116,-1.528836105,0.01116,4.019733236,
0.01118,-0.06711492783,0.01118,4.750593824,
0.0112,-0.432545222,0.0112,5.116024118,
0.01122,0.2983153663,0.01122,4.019733236,
0.01124,0.2983153663,0.01124,4.750593824,
0.01126,0.6637456605,0.01126,4.38516353,
0.01128,1.394606249,0.01128,4.38516353,
0.0113,3.952618308,0.0113,4.019733236,
0.01132,2.490897131,0.01132,4.38516353,
0.01134,2.856327426,0.01134,4.38516353,
0.01136,3.587188014,0.01136,4.750593824,
0.01138,4.318048602,0.01138,4.38516353,
0.0114,3.587188014,0.0114,2.923442353,
0.01142,3.952618308,0.01142,4.38516353,
0.01144,3.587188014,0.01144,4.750593824,
0.01146,3.587188014,0.01146,4.019733236,
0.01148,2.490897131,0.01148,4.38516353,
0.0115,0.6637456605,0.0115,5.481454413,
0.01152,3.952618308,0.01152,4.38516353,
0.01154,2.856327426,0.01154,5.116024118,
0.01156,2.490897131,0.01156,4.38516353,
0.01158,1.760036543,0.01158,4.38516353,
0.0116,1.760036543,0.0116,4.38516353,
0.01162,-0.06711492783,0.01162,4.750593824,
0.01164,1.029175955,0.01164,4.019733236,
0.01166,1.394606249,0.01166,4.750593824,
0.01168,-1.16340581,0.01168,4.38516353,
0.0117,-0.432545222,0.0117,4.019733236,
0.01172,1.029175955,0.01172,4.750593824,
0.01174,-2.625126987,0.01174,4.750593824,
0.01176,-2.259696693,0.01176,4.38516353,
0.01178,-2.625126987,0.01178,4.750593824,
0.0118,-2.625126987,0.0118,3.654302942,
0.01182,-2.625126987,0.01182,4.38516353,
0.01184,-3.355987575,0.01184,5.116024118,
0.01186,-4.086848164,0.01186,4.750593824,
0.01188,-2.990557281,0.01188,4.38516353,
0.0119,-3.72141787,0.0119,4.019733236,
0.01192,-3.355987575,0.01192,4.38516353,
0.01194,-2.625126987,0.01194,2.923442353,
0.01196,-2.990557281,0.01196,4.750593824,
0.01198,-4.086848164,0.01198,4.019733236,
0.012,-1.528836105,0.012,4.38516353,
0.01202,-1.16340581,0.01202,4.750593824,
0.01204,-1.528836105,0.01204,4.750593824,
0.01206,-1.528836105,0.01206,4.38516353,
0.01208,-0.7979755162,0.01208,4.38516353,
0.0121,-0.06711492783,0.0121,5.116024118,
0.01212,-0.7979755162,0.01212,4.38516353,
0.01214,0.2983153663,0.01214,4.38516353,
0.01216,0.2983153663,0.01216,4.750593824,
0.01218,1.760036543,0.01218,4.750593824,
0.0122,2.125466837,0.0122,5.116024118,
0.01222,1.760036543,0.01222,4.750593824,
0.01224,3.587188014,0.01224,4.38516353,
0.01226,5.048909191,0.01226,4.019733236,
0.01228,2.490897131,0.01228,4.38516353,
0.0123,2.856327426,0.0123,4.019733236,
0.01232,2.856327426,0.01232,4.750593824,
0.01234,1.394606249,0.01234,4.750593824,
0.01236,4.318048602,0.01236,4.38516353,
0.01238,3.587188014,0.01238,4.750593824,
0.0124,2.490897131,0.0124,4.019733236,
0.01242,3.22175772,0.01242,4.019733236,
0.01244,3.587188014,0.01244,4.750593824,
0.01246,2.125466837,0.01246,4.38516353,
0.01248,1.029175955,0.01248,4.019733236,
0.0125,2.125466837,0.0125,4.750593824,
0.01252,1.760036543,0.01252,4.38516353,
0.01254,0.2983153663,0.01254,4.38516353,
0.01256,0.6637456605,0.01256,4.750593824,
0.01258,0.2983153663,0.01258,4.750593824,
0.0126,-1.16340581,0.0126,4.38516353,
0.01262,0.6637456605,0.01262,4.38516353,
0.01264,-1.528836105,0.01264,4.750593824,
0.01266,-1.16340581,0.01266,4.38516353,
0.01268,-1.16340581,0.01268,4.750593824,
0.0127,-2.625126987,0.0127,4.019733236,
0.01272,-2.990557281,0.01272,4.38516353,
0.01274,-2.990557281,0.01274,4.750593824,
0.01276,-2.259696693,0.01276,4.38516353,
0.01278,-2.259696693,0.01278,4.019733236,
0.0128,-3.355987575,0.0128,4.019733236,
0.01282,-5.183139046,0.01282,4.750593824,
0.01284,-3.72141787,0.01284,4.750593824,
0.01286,-3.72141787,0.01286,4.750593824,
0.01288,-4.086848164,0.01288,4.38516353,
0.0129,-3.72141787,0.0129,4.750593824,
0.01292,-2.625126987,0.01292,4.750593824,
0.01294,-3.72141787,0.01294,4.38516353,
0.01296,-3.355987575,0.01296,4.019733236,
0.01298,-1.894266399,0.01298,4.750593824,
0.013,-2.625126987,0.013,4.38516353,
0.01302,-1.16340581,0.01302,4.38516353,
0.01304,0.2983153663,0.01304,4.750593824,
0.01306,-1.894266399,0.01306,4.38516353,
0.01308,1.029175955,0.01308,4.38516353,
0.0131,1.760036543,0.0131,4.750593824,
0.01312,0.6637456605,0.01312,4.38516353,
0.01314,1.394606249,0.01314,4.38516353,
0.01316,1.394606249,0.01316,4.750593824,
0.01318,2.125466837,0.01318,4.38516353,
0.0132,3.22175772,0.0132,4.38516353,
0.01322,3.587188014,0.01322,4.750593824,
0.01324,3.22175772,0.01324,4.019733236,
0.01326,3.952618308,0.01326,3.654302942,
0.01328,3.22175772,0.01328,4.750593824,
0.0133,3.952618308,0.0133,4.019733236,
0.01332,2.856327426,0.01332,4.38516353,
0.01334,3.22175772,0.01334,4.019733236,
0.01336,3.22175772,0.01336,4.38516353,
0.01338,2.490897131,0.01338,4.019733236,
0.0134,3.952618308,0.0134,3.654302942,
0.01342,2.125466837,0.01342,3.654302942,
0.01344,2.490897131,0.01344,4.38516353,
0.01346,1.760036543,0.01346,3.654302942,
0.01348,1.760036543,0.01348,4.750593824,
0.0135,1.394606249,0.0135,4.750593824,
0.01352,0.6637456605,0.01352,4.019733236,
0.01354,0.2983153663,0.01354,4.750593824,
0.01356,0.2983153663,0.01356,4.38516353,
0.01358,-1.16340581,0.01358,4.019733236,
0.0136,-2.625126987,0.0136,4.38516353,
0.01362,-1.528836105,0.01362,4.38516353,
0.01364,-2.625126987,0.01364,3.654302942,
0.01366,-2.990557281,0.01366,4.38516353,
0.01368,-2.625126987,0.01368,4.38516353,
0.0137,-2.990557281,0.0137,3.654302942,
0.01372,-3.355987575,0.01372,4.38516353,
0.01374,-3.355987575,0.01374,4.38516353,
0.01376,-3.72141787,0.01376,4.019733236,
0.01378,-3.355987575,0.01378,4.38516353,
0.0138,-3.72141787,0.0138,4.38516353,
0.01382,-3.355987575,0.01382,4.750593824,
0.01384,-2.625126987,0.01384,5.116024118,
0.01386,-4.452278458,0.01386,4.019733236,
0.01388,-2.259696693,0.01388,3.654302942,
0.0139,-1.16340581,0.0139,4.019733236,
0.01392,-1.16340581,0.01392,3.654302942,
0.01394,-1.894266399,0.01394,3.654302942,
0.01396,-1.16340581,0.01396,4.019733236,
0.01398,-0.432545222,0.01398,4.38516353,
0.014,-0.432545222,0.014,4.019733236,
0.01402,0.6637456605,0.01402,4.38516353,
0.01404,-0.432545222,0.01404,4.38516353,
0.01406,1.760036543,0.01406,3.654302942,
0.01408,2.125466837,0.01408,4.38516353,
0.0141,0.6637456605,0.0141,4.750593824,
0.01412,4.318048602,0.01412,4.750593824,
0.01414,2.490897131,0.01414,4.38516353,
0.01416,3.22175772,0.01416,4.38516353,
0.01418,4.318048602,0.01418,3.288872648,
0.0142,3.587188014,0.0142,4.38516353,
0.01422,3.952618308,0.01422,4.019733236,
0.01424,2.125466837,0.01424,4.38516353,
0.01426,3.22175772,0.01426,4.750593824,
0.01428,3.952618308,0.01428,5.116024118,
0.0143,4.683478896,0.0143,3.654302942,
0.01432,1.029175955,0.01432,4.38516353,
0.01434,1.760036543,0.01434,4.019733236,
0.01436,2.490897131,0.01436,4.38516353,
0.01438,2.856327426,0.01438,4.38516353,
0.0144,1.394606249,0.0144,4.38516353,
0.01442,0.6637456605,0.01442,5.481454413,
0.01444,0.2983153663,0.01444,4.750593824,
0.01446,-0.432545222,0.01446,4.38516353,
0.01448,-1.16340581,0.01448,4.38516353,
0.0145,-0.06711492783,0.0145,4.019733236,
0.01452,-1.16340581,0.01452,5.116024118,
0.01454,-1.528836105,0.01454,4.38516353,
0.01456,-2.990557281,0.01456,4.019733236,
0.01458,-2.259696693,0.01458,4.38516353,
0.0146,-2.625126987,0.0146,4.750593824,
0.01462,-3.72141787,0.01462,3.288872648,
0.01464,-3.355987575,0.01464,4.750593824,
0.01466,-4.086848164,0.01466,4.750593824,
0.01468,-3.72141787,0.01468,4.38516353,
0.0147,-2.990557281,0.0147,4.38516353,
0.01472,-3.355987575,0.01472,4.019733236,
0.01474,-4.452278458,0.01474,4.38516353,
0.01476,-2.990557281,0.01476,4.38516353,
0.01478,-1.894266399,0.01478,4.750593824,
0.0148,-2.625126987,0.0148,4.38516353,
0.01482,-1.894266399,0.01482,5.481454413,
0.01484,-2.990557281,0.01484,4.38516353,
0.01486,-1.894266399,0.01486,4.38516353,
0.01488,-0.06711492783,0.01488,3.654302942,
0.0149,-0.7979755162,0.0149,4.38516353,
0.01492,-0.432545222,0.01492,3.288872648,
0.01494,-1.528836105,0.01494,3.654302942,
0.01496,1.029175955,0.01496,4.750593824,
0.01498,0.6637456605,0.01498,4.38516353,
0.015,2.125466837,0.015,4.38516353,
0.01502,2.856327426,0.01502,4.38516353,
0.01504,0.6637456605,0.01504,4.750593824,
0.01506,2.125466837,0.01506,4.38516353,
0.01508,3.22175772,0.01508,4.750593824,
0.0151,3.22175772,0.0151,4.750593824,
0.01512,2.856327426,0.01512,4.750593824,
0.01514,3.22175772,0.01514,4.750593824,
0.01516,3.22175772,0.01516,4.38516353,
0.01518,3.952618308,0.01518,4.38516353,
0.0152,2.490897131,0.0152,4.38516353,
0.01522,2.490897131,0.01522,4.38516353,
0.01524,5.779769779,0.01524,4.38516353,
0.01526,2.125466837,0.01526,4.750593824,
0.01528,1.394606249,0.01528,4.38516353,
0.0153,1.029175955,0.0153,4.019733236,
0.01532,0.6637456605,0.01532,4.019733236,
0.01534,1.029175955,0.01534,4.38516353,
0.01536,1.029175955,0.01536,4.38516353,
0.01538,0.2983153663,0.01538,4.38516353,
0.0154,-1.16340581,0.0154,4.38516353,
0.01542,-0.7979755162,0.01542,4.750593824,
0.01544,-4.086848164,0.01544,4.750593824,
0.01546,-1.16340581,0.01546,4.019733236,
0.01548,-1.894266399,0.01548,4.019733236,
0.0155,-2.625126987,0.0155,4.750593824,
0.01552,-3.355987575,0.01552,4.38516353,
0.01554,-1.894266399,0.01554,3.654302942,
0.01556,-4.086848164,0.01556,4.38516353,
0.01558,0.6637456605,0.01558,4.019733236,
0.0156,-3.355987575,0.0156,4.38516353,
0.01562,-3.355987575,0.01562,4.38516353,
0.01564,-4.817708752,0.01564,4.38516353,
0.01566,-3.72141787,0.01566,4.38516353,
0.01568,-2.990557281,0.01568,4.750593824,
0.0157,-3.72141787,0.0157,4.38516353,
0.01572,-2.259696693,0.01572,4.019733236,
0.01574,-1.528836105,0.01574,4.750593824,
0.01576,-1.528836105,0.01576,4.750593824,
0.01578,-1.894266399,0.01578,4.38516353,
0.0158,-1.528836105,0.0158,4.750593824,
0.01582,-4.452278458,0.01582,4.38516353,
0.01584,1.394606249,0.01584,4.38516353,
0.01586,0.2983153663,0.01586,4.750593824,
0.01588,-0.06711492783,0.01588,4.750593824,
0.0159,2.856327426,0.0159,4.38516353,
0.01592,1.760036543,0.01592,4.750593824,
0.01594,0.6637456605,0.01594,4.750593824,
0.01596,2.125466837,0.01596,4.019733236,
0.01598,2.856327426,0.01598,4.750593824,
0.016,1.394606249,0.016,4.38516353,
0.01602,2.490897131,0.01602,4.38516353,
0.01604,2.856327426,0.01604,4.750593824,
0.01606,2.856327426,0.01606,4.38516353,
0.01608,3.952618308,0.01608,4.019733236,
0.0161,3.952618308,0.0161,4.750593824,
0.01612,3.22175772,0.01612,4.38516353,
0.01614,5.048909191,0.01614,4.38516353,
0.01616,3.587188014,0.01616,4.750593824,
0.01618,3.22175772,0.01618,4.019733236,
0.0162,2.490897131,0.0162,4.38516353,
0.01622,2.856327426,0.01622,4.38516353,
0.01624,1.760036543,0.01624,4.019733236,
0.01626,1.394606249,0.01626,4.38516353,
0.01628,1.029175955,0.01628,4.38516353,
0.0163,1.394606249,0.0163,3.654302942,
0.01632,1.029175955,0.01632,4.750593824,
0.01634,-0.06711492783,0.01634,4.38516353,
0.01636,0.2983153663,0.01636,3.654302942,
0.01638,-1.16340581,0.01638,4.38516353,
0.0164,-1.528836105,0.0164,4.750593824,
0.01642,-0.7979755162,0.01642,4.019733236,
0.01644,-2.990557281,0.01644,4.019733236,
0.01646,-2.259696693,0.01646,4.38516353,
0.01648,-2.259696693,0.01648,3.654302942,
0.0165,-2.625126987,0.0165,4.38516353,
0.01652,-3.355987575,0.01652,4.750593824,
0.01654,-3.355987575,0.01654,4.019733236,
0.01656,-3.355987575,0.01656,4.38516353,
0.01658,-2.990557281,0.01658,4.38516353,
0.0166,-3.355987575,0.0166,4.019733236,
0.01662,-2.990557281,0.01662,4.38516353,
0.01664,-1.16340581,0.01664,4.019733236,
0.01666,-2.990557281,0.01666,3.654302942,
0.01668,-2.259696693,0.01668,4.38516353,
0.0167,-1.528836105,0.0167,4.019733236,
0.01672,-1.894266399,0.01672,3.654302942,
0.01674,-2.259696693,0.01674,4.38516353,
0.01676,-0.432545222,0.01676,4.019733236,
0.01678,-0.7979755162,0.01678,4.019733236,
0.0168,0.2983153663,0.0168,4.38516353,
0.01682,1.394606249,0.01682,4.38516353,
0.01684,1.394606249,0.01684,4.019733236,
0.01686,0.6637456605,0.01686,4.019733236,
0.01688,3.22175772,0.01688,4.38516353,
0.0169,2.125466837,0.0169,4.019733236,
0.01692,3.22175772,0.01692,4.38516353,
0.01694,2.490897131,0.01694,4.38516353,
0.01696,3.22175772,0.01696,4.019733236,
0.01698,6.145200073,0.01698,4.019733236,
0.017,5.414339485,0.017,4.38516353,
0.01702,7.60692125,0.01702,4.019733236,
0.01704,4.683478896,0.01704,4.38516353,
0.01706,2.490897131,0.01706,4.019733236,
0.01708,3.952618308,0.01708,4.38516353,
0.0171,3.22175772,0.0171,4.750593824,
0.01712,2.125466837,0.01712,4.019733236,
0.01714,3.22175772,0.01714,4.019733236,
0.01716,2.856327426,0.01716,4.019733236,
0.01718,4.318048602,0.01718,4.38516353,
0.0172,-0.06711492783,0.0172,3.654302942,
0.01722,0.6637456605,0.01722,4.38516353,
0.01724,1.394606249,0.01724,3.654302942,
0.01726,-0.7979755162,0.01726,3.654302942,
0.01728,-1.16340581,0.01728,4.38516353,
0.0173,-0.7979755162,0.0173,4.38516353,
0.01732,0.2983153663,0.01732,4.019733236,
0.01734,-2.259696693,0.01734,4.38516353,
0.01736,-1.528836105,0.01736,4.019733236,
0.01738,-2.990557281,0.01738,4.019733236,
0.0174,-2.990557281,0.0174,4.38516353,
0.01742,-2.625126987,0.01742,4.38516353,
0.01744,-4.817708752,0.01744,3.654302942,
0.01746,-2.625126987,0.01746,4.38516353,
0.01748,-4.817708752,0.01748,4.38516353,
0.0175,-3.355987575,0.0175,4.019733236,
0.01752,-4.086848164,0.01752,4.38516353,
0.01754,-2.259696693,0.01754,4.38516353,
0.01756,-2.990557281,0.01756,4.019733236,
0.01758,-2.990557281,0.01758,4.38516353,
0.0176,-2.259696693,0.0176,4.38516353,
0.01762,-2.990557281,0.01762,3.654302942,
0.01764,-1.16340581,0.01764,5.116024118,
0.01766,-1.16340581,0.01766,4.38516353,
0.01768,-1.528836105,0.01768,4.019733236,
0.0177,-1.16340581,0.0177,4.750593824,
0.01772,0.2983153663,0.01772,4.38516353,
0.01774,-0.06711492783,0.01774,2.192581765,
0.01776,1.760036543,0.01776,4.38516353,
0.01778,1.394606249,0.01778,4.019733236,
0.0178,0.6637456605,0.0178,4.019733236,
0.01782,1.760036543,0.01782,4.38516353,
0.01784,2.490897131,0.01784,2.923442353,
0.01786,3.22175772,0.01786,4.019733236,
0.01788,3.22175772,0.01788,4.38516353,
0.0179,3.952618308,0.0179,4.019733236,
0.01792,3.22175772,0.01792,3.288872648,
0.01794,3.22175772,0.01794,5.481454413,
0.01796,3.952618308,0.01796,4.38516353,
0.01798,2.856327426,0.01798,4.019733236,
0.018,4.318048602,0.018,4.38516353,
0.01802,5.048909191,0.01802,4.019733236,
0.01804,3.952618308,0.01804,5.116024118,
0.01806,2.125466837,0.01806,4.38516353,
0.01808,2.490897131,0.01808,4.019733236,
0.0181,1.394606249,0.0181,4.019733236,
0.01812,1.394606249,0.01812,4.38516353,
0.01814,1.394606249,0.01814,2.923442353,
0.01816,-0.06711492783,0.01816,4.750593824,
0.01818,-0.432545222,0.01818,4.019733236,
0.0182,-0.06711492783,0.0182,4.019733236,
0.01822,-0.7979755162,0.01822,4.750593824,
0.01824,-1.528836105,0.01824,3.654302942,
0.01826,-1.16340581,0.01826,4.019733236,
0.01828,-5.54856934,0.01828,4.38516353,
0.0183,-2.990557281,0.0183,4.019733236,
0.01832,-1.894266399,0.01832,4.38516353,
0.01834,-2.259696693,0.01834,4.750593824,
0.01836,-2.625126987,0.01836,5.846884707,
0.01838,-3.355987575,0.01838,4.019733236,
0.0184,-2.990557281,0.0184,4.750593824,
0.01842,-4.086848164,0.01842,4.38516353,
0.01844,-3.355987575,0.01844,5.481454413,
0.01846,-5.54856934,0.01846,4.750593824,
0.01848,-3.72141787,0.01848,4.019733236,
0.0185,-4.086848164,0.0185,3.654302942,
0.01852,-4.086848164,0.01852,4.750593824,
0.01854,-3.72141787,0.01854,5.116024118,
0.01856,-2.625126987,0.01856,3.654302942,
0.01858,-4.452278458,0.01858,4.750593824,
0.0186,-0.7979755162,0.0186,4.019733236,
0.01862,-1.16340581,0.01862,3.654302942,
0.01864,-0.06711492783,0.01864,4.019733236,
0.01866,-1.16340581,0.01866,4.019733236,
0.01868,0.2983153663,0.01868,4.019733236,
0.0187,1.029175955,0.0187,4.750593824,
0.01872,1.029175955,0.01872,4.38516353,
0.01874,1.394606249,0.01874,3.288872648,
0.01876,2.856327426,0.01876,4.38516353,
0.01878,1.029175955,0.01878,4.38516353,
0.0188,2.856327426,0.0188,4.019733236,
0.01882,4.318048602,0.01882,4.750593824,
0.01884,2.856327426,0.01884,4.750593824,
0.01886,3.952618308,0.01886,4.019733236,
0.01888,2.856327426,0.01888,5.116024118,
0.0189,2.490897131,0.0189,4.019733236,
0.01892,3.22175772,0.01892,4.38516353,
0.01894,3.952618308,0.01894,5.481454413,
0.01896,2.125466837,0.01896,4.019733236,
0.01898,3.22175772,0.01898,4.38516353,
0.019,2.856327426,0.019,4.750593824,
0.01902,2.125466837,0.01902,4.38516353,
0.01904,3.22175772,0.01904,2.923442353,
0.01906,2.490897131,0.01906,4.750593824,
0.01908,0.6637456605,0.01908,4.750593824,
0.0191,-1.894266399,0.0191,4.019733236,
0.01912,0.2983153663,0.01912,4.750593824,
0.01914,-0.432545222,0.01914,5.116024118,
0.01916,-0.06711492783,0.01916,4.38516353,
0.01918,-2.625126987,0.01918,4.750593824,
0.0192,-0.432545222,0.0192,4.38516353,
0.01922,-1.894266399,0.01922,3.654302942,
0.01924,-2.625126987,0.01924,4.38516353,
0.01926,-3.355987575,0.01926,4.38516353,
0.01928,-1.16340581,0.01928,4.019733236,
0.0193,-3.355987575,0.0193,4.019733236,
0.01932,-3.355987575,0.01932,4.38516353,
0.01934,-3.355987575,0.01934,4.38516353,
0.01936,-3.72141787,0.01936,4.38516353,
0.01938,-3.72141787,0.01938,4.38516353,
0.0194,-3.72141787,0.0194,4.019733236,
0.01942,-2.990557281,0.01942,4.38516353,
0.01944,-2.625126987,0.01944,4.019733236,
0.01946,-4.086848164,0.01946,4.38516353,
0.01948,-0.06711492783,0.01948,4.019733236,
0.0195,-2.259696693,0.0195,4.019733236,
0.01952,-2.625126987,0.01952,4.019733236,
0.01954,-0.432545222,0.01954,4.019733236,
0.01956,-0.7979755162,0.01956,4.750593824,
0.01958,-0.432545222,0.01958,4.38516353,
0.0196,-1.528836105,0.0196,5.481454413,
0.01962,0.2983153663,0.01962,4.38516353,
0.01964,1.394606249,0.01964,3.654302942,
0.01966,0.6637456605,0.01966,4.750593824,
0.01968,2.125466837,0.01968,4.750593824,
0.0197,2.856327426,0.0197,4.38516353,
0.01972,3.952618308,0.01972,4.019733236,
0.01974,1.760036543,0.01974,4.750593824,
0.01976,2.490897131,0.01976,4.019733236,
0.01978,3.22175772,0.01978,4.38516353,
0.0198,3.22175772,0.0198,5.116024118,
0.01982,4.683478896,0.01982,4.38516353,
0.01984,3.952618308,0.01984,4.750593824,
0.01986,2.856327426,0.01986,4.38516353,
0.01988,3.587188014,0.01988,4.38516353,
0.0199,3.952618308,0.0199,4.750593824,
0.01992,3.952618308,0.01992,4.38516353,
0.01994,2.856327426,0.01994,4.019733236,
0.01996,2.125466837,0.01996,4.019733236,
0.01998,-0.06711492783,0.01998,4.38516353,
0.02,1.394606249,0.02,4.38516353,
0.02002,0.2983153663,0.02002,4.38516353,
0.02004,0.2983153663,0.02004,4.38516353,
0.02006,0.2983153663,0.02006,4.38516353,
0.02008,-0.06711492783,0.02008,4.750593824,
0.0201,-1.528836105,0.0201,4.750593824,
0.02012,-1.16340581,0.02012,4.38516353,
0.02014,-1.528836105,0.02014,4.38516353,
0.02016,-0.432545222,0.02016,4.750593824,
0.02018,-1.894266399,0.02018,4.750593824,
0.0202,-4.452278458,0.0202,4.38516353,
0.02022,-2.625126987,0.02022,4.38516353,
0.02024,-3.355987575,0.02024,4.750593824,
0.02026,-2.990557281,0.02026,4.38516353,
0.02028,-2.625126987,0.02028,4.750593824,
0.0203,-1.894266399,0.0203,4.750593824,
0.02032,-4.086848164,0.02032,4.38516353,
0.02034,-3.72141787,0.02034,5.116024118,
0.02036,-2.625126987,0.02036,4.38516353,
0.02038,-1.894266399,0.02038,4.019733236,
0.0204,-2.625126987,0.0204,4.750593824,
0.02042,-3.355987575,0.02042,4.750593824,
0.02044,-1.16340581,0.02044,4.38516353,
0.02046,-1.16340581,0.02046,4.750593824,
0.02048,-1.16340581,0.02048,4.38516353,
0.0205,-1.16340581,0.0205,4.38516353,
0.02052,-0.06711492783,0.02052,4.750593824,
0.02054,2.856327426,0.02054,4.38516353,
0.02056,1.394606249,0.02056,4.750593824,
0.02058,1.394606249,0.02058,4.38516353,
0.0206,-0.06711492783,0.0206,4.750593824,
0.02062,2.125466837,0.02062,4.750593824,
0.02064,3.587188014,0.02064,4.750593824,
0.02066,2.856327426,0.02066,4.38516353,
0.02068,1.760036543,0.02068,4.750593824,
0.0207,3.22175772,0.0207,4.38516353,
0.02072,2.125466837,0.02072,4.019733236,
0.02074,3.952618308,0.02074,4.750593824,
0.02076,5.048909191,0.02076,4.750593824,
0.02078,2.856327426,0.02078,4.750593824,
0.0208,3.952618308,0.0208,4.750593824,
0.02082,3.952618308,0.02082,4.750593824,
0.02084,3.952618308,0.02084,4.750593824,
0.02086,2.856327426,0.02086,4.38516353,
0.02088,2.856327426,0.02088,4.019733236,
0.0209,1.760036543,0.0209,4.750593824,
0.02092,1.029175955,0.02092,4.750593824,
0.02094,0.6637456605,0.02094,4.38516353,
0.02096,3.952618308,0.02096,4.38516353,
0.02098,0.2983153663,0.02098,4.750593824,
0.021,-0.06711492783,0.021,4.38516353,
0.02102,-1.528836105,0.02102,4.019733236,
0.02104,-0.7979755162,0.02104,4.750593824,
0.02106,-3.355987575,0.02106,4.019733236,
0.02108,-2.990557281,0.02108,4.019733236,
0.0211,-2.259696693,0.0211,4.750593824,
0.02112,-3.355987575,0.02112,4.019733236,
0.02114,-2.990557281,0.02114,4.019733236,
0.02116,-2.990557281,0.02116,5.116024118,
0.02118,-2.990557281,0.02118,5.116024118,
0.0212,-2.625126987,0.0212,4.019733236,
0.02122,-3.72141787,0.02122,4.750593824,
0.02124,-4.452278458,0.02124,4.38516353,
0.02126,-3.355987575,0.02126,4.38516353,
0.02128,-4.086848164,0.02128,4.750593824,
0.0213,-2.990557281,0.0213,4.019733236,
0.02132,-2.990557281,0.02132,3.654302942,
0.02134,-2.625126987,0.02134,4.38516353,
0.02136,-2.625126987,0.02136,4.019733236,
0.02138,-0.06711492783,0.02138,4.019733236,
0.0214,-1.16340581,0.0214,4.750593824,
0.02142,-1.528836105,0.02142,4.38516353,
0.02144,-1.16340581,0.02144,4.38516353,
0.02146,-1.16340581,0.02146,4.38516353,
0.02148,-0.06711492783,0.02148,4.38516353,
0.0215,0.2983153663,0.0215,4.019733236,
0.02152,1.760036543,0.02152,5.116024118,
0.02154,2.125466837,0.02154,4.750593824,
0.02156,1.029175955,0.02156,4.750593824,
0.02158,1.760036543,0.02158,4.750593824,
0.0216,2.490897131,0.0216,4.019733236,
0.02162,3.22175772,0.02162,4.019733236,
0.02164,5.048909191,0.02164,5.116024118,
0.02166,3.952618308,0.02166,4.38516353,
0.02168,3.952618308,0.02168,4.019733236,
0.0217,3.952618308,0.0217,4.38516353,
0.02172,3.952618308,0.02172,4.019733236,
0.02174,3.587188014,0.02174,3.654302942,
0.02176,2.856327426,0.02176,3.288872648,
0.02178,2.125466837,0.02178,4.38516353,
0.0218,2.490897131,0.0218,4.019733236,
0.02182,4.318048602,0.02182,4.38516353,
0.02184,1.394606249,0.02184,4.019733236,
0.02186,1.394606249,0.02186,3.288872648,
0.02188,1.029175955,0.02188,4.38516353,
0.0219,0.2983153663,0.0219,4.38516353,
0.02192,0.2983153663,0.02192,4.38516353,
0.02194,-0.432545222,0.02194,4.750593824,
0.02196,0.6637456605,0.02196,2.923442353,
0.02198,-2.259696693,0.02198,4.019733236,
0.022,-1.528836105,0.022,4.38516353,
0.02202,-3.355987575,0.02202,4.019733236,
0.02204,-3.355987575,0.02204,4.019733236,
0.02206,-3.72141787,0.02206,5.481454413,
0.02208,-3.72141787,0.02208,4.38516353,
0.0221,-2.990557281,0.0221,4.019733236,
0.02212,-3.355987575,0.02212,4.750593824,
0.02214,-4.086848164,0.02214,4.750593824,
0.02216,-2.990557281,0.02216,4.750593824,
0.02218,-4.817708752,0.02218,4.750593824,
0.0222,-3.72141787,0.0222,4.019733236,
0.02222,-1.894266399,0.02222,4.38516353,
0.02224,-3.355987575,0.02224,4.750593824,
0.02226,-2.259696693,0.02226,4.019733236,
0.02228,-1.528836105,0.02228,4.38516353,
0.0223,-1.894266399,0.0223,5.116024118,
0.02232,-1.894266399,0.02232,4.38516353,
0.02234,-0.7979755162,0.02234,4.38516353,
0.02236,1.760036543,0.02236,3.654302942,
0.02238,-0.432545222,0.02238,4.750593824,
0.0224,-0.06711492783,0.0224,4.019733236,
0.02242,-0.06711492783,0.02242,4.750593824,
0.02244,1.029175955,0.02244,4.019733236,
0.02246,0.6637456605,0.02246,4.750593824,
0.02248,1.394606249,0.02248,5.116024118,
0.0225,1.760036543,0.0225,4.38516353,
0.02252,2.490897131,0.02252,3.654302942,
0.02254,2.856327426,0.02254,4.750593824,
0.02256,2.856327426,0.02256,4.38516353,
0.02258,3.22175772,0.02258,4.019733236,
0.0226,4.683478896,0.0226,5.116024118,
0.02262,3.587188014,0.02262,4.019733236,
0.02264,3.587188014,0.02264,4.019733236,
0.02266,3.587188014,0.02266,4.019733236,
0.02268,2.125466837,0.02268,4.019733236,
0.0227,3.587188014,0.0227,4.019733236,
0.02272,2.856327426,0.02272,4.750593824,
0.02274,2.490897131,0.02274,4.38516353,
0.02276,1.760036543,0.02276,3.654302942,
0.02278,-0.06711492783,0.02278,4.750593824,
0.0228,-0.432545222,0.0228,4.019733236,
0.02282,1.029175955,0.02282,4.38516353,
0.02284,0.6637456605,0.02284,5.116024118,
0.02286,-0.432545222,0.02286,5.116024118,
0.02288,-0.7979755162,0.02288,5.116024118,
0.0229,-1.16340581,0.0229,4.750593824,
0.02292,-1.528836105,0.02292,4.750593824,
0.02294,-1.16340581,0.02294,4.38516353,
0.02296,-2.259696693,0.02296,5.481454413,
0.02298,-1.894266399,0.02298,4.019733236,
0.023,-3.72141787,0.023,4.750593824,
0.02302,-2.625126987,0.02302,4.750593824,
0.02304,-3.72141787,0.02304,4.019733236,
0.02306,-2.990557281,0.02306,4.019733236,
0.02308,-1.528836105,0.02308,4.750593824,
0.0231,-3.72141787,0.0231,4.38516353,
0.02312,-3.355987575,0.02312,4.38516353,
0.02314,-0.7979755162,0.02314,5.116024118,
0.02316,-3.355987575,0.02316,3.654302942,
0.02318,-5.54856934,0.02318,4.38516353,
0.0232,-2.625126987,0.0232,4.750593824,
0.02322,-2.990557281,0.02322,4.750593824,
0.02324,-2.259696693,0.02324,4.38516353,
0.02326,-1.528836105,0.02326,4.750593824,
0.02328,-0.432545222,0.02328,4.38516353,
0.0233,-0.432545222,0.0233,4.019733236,
0.02332,0.2983153663,0.02332,4.750593824,
0.02334,-0.432545222,0.02334,4.750593824,
0.02336,1.029175955,0.02336,4.38516353,
0.02338,3.22175772,0.02338,5.116024118,
0.0234,1.760036543,0.0234,4.750593824,
0.02342,1.760036543,0.02342,4.38516353,
0.02344,3.22175772,0.02344,4.750593824,
0.02346,1.394606249,0.02346,4.019733236,
0.02348,2.856327426,0.02348,4.750593824,
0.0235,3.952618308,0.0235,4.750593824,
0.02352,2.856327426,0.02352,4.750593824,
0.02354,3.22175772,0.02354,4.019733236,
0.02356,3.587188014,0.02356,4.38516353,
0.02358,2.490897131,0.02358,4.750593824,
0.0236,3.952618308,0.0236,4.38516353,
0.02362,1.394606249,0.02362,4.38516353,
0.02364,1.760036543,0.02364,4.38516353,
0.02366,2.856327426,0.02366,4.38516353,
0.02368,4.318048602,0.02368,4.750593824,
0.0237,0.6637456605,0.0237,4.38516353,
0.02372,2.125466837,0.02372,4.38516353,
0.02374,2.125466837,0.02374,4.750593824,
0.02376,-0.06711492783,0.02376,4.019733236,
0.02378,1.029175955,0.02378,4.750593824,
0.0238,0.2983153663,0.0238,4.750593824,
0.02382,-1.16340581,0.02382,4.38516353,
0.02384,-1.16340581,0.02384,4.38516353,
0.02386,-1.16340581,0.02386,4.750593824,
0.02388,-4.086848164,0.02388,4.750593824,
0.0239,-1.894266399,0.0239,4.38516353,
0.02392,-1.894266399,0.02392,4.750593824,
0.02394,-2.625126987,0.02394,4.750593824,
0.02396,-4.086848164,0.02396,4.38516353,
0.02398,-3.355987575,0.02398,5.116024118,
0.024,-4.452278458,0.024,4.38516353,
0.02402,-3.355987575,0.02402,4.019733236,
0.02404,-2.990557281,0.02404,4.750593824,
0.02406,-3.72141787,0.02406,4.750593824,
0.02408,-2.625126987,0.02408,4.019733236,
0.0241,-2.990557281,0.0241,4.38516353,
0.02412,-3.72141787,0.02412,4.38516353,
0.02414,-1.894266399,0.02414,4.38516353,
0.02416,-2.259696693,0.02416,4.750593824,
0.02418,-1.16340581,0.02418,4.019733236,
0.0242,-1.528836105,0.0242,4.38516353,
0.02422,-2.259696693,0.02422,4.750593824,
0.02424,-1.894266399,0.02424,4.750593824,
0.02426,-0.7979755162,0.02426,4.019733236,
0.02428,1.760036543,0.02428,4.750593824,
0.0243,1.394606249,0.0243,4.38516353,
0.02432,1.760036543,0.02432,4.019733236,
0.02434,2.856327426,0.02434,4.019733236,
0.02436,2.490897131,0.02436,3.654302942,
0.02438,0.2983153663,0.02438,4.38516353,
0.0244,5.779769779,0.0244,4.38516353,
0.02442,2.856327426,0.02442,4.38516353,
0.02444,4.318048602,0.02444,4.38516353,
0.02446,3.22175772,0.02446,4.750593824,
0.02448,3.952618308,0.02448,4.38516353,
0.0245,4.683478896,0.0245,4.750593824,
0.02452,2.856327426,0.02452,4.019733236,
0.02454,3.587188014,0.02454,4.38516353,
0.02456,3.952618308,0.02456,4.38516353,
0.02458,2.125466837,0.02458,4.38516353,
0.0246,2.856327426,0.0246,4.38516353,
0.02462,2.125466837,0.02462,4.38516353,
0.02464,2.856327426,0.02464,4.019733236,
0.02466,1.760036543,0.02466,5.116024118,
0.02468,0.6637456605,0.02468,4.38516353,
0.0247,1.394606249,0.0247,4.38516353,
0.02472,-0.7979755162,0.02472,4.019733236,
0.02474,1.760036543,0.02474,4.750593824,
0.02476,-1.16340581,0.02476,4.019733236,
0.02478,-1.16340581,0.02478,4.019733236,
0.0248,-1.894266399,0.0248,3.654302942,
0.02482,-1.894266399,0.02482,4.019733236,
0.02484,-2.625126987,0.02484,4.38516353,
0.02486,-2.990557281,0.02486,3.654302942,
0.02488,-1.528836105,0.02488,4.38516353,
0.0249,-3.355987575,0.0249,4.38516353,
0.02492,-3.355987575,0.02492,3.654302942,
0.02494,-2.990557281,0.02494,4.750593824,
0.02496,-2.990557281,0.02496,4.38516353,
0.02498,-2.625126987,0.02498,3.288872648,
0.025,-2.990557281,0.025,3.654302942,
0.02502,-2.990557281,0.02502,4.019733236,
0.02504,-4.086848164,0.02504,3.654302942,
0.02506,1.029175955,0.02506,4.38516353,
0.02508,-1.894266399,0.02508,4.019733236,
0.0251,-1.894266399,0.0251,4.019733236,
0.02512,-0.7979755162,0.02512,4.38516353,
0.02514,-1.16340581,0.02514,4.38516353,
0.02516,-0.7979755162,0.02516,4.019733236,
0.02518,-0.432545222,0.02518,4.38516353,
0.0252,1.029175955,0.0252,4.019733236,
0.02522,0.6637456605,0.02522,3.654302942,
0.02524,1.029175955,0.02524,4.019733236,
0.02526,3.22175772,0.02526,4.38516353,
0.02528,2.856327426,0.02528,3.654302942,
0.0253,3.22175772,0.0253,4.019733236,
0.02532,3.22175772,0.02532,4.38516353,
0.02534,3.22175772,0.02534,3.654302942,
0.02536,6.145200073,0.02536,4.019733236,
0.02538,4.318048602,0.02538,4.750593824,
0.0254,3.587188014,0.0254,4.38516353,
0.02542,3.587188014,0.02542,4.38516353,
0.02544,3.22175772,0.02544,4.38516353,
0.02546,3.22175772,0.02546,4.019733236,
0.02548,3.587188014,0.02548,4.019733236,
0.0255,3.587188014,0.0255,4.38516353,
0.02552,2.125466837,0.02552,4.019733236,
0.02554,3.22175772,0.02554,4.750593824,
0.02556,3.587188014,0.02556,4.019733236,
0.02558,1.394606249,0.02558,3.654302942,
0.0256,3.952618308,0.0256,4.38516353,
0.02562,1.029175955,0.02562,4.38516353,
0.02564,-1.16340581,0.02564,3.654302942,
0.02566,1.029175955,0.02566,4.38516353,
0.02568,0.2983153663,0.02568,3.654302942,
0.0257,-2.990557281,0.0257,4.019733236,
0.02572,-1.16340581,0.02572,4.019733236,
0.02574,-1.16340581,0.02574,3.654302942,
0.02576,-2.259696693,0.02576,4.019733236,
0.02578,-3.72141787,0.02578,5.116024118,
0.0258,-4.086848164,0.0258,4.019733236,
0.02582,-4.452278458,0.02582,3.654302942,
0.02584,-2.990557281,0.02584,4.38516353,
0.02586,-2.990557281,0.02586,4.019733236,
0.02588,-3.72141787,0.02588,4.019733236,
0.0259,-4.086848164,0.0259,4.38516353,
0.02592,-3.355987575,0.02592,4.019733236,
0.02594,-3.72141787,0.02594,4.38516353,
0.02596,-2.625126987,0.02596,4.38516353,
0.02598,-2.990557281,0.02598,3.654302942,
0.026,-1.894266399,0.026,4.019733236,
0.02602,-1.16340581,0.02602,4.019733236,
0.02604,-1.528836105,0.02604,4.019733236,
0.02606,-1.16340581,0.02606,4.019733236,
0.02608,-2.259696693,0.02608,3.288872648,
0.0261,-0.06711492783,0.0261,4.019733236,
0.02612,-0.432545222,0.02612,3.654302942,
0.02614,-0.06711492783,0.02614,4.019733236,
0.02616,1.029175955,0.02616,4.019733236,
0.02618,2.490897131,0.02618,4.750593824,
0.0262,4.318048602,0.0262,4.38516353,
0.02622,2.125466837,0.02622,4.38516353,
0.02624,2.856327426,0.02624,4.019733236,
0.02626,3.22175772,0.02626,4.019733236,
0.02628,3.952618308,0.02628,3.288872648,
0.0263,2.490897131,0.0263,3.654302942,
0.02632,1.760036543,0.02632,4.38516353,
0.02634,4.318048602,0.02634,4.38516353,
0.02636,5.414339485,0.02636,4.019733236,
0.02638,3.952618308,0.02638,2.923442353,
0.0264,5.048909191,0.0264,4.38516353,
0.02642,3.587188014,0.02642,4.019733236,
0.02644,3.22175772,0.02644,4.38516353,
0.02646,1.760036543,0.02646,4.38516353,
0.02648,0.2983153663,0.02648,4.019733236,
0.0265,2.125466837,0.0265,4.750593824,
0.02652,3.22175772,0.02652,4.38516353,
0.02654,0.2983153663,0.02654,4.019733236,
0.02656,2.490897131,0.02656,4.019733236,
0.02658,0.2983153663,0.02658,5.481454413,
0.0266,-1.16340581,0.0266,4.019733236,
0.02662,-0.432545222,0.02662,4.38516353,
0.02664,-2.259696693,0.02664,3.654302942,
0.02666,-2.259696693,0.02666,4.019733236,
0.02668,-1.528836105,0.02668,4.38516353,
0.0267,-0.7979755162,0.0267,4.019733236,
0.02672,-2.990557281,0.02672,4.019733236,
0.02674,-2.990557281,0.02674,4.750593824,
0.02676,-4.452278458,0.02676,4.019733236,
0.02678,-3.355987575,0.02678,3.288872648,
0.0268,-3.355987575,0.0268,4.750593824,
0.02682,-3.72141787,0.02682,4.38516353,
0.02684,-1.528836105,0.02684,4.019733236,
0.02686,-5.183139046,0.02686,4.750593824,
0.02688,-5.183139046,0.02688,5.481454413,
0.0269,-2.625126987,0.0269,4.38516353,
0.02692,-4.452278458,0.02692,4.750593824,
0.02694,-4.086848164,0.02694,4.750593824,
0.02696,-1.894266399,0.02696,4.38516353,
0.02698,-2.625126987,0.02698,5.846884707,
0.027,-2.625126987,0.027,4.019733236,
0.02702,-1.894266399,0.02702,4.019733236,
0.02704,0.2983153663,0.02704,4.750593824,
0.02706,-0.432545222,0.02706,4.750593824,
0.02708,-1.894266399,0.02708,4.019733236,
0.0271,0.2983153663,0.0271,4.750593824,
0.02712,1.394606249,0.02712,4.019733236,
0.02714,0.6637456605,0.02714,4.019733236,
0.02716,2.125466837,0.02716,4.750593824,
0.02718,2.125466837,0.02718,2.923442353,
0.0272,2.490897131,0.0272,4.38516353,
0.02722,3.22175772,0.02722,4.38516353,
0.02724,2.856327426,0.02724,4.38516353,
0.02726,3.952618308,0.02726,4.019733236,
0.02728,3.587188014,0.02728,4.019733236,
0.0273,3.22175772,0.0273,4.019733236,
0.02732,3.587188014,0.02732,4.38516353,
0.02734,3.587188014,0.02734,5.116024118,
0.02736,2.490897131,0.02736,4.38516353,
0.02738,3.22175772,0.02738,4.750593824,
0.0274,6.510630367,0.0274,4.750593824,
0.02742,3.22175772,0.02742,4.38516353,
0.02744,2.125466837,0.02744,4.38516353,
0.02746,2.125466837,0.02746,4.38516353,
0.02748,0.2983153663,0.02748,5.116024118,
0.0275,-0.06711492783,0.0275,4.019733236,
0.02752,-1.16340581,0.02752,4.750593824,
0.02754,-2.625126987,0.02754,4.019733236,
0.02756,-1.16340581,0.02756,4.019733236,
0.02758,-1.16340581,0.02758,4.750593824,
0.0276,-3.72141787,0.0276,4.38516353,
0.02762,-2.625126987,0.02762,4.019733236,
0.02764,-2.625126987,0.02764,4.750593824,
0.02766,-3.355987575,0.02766,4.019733236,
0.02768,-2.990557281,0.02768,3.288872648,
0.0277,-2.625126987,0.0277,4.750593824,
0.02772,-2.990557281,0.02772,4.750593824,
0.02774,-4.086848164,0.02774,4.019733236,
0.02776,-3.72141787,0.02776,4.38516353,
0.02778,-2.625126987,0.02778,3.288872648,
0.0278,-2.990557281,0.0278,4.019733236,
0.02782,-2.990557281,0.02782,5.116024118,
0.02784,-3.72141787,0.02784,4.019733236,
0.02786,-3.72141787,0.02786,4.38516353,
0.02788,-2.625126987,0.02788,5.481454413,
0.0279,-0.432545222,0.0279,4.38516353,
0.02792,-1.528836105,0.02792,4.019733236,
0.02794,-0.7979755162,0.02794,4.750593824,
0.02796,-0.7979755162,0.02796,4.38516353,
0.02798,-0.7979755162,0.02798,4.750593824,
0.028,2.125466837,0.028,4.750593824,
0.02802,1.029175955,0.02802,4.019733236,
0.02804,1.029175955,0.02804,4.019733236,
0.02806,2.125466837,0.02806,4.38516353,
0.02808,1.394606249,0.02808,4.38516353,
0.0281,1.760036543,0.0281,4.019733236,
0.02812,4.318048602,0.02812,4.750593824,
0.02814,2.490897131,0.02814,4.38516353,
0.02816,2.856327426,0.02816,4.38516353,
0.02818,4.683478896,0.02818,4.019733236,
0.0282,3.22175772,0.0282,4.38516353,
0.02822,3.22175772,0.02822,4.019733236,
0.02824,3.587188014,0.02824,4.38516353,
0.02826,1.394606249,0.02826,4.019733236,
0.02828,3.22175772,0.02828,4.019733236,
0.0283,3.587188014,0.0283,4.750593824,
0.02832,3.587188014,0.02832,4.38516353,
0.02834,2.125466837,0.02834,4.019733236,
0.02836,1.029175955,0.02836,4.38516353,
0.02838,-0.432545222,0.02838,4.38516353,
0.0284,1.394606249,0.0284,4.019733236,
0.02842,0.6637456605,0.02842,4.750593824,
0.02844,0.2983153663,0.02844,4.38516353,
0.02846,1.029175955,0.02846,3.654302942,
0.02848,-0.432545222,0.02848,4.38516353,
0.0285,-2.259696693,0.0285,4.38516353,
0.02852,-0.7979755162,0.02852,3.654302942,
0.02854,-1.528836105,0.02854,4.750593824,
0.02856,-2.259696693,0.02856,5.481454413,
0.02858,-2.259696693,0.02858,4.019733236,
0.0286,-3.355987575,0.0286,4.750593824,
0.02862,-3.355987575,0.02862,4.38516353,
0.02864,-2.990557281,0.02864,4.750593824,
0.02866,-3.72141787,0.02866,4.38516353,
0.02868,-4.086848164,0.02868,4.019733236,
0.0287,-4.086848164,0.0287,4.750593824,
0.02872,-5.183139046,0.02872,4.750593824,
0.02874,-3.355987575,0.02874,4.019733236,
0.02876,-2.625126987,0.02876,4.38516353,
0.02878,-2.625126987,0.02878,4.750593824,
0.0288,-1.894266399,0.0288,4.38516353,
0.02882,-2.625126987,0.02882,4.750593824,
0.02884,-1.894266399,0.02884,4.019733236,
0.02886,1.394606249,0.02886,4.38516353,
0.02888,-0.432545222,0.02888,4.750593824,
0.0289,-0.06711492783,0.0289,4.38516353,
0.02892,0.2983153663,0.02892,4.38516353,
0.02894,0.6637456605,0.02894,4.750593824,
0.02896,2.490897131,0.02896,3.654302942,
0.02898,1.394606249,0.02898,4.38516353,
0.029,2.125466837,0.029,4.750593824,
0.02902,5.414339485,0.02902,4.019733236,
0.02904,3.22175772,0.02904,4.019733236,
0.02906,2.856327426,0.02906,4.38516353,
0.02908,2.490897131,0.02908,4.019733236,
0.0291,3.952618308,0.0291,4.38516353,
0.02912,3.587188014,0.02912,4.38516353,
0.02914,3.952618308,0.02914,4.750593824,
0.02916,4.683478896,0.02916,4.019733236,
0.02918,3.587188014,0.02918,4.750593824,
0.0292,3.22175772,0.0292,4.750593824,
0.02922,5.414339485,0.02922,4.38516353,
0.02924,2.856327426,0.02924,4.38516353,
0.02926,3.587188014,0.02926,4.38516353,
0.02928,2.856327426,0.02928,4.38516353,
0.0293,2.856327426,0.0293,5.116024118,
0.02932,1.394606249,0.02932,4.38516353,
0.02934,1.760036543,0.02934,4.38516353,
0.02936,-0.432545222,0.02936,4.38516353,
0.02938,-1.16340581,0.02938,4.750593824,
0.0294,0.2983153663,0.0294,4.38516353,
0.02942,0.2983153663,0.02942,4.750593824,
0.02944,-1.16340581,0.02944,4.750593824,
0.02946,-1.16340581,0.02946,4.750593824,
0.02948,-1.528836105,0.02948,4.750593824,
0.0295,-2.259696693,0.0295,4.38516353,
0.02952,-1.528836105,0.02952,4.38516353,
0.02954,-2.625126987,0.02954,4.750593824,
0.02956,-1.528836105,0.02956,4.019733236,
0.02958,-3.72141787,0.02958,4.38516353,
0.0296,-3.72141787,0.0296,4.019733236,
0.02962,-2.259696693,0.02962,4.38516353,
0.02964,-3.355987575,0.02964,4.750593824,
0.02966,-4.086848164,0.02966,4.38516353,
0.02968,-2.625126987,0.02968,4.38516353,
0.0297,-2.625126987,0.0297,4.019733236,
0.02972,-2.625126987,0.02972,4.38516353,
0.02974,-3.355987575,0.02974,4.750593824,
0.02976,-2.259696693,0.02976,4.38516353,
0.02978,-2.625126987,0.02978,4.019733236,
0.0298,-1.528836105,0.0298,4.750593824,
0.02982,-0.7979755162,0.02982,4.38516353,
0.02984,-0.7979755162,0.02984,4.019733236,
0.02986,0.6637456605,0.02986,4.750593824,
0.02988,0.2983153663,0.02988,4.019733236,
0.0299,1.029175955,0.0299,4.38516353,
0.02992,1.029175955,0.02992,5.116024118,
0.02994,1.760036543,0.02994,4.019733236,
0.02996,2.125466837,0.02996,4.38516353,
0.02998,2.125466837,0.02998,4.750593824,
0.03,1.029175955,0.03,4.019733236,
0.03002,1.760036543,0.03002,3.654302942,
0.03004,3.22175772,0.03004,4.750593824,
0.03006,2.490897131,0.03006,4.38516353,
0.03008,3.952618308,0.03008,4.38516353,
0.0301,2.125466837,0.0301,5.481454413,
0.03012,2.490897131,0.03012,4.019733236,
0.03014,2.490897131,0.03014,4.019733236,
0.03016,1.760036543,0.03016,4.750593824,
0.03018,2.490897131,0.03018,4.38516353,
0.0302,1.029175955,0.0302,4.38516353,
0.03022,2.125466837,0.03022,4.38516353,
0.03024,1.760036543,0.03024,4.019733236,
0.03026,1.394606249,0.03026,4.019733236,
0.03028,3.587188014,0.03028,4.750593824,
0.0303,0.6637456605,0.0303,4.38516353,
0.03032,0.2983153663,0.03032,4.019733236,
0.03034,-1.16340581,0.03034,4.750593824,
0.03036,-1.16340581,0.03036,4.019733236,
0.03038,-1.528836105,0.03038,4.019733236,
0.0304,-2.625126987,0.0304,4.38516353,
0.03042,-4.817708752,0.03042,4.38516353,
0.03044,-3.355987575,0.03044,4.38516353,
0.03046,-3.355987575,0.03046,4.750593824,
0.03048,-3.72141787,0.03048,4.38516353,
0.0305,-3.355987575,0.0305,4.750593824,
0.03052,-2.625126987,0.03052,4.38516353,
0.03054,-2.990557281,0.03054,4.750593824,
0.03056,-4.086848164,0.03056,4.019733236,
0.03058,-1.894266399,0.03058,4.750593824,
0.0306,-3.355987575,0.0306,4.38516353,
0.03062,-4.086848164,0.03062,4.019733236,
0.03064,-3.355987575,0.03064,5.116024118,
0.03066,-3.355987575,0.03066,4.019733236,
0.03068,-1.16340581,0.03068,4.019733236,
0.0307,-2.625126987,0.0307,4.019733236,
0.03072,-1.16340581,0.03072,4.38516353,
0.03074,-5.54856934,0.03074,4.38516353,
0.03076,-0.7979755162,0.03076,4.750593824,
0.03078,-0.06711492783,0.03078,4.019733236,
0.0308,-0.06711492783,0.0308,3.654302942,
0.03082,0.6637456605,0.03082,4.750593824,
0.03084,0.6637456605,0.03084,4.019733236,
0.03086,1.760036543,0.03086,4.38516353,
0.03088,2.856327426,0.03088,4.38516353,
0.0309,2.490897131,0.0309,4.38516353,
0.03092,2.125466837,0.03092,4.38516353,
0.03094,4.318048602,0.03094,4.750593824,
0.03096,3.22175772,0.03096,4.38516353,
0.03098,2.490897131,0.03098,4.38516353,
0.031,2.856327426,0.031,5.481454413,
0.03102,3.22175772,0.03102,4.38516353,
0.03104,3.587188014,0.03104,4.019733236,
0.03106,3.587188014,0.03106,4.750593824,
0.03108,3.22175772,0.03108,4.38516353,
0.0311,2.856327426,0.0311,5.481454413,
0.03112,2.856327426,0.03112,5.116024118,
0.03114,2.856327426,0.03114,4.019733236,
0.03116,2.125466837,0.03116,4.019733236,
0.03118,2.490897131,0.03118,5.116024118,
0.0312,-0.06711492783,0.0312,4.750593824,
0.03122,0.6637456605,0.03122,4.38516353,
0.03124,0.6637456605,0.03124,4.38516353,
0.03126,-0.432545222,0.03126,4.019733236,
0.03128,-1.894266399,0.03128,4.019733236,
0.0313,-1.528836105,0.0313,4.750593824,
0.03132,-2.259696693,0.03132,4.019733236,
0.03134,-2.259696693,0.03134,4.019733236,
0.03136,-4.086848164,0.03136,4.750593824,
0.03138,-1.894266399,0.03138,4.019733236,
0.0314,-2.259696693,0.0314,4.019733236,
0.03142,-4.086848164,0.03142,4.38516353,
0.03144,-3.72141787,0.03144,4.38516353,
0.03146,-4.452278458,0.03146,4.38516353,
0.03148,-3.355987575,0.03148,4.750593824,
0.0315,-1.894266399,0.0315,5.481454413,
0.03152,-6.279429929,0.03152,4.38516353,
0.03154,-2.625126987,0.03154,4.750593824,
0.03156,-3.355987575,0.03156,4.38516353,
0.03158,-2.625126987,0.03158,4.019733236,
0.0316,-1.894266399,0.0316,3.654302942,
0.03162,-2.625126987,0.03162,4.750593824,
0.03164,-0.7979755162,0.03164,4.38516353,
0.03166,-1.528836105,0.03166,4.38516353,
0.03168,-1.528836105,0.03168,4.019733236,
0.0317,0.2983153663,0.0317,3.654302942,
0.03172,-0.06711492783,0.03172,4.750593824,
0.03174,-0.06711492783,0.03174,4.38516353,
0.03176,1.029175955,0.03176,4.019733236,
0.03178,1.394606249,0.03178,4.38516353,
0.0318,1.760036543,0.0318,5.116024118,
0.03182,2.856327426,0.03182,4.38516353,
0.03184,0.6637456605,0.03184,4.750593824,
0.03186,1.029175955,0.03186,4.750593824,
0.03188,3.952618308,0.03188,4.38516353,
0.0319,3.587188014,0.0319,5.116024118,
0.03192,3.587188014,0.03192,4.38516353,
0.03194,5.414339485,0.03194,4.38516353,
0.03196,3.952618308,0.03196,4.750593824,
0.03198,3.952618308,0.03198,4.38516353,
0.032,4.318048602,0.032,4.019733236,
0.03202,3.587188014,0.03202,4.750593824,
0.03204,2.490897131,0.03204,4.38516353,
0.03206,3.22175772,0.03206,3.654302942,
0.03208,2.125466837,0.03208,4.750593824,
0.0321,0.6637456605,0.0321,4.38516353,
0.03212,-0.06711492783,0.03212,4.019733236,
0.03214,1.029175955,0.03214,4.38516353,
0.03216,-0.432545222,0.03216,4.019733236,
0.03218,1.029175955,0.03218,4.019733236,
0.0322,0.6637456605,0.0322,5.116024118,
0.03222,-0.432545222,0.03222,4.750593824,
0.03224,-1.16340581,0.03224,4.019733236,
0.03226,-1.528836105,0.03226,5.116024118,
0.03228,-2.625126987,0.03228,4.38516353,
0.0323,-2.259696693,0.0323,4.019733236,
0.03232,-1.528836105,0.03232,4.38516353,
0.03234,-3.72141787,0.03234,4.38516353,
0.03236,-4.086848164,0.03236,4.019733236,
0.03238,-3.72141787,0.03238,5.116024118,
0.0324,-4.086848164,0.0324,4.750593824,
0.03242,-4.817708752,0.03242,3.654302942,
0.03244,-3.72141787,0.03244,4.38516353,
0.03246,-3.355987575,0.03246,4.38516353,
0.03248,-3.355987575,0.03248,4.38516353,
0.0325,-4.086848164,0.0325,4.750593824,
0.03252,-1.528836105,0.03252,4.38516353,
0.03254,-2.990557281,0.03254,4.019733236,
0.03256,-3.355987575,0.03256,4.38516353,
0.03258,-1.894266399,0.03258,4.750593824,
0.0326,-1.16340581,0.0326,3.654302942,
0.03262,-1.528836105,0.03262,4.750593824,
0.03264,-0.432545222,0.03264,4.019733236,
0.03266,1.394606249,0.03266,4.38516353,
0.03268,0.6637456605,0.03268,4.38516353,
0.0327,1.394606249,0.0327,4.019733236,
0.03272,2.125466837,0.03272,4.38516353,
0.03274,3.22175772,0.03274,4.750593824,
0.03276,1.394606249,0.03276,4.750593824,
0.03278,2.490897131,0.03278,4.019733236,
0.0328,3.22175772,0.0328,5.481454413,
0.03282,5.414339485,0.03282,4.750593824,
0.03284,3.587188014,0.03284,4.019733236,
0.03286,4.683478896,0.03286,4.750593824,
0.03288,2.125466837,0.03288,4.019733236,
0.0329,3.952618308,0.0329,4.019733236,
0.03292,4.683478896,0.03292,4.750593824,
0.03294,3.22175772,0.03294,4.019733236,
0.03296,3.952618308,0.03296,4.019733236,
0.03298,3.22175772,0.03298,4.750593824,
0.033,2.125466837,0.033,4.019733236,
0.03302,1.394606249,0.03302,4.019733236,
0.03304,2.490897131,0.03304,4.38516353,
0.03306,2.125466837,0.03306,4.38516353,
0.03308,1.394606249,0.03308,4.38516353,
0.0331,-1.16340581,0.0331,5.116024118,
0.03312,-2.625126987,0.03312,4.750593824,
0.03314,-0.7979755162,0.03314,4.019733236,
0.03316,-1.16340581,0.03316,4.38516353,
0.03318,-1.894266399,0.03318,4.38516353,
0.0332,-1.528836105,0.0332,4.38516353,
0.03322,-1.528836105,0.03322,4.750593824,
0.03324,-5.183139046,0.03324,4.38516353,
0.03326,-4.086848164,0.03326,4.019733236,
0.03328,-2.259696693,0.03328,4.750593824,
0.0333,-2.990557281,0.0333,3.654302942,
0.03332,-2.625126987,0.03332,4.019733236,
0.03334,-4.086848164,0.03334,3.654302942,
0.03336,-2.259696693,0.03336,4.38516353,
0.03338,-3.72141787,0.03338,4.38516353,
0.0334,-4.452278458,0.0334,3.654302942,
0.03342,-4.086848164,0.03342,4.38516353,
0.03344,-3.72141787,0.03344,4.38516353,
0.03346,-2.625126987,0.03346,4.019733236,
0.03348,-1.894266399,0.03348,4.38516353,
0.0335,-1.894266399,0.0335,4.38516353,
0.03352,-1.894266399,0.03352,3.654302942,
0.03354,0.2983153663,0.03354,4.38516353,
0.03356,-1.528836105,0.03356,4.019733236,
0.03358,-1.16340581,0.03358,4.019733236,
0.0336,0.6637456605,0.0336,4.38516353,
0.03362,1.029175955,0.03362,4.019733236,
0.03364,1.029175955,0.03364,4.019733236,
0.03366,1.760036543,0.03366,4.750593824,
0.03368,2.125466837,0.03368,4.38516353,
0.0337,0.2983153663,0.0337,4.019733236,
0.03372,3.22175772,0.03372,4.019733236,
0.03374,3.587188014,0.03374,4.019733236,
0.03376,3.587188014,0.03376,4.38516353,
0.03378,4.318048602,0.03378,4.019733236,
0.0338,3.952618308,0.0338,4.019733236,
0.03382,2.856327426,0.03382,3.654302942,
0.03384,4.683478896,0.03384,4.38516353,
0.03386,2.856327426,0.03386,4.38516353,
0.03388,3.952618308,0.03388,3.654302942,
0.0339,3.587188014,0.0339,4.38516353,
0.03392,1.760036543,0.03392,4.38516353,
0.03394,1.029175955,0.03394,3.654302942,
0.03396,2.490897131,0.03396,4.38516353,
0.03398,2.125466837,0.03398,4.019733236,
0.034,-0.06711492783,0.034,3.654302942,
0.03402,1.394606249,0.03402,5.116024118,
0.03404,0.6637456605,0.03404,4.38516353,
0.03406,0.2983153663,0.03406,4.019733236,
0.03408,-0.432545222,0.03408,4.750593824,
0.0341,-0.7979755162,0.0341,4.38516353,
0.03412,-0.432545222,0.03412,3.654302942,
0.03414,-1.894266399,0.03414,5.116024118,
0.03416,-1.528836105,0.03416,4.38516353,
0.03418,-2.259696693,0.03418,3.654302942,
0.0342,-2.990557281,0.0342,4.38516353,
0.03422,-1.16340581,0.03422,3.654302942,
0.03424,-3.355987575,0.03424,4.019733236,
0.03426,-3.72141787,0.03426,4.38516353,
0.03428,-3.72141787,0.03428,4.38516353,
0.0343,-3.72141787,0.0343,4.019733236,
0.03432,-5.183139046,0.03432,4.750593824,
0.03434,-3.355987575,0.03434,4.38516353,
0.03436,-3.355987575,0.03436,3.654302942,
0.03438,-2.990557281,0.03438,4.750593824,
0.0344,-2.625126987,0.0344,4.750593824,
0.03442,-2.259696693,0.03442,3.288872648,
0.03444,-2.259696693,0.03444,4.38516353,
0.03446,-0.06711492783,0.03446,4.38516353,
0.03448,-1.894266399,0.03448,4.019733236,
0.0345,-1.16340581,0.0345,4.38516353,
0.03452,1.760036543,0.03452,4.38516353,
0.03454,-0.432545222,0.03454,4.019733236,
0.03456,-0.06711492783,0.03456,4.750593824,
0.03458,2.856327426,0.03458,4.38516353,
0.0346,1.760036543,0.0346,4.38516353,
0.03462,3.22175772,0.03462,5.481454413,
0.03464,2.856327426,0.03464,4.38516353,
0.03466,3.587188014,0.03466,4.38516353,
0.03468,1.394606249,0.03468,4.750593824,
0.0347,4.683478896,0.0347,4.750593824,
0.03472,3.952618308,0.03472,4.38516353,
0.03474,4.318048602,0.03474,4.38516353,
0.03476,3.587188014,0.03476,4.38516353,
0.03478,4.318048602,0.03478,4.38516353,
0.0348,5.048909191,0.0348,4.750593824,
0.03482,0.6637456605,0.03482,2.923442353,
0.03484,2.490897131,0.03484,4.38516353,
0.03486,2.856327426,0.03486,4.38516353,
0.03488,2.856327426,0.03488,4.019733236,
0.0349,2.125466837,0.0349,3.654302942,
0.03492,0.6637456605,0.03492,5.846884707,
0.03494,0.2983153663,0.03494,4.38516353,
0.03496,-0.06711492783,0.03496,5.116024118,
0.03498,0.2983153663,0.03498,4.019733236,
0.035,-2.990557281,0.035,4.019733236,
0.03502,-1.16340581,0.03502,4.019733236,
0.03504,-3.72141787,0.03504,4.38516353,
0.03506,-1.894266399,0.03506,4.38516353,
0.03508,-3.355987575,0.03508,5.116024118,
0.0351,-1.894266399,0.0351,4.019733236,
0.03512,-1.894266399,0.03512,2.923442353,
0.03514,-2.625126987,0.03514,4.750593824,
0.03516,-3.72141787,0.03516,4.019733236,
0.03518,-3.72141787,0.03518,3.654302942,
0.0352,-3.355987575,0.0352,3.654302942,
0.03522,-3.355987575,0.03522,5.846884707,
0.03524,-3.72141787,0.03524,4.750593824,
0.03526,-2.625126987,0.03526,4.38516353,
0.03528,-4.817708752,0.03528,4.38516353,
0.0353,-2.259696693,0.0353,4.750593824,
0.03532,-4.452278458,0.03532,4.019733236,
0.03534,-2.625126987,0.03534,3.654302942,
0.03536,-2.259696693,0.03536,4.38516353,
0.03538,-1.894266399,0.03538,4.38516353,
0.0354,-2.990557281,0.0354,4.019733236,
0.03542,-1.528836105,0.03542,3.288872648,
0.03544,-0.7979755162,0.03544,4.38516353,
0.03546,-0.7979755162,0.03546,4.019733236,
0.03548,3.22175772,0.03548,4.750593824,
0.0355,0.6637456605,0.0355,4.38516353,
0.03552,2.125466837,0.03552,5.116024118,
0.03554,2.490897131,0.03554,4.750593824,
0.03556,1.394606249,0.03556,4.019733236,
0.03558,3.22175772,0.03558,4.38516353,
0.0356,2.856327426,0.0356,4.38516353,
0.03562,3.952618308,0.03562,4.38516353,
0.03564,1.394606249,0.03564,4.38516353,
0.03566,2.490897131,0.03566,4.019733236,
0.03568,3.22175772,0.03568,4.38516353,
0.0357,2.856327426,0.0357,4.38516353,
0.03572,3.587188014,0.03572,3.654302942,
0.03574,3.952618308,0.03574,4.38516353,
0.03576,2.856327426,0.03576,4.019733236,
0.03578,3.22175772,0.03578,4.750593824,
0.0358,1.029175955,0.0358,4.38516353,
0.03582,1.029175955,0.03582,4.750593824,
0.03584,2.125466837,0.03584,4.750593824,
0.03586,-0.06711492783,0.03586,4.38516353,
0.03588,-0.432545222,0.03588,4.019733236,
0.0359,1.029175955,0.0359,4.38516353,
0.03592,-0.06711492783,0.03592,4.750593824,
0.03594,-1.894266399,0.03594,4.019733236,
0.03596,-1.528836105,0.03596,5.116024118,
0.03598,-1.894266399,0.03598,4.38516353,
0.036,-2.259696693,0.036,4.38516353,
0.03602,-1.894266399,0.03602,4.019733236,
0.03604,-2.625126987,0.03604,4.38516353,
0.03606,-2.259696693,0.03606,4.019733236,
0.03608,-4.086848164,0.03608,4.750593824,
0.0361,-3.72141787,0.0361,4.019733236,
0.03612,-4.452278458,0.03612,4.38516353,
0.03614,-3.72141787,0.03614,4.750593824,
0.03616,-4.452278458,0.03616,4.019733236,
0.03618,-3.72141787,0.03618,4.019733236,
0.0362,-4.452278458,0.0362,4.750593824,
0.03622,-3.355987575,0.03622,4.019733236,
0.03624,-2.990557281,0.03624,5.481454413,
0.03626,-1.894266399,0.03626,4.750593824,
0.03628,-2.625126987,0.03628,4.38516353,
0.0363,-2.625126987,0.0363,4.38516353,
0.03632,-0.06711492783,0.03632,5.116024118,
0.03634,-1.16340581,0.03634,4.38516353,
0.03636,-0.7979755162,0.03636,4.019733236,
0.03638,1.029175955,0.03638,4.750593824,
0.0364,-0.7979755162,0.0364,4.38516353,
0.03642,1.029175955,0.03642,4.019733236,
0.03644,2.125466837,0.03644,5.116024118,
0.03646,1.394606249,0.03646,4.38516353,
0.03648,4.318048602,0.03648,4.019733236,
0.0365,3.22175772,0.0365,4.750593824,
0.03652,1.760036543,0.03652,3.654302942,
0.03654,2.490897131,0.03654,4.019733236,
0.03656,2.856327426,0.03656,5.116024118,
0.03658,2.856327426,0.03658,4.019733236,
0.0366,3.22175772,0.0366,4.38516353,
0.03662,3.22175772,0.03662,5.116024118,
0.03664,3.22175772,0.03664,4.38516353,
0.03666,4.318048602,0.03666,4.019733236,
0.03668,3.587188014,0.03668,4.750593824,
0.0367,3.22175772,0.0367,4.38516353,
0.03672,2.490897131,0.03672,4.019733236,
0.03674,2.125466837,0.03674,4.019733236,
0.03676,2.125466837,0.03676,4.019733236,
0.03678,1.760036543,0.03678,4.019733236,
0.0368,1.029175955,0.0368,4.750593824,
0.03682,-0.7979755162,0.03682,4.019733236,
0.03684,-0.06711492783,0.03684,4.019733236,
0.03686,0.2983153663,0.03686,4.38516353,
0.03688,-0.7979755162,0.03688,4.019733236,
0.0369,-1.528836105,0.0369,4.019733236,
0.03692,-0.432545222,0.03692,4.750593824,
0.03694,-3.72141787,0.03694,4.38516353,
0.03696,-1.16340581,0.03696,4.019733236,
0.03698,-3.355987575,0.03698,4.750593824,
0.037,-3.355987575,0.037,4.750593824,
0.03702,-3.72141787,0.03702,4.019733236,
0.03704,-2.990557281,0.03704,5.116024118,
0.03706,-5.183139046,0.03706,4.019733236,
0.03708,-3.355987575,0.03708,4.38516353,
0.0371,-2.990557281,0.0371,4.750593824,
0.03712,-3.72141787,0.03712,4.750593824,
0.03714,-2.625126987,0.03714,4.38516353,
0.03716,-3.355987575,0.03716,4.750593824,
0.03718,-2.625126987,0.03718,4.38516353,
0.0372,-2.625126987,0.0372,4.019733236,
0.03722,-2.259696693,0.03722,4.38516353,
0.03724,-0.7979755162,0.03724,4.750593824,
0.03726,-0.7979755162,0.03726,4.750593824,
0.03728,-0.06711492783,0.03728,4.750593824,
0.0373,-1.528836105,0.0373,4.750593824,
0.03732,0.2983153663,0.03732,4.38516353,
0.03734,1.029175955,0.03734,4.38516353,
0.03736,1.394606249,0.03736,4.750593824,
0.03738,1.394606249,0.03738,4.019733236,
0.0374,-0.432545222,0.0374,4.38516353,
0.03742,1.394606249,0.03742,4.38516353,
0.03744,2.856327426,0.03744,4.38516353,
0.03746,5.414339485,0.03746,4.750593824,
0.03748,2.490897131,0.03748,4.38516353,
0.0375,5.048909191,0.0375,3.654302942,
0.03752,3.22175772,0.03752,4.38516353,
0.03754,3.22175772,0.03754,4.019733236,
0.03756,3.952618308,0.03756,4.750593824,
0.03758,2.856327426,0.03758,4.38516353,
0.0376,2.490897131,0.0376,4.750593824,
0.03762,3.22175772,0.03762,4.019733236,
0.03764,4.683478896,0.03764,4.019733236,
0.03766,2.856327426,0.03766,4.38516353,
0.03768,2.490897131,0.03768,4.750593824,
0.0377,2.125466837,0.0377,4.38516353,
0.03772,1.029175955,0.03772,4.38516353,
0.03774,3.952618308,0.03774,4.750593824,
0.03776,-1.16340581,0.03776,4.750593824,
0.03778,-0.06711492783,0.03778,4.750593824,
0.0378,-0.06711492783,0.0378,4.38516353,
0.03782,-0.06711492783,0.03782,4.750593824,
0.03784,-1.894266399,0.03784,5.116024118,
0.03786,-1.894266399,0.03786,4.38516353,
0.03788,-2.259696693,0.03788,4.38516353,
0.0379,-3.72141787,0.0379,4.750593824,
0.03792,-2.990557281,0.03792,4.38516353,
0.03794,-3.355987575,0.03794,3.654302942,
0.03796,-4.086848164,0.03796,4.38516353,
0.03798,-3.355987575,0.03798,4.38516353,
0.038,-4.086848164,0.038,4.750593824,
0.03802,-3.72141787,0.03802,4.38516353,
0.03804,-5.183139046,0.03804,4.750593824,
0.03806,-3.355987575,0.03806,4.750593824,
0.03808,-3.355987575,0.03808,5.116024118,
0.0381,-2.259696693,0.0381,4.019733236,
0.03812,-2.625126987,0.03812,4.750593824,
0.03814,-2.990557281,0.03814,3.654302942,
0.03816,-3.355987575,0.03816,4.38516353,
0.03818,-1.16340581,0.03818,4.750593824,
0.0382,-0.06711492783,0.0382,4.38516353,
0.03822,-0.06711492783,0.03822,4.38516353,
0.03824,-0.7979755162,0.03824,4.38516353,
0.03826,-0.432545222,0.03826,4.38516353,
0.03828,0.6637456605,0.03828,4.019733236,
0.0383,1.394606249,0.0383,4.750593824,
0.03832,1.760036543,0.03832,4.750593824,
0.03834,5.048909191,0.03834,5.116024118,
0.03836,1.760036543,0.03836,4.019733236,
0.03838,2.490897131,0.03838,4.38516353,
0.0384,3.587188014,0.0384,4.019733236,
0.03842,3.587188014,0.03842,4.38516353,
0.03844,2.856327426,0.03844,5.116024118,
0.03846,4.683478896,0.03846,4.38516353,
0.03848,3.587188014,0.03848,4.750593824,
0.0385,3.22175772,0.0385,4.38516353,
0.03852,3.952618308,0.03852,4.38516353,
0.03854,3.587188014,0.03854,4.750593824,
0.03856,4.318048602,0.03856,4.750593824,
0.03858,2.490897131,0.03858,4.019733236,
0.0386,3.22175772,0.0386,4.38516353,
0.03862,3.952618308,0.03862,4.750593824,
0.03864,1.760036543,0.03864,4.019733236,
0.03866,-0.432545222,0.03866,4.750593824,
0.03868,0.2983153663,0.03868,4.38516353,
0.0387,1.029175955,0.0387,4.019733236,
0.03872,-0.06711492783,0.03872,4.750593824,
0.03874,-0.7979755162,0.03874,5.481454413,
0.03876,-0.06711492783,0.03876,4.38516353,
0.03878,-1.894266399,0.03878,5.116024118,
0.0388,-2.990557281,0.0388,4.38516353,
0.03882,-1.16340581,0.03882,4.38516353,
0.03884,-2.259696693,0.03884,4.750593824,
0.03886,-1.528836105,0.03886,4.38516353,
0.03888,-3.72141787,0.03888,4.019733236,
0.0389,-3.72141787,0.0389,4.750593824,
0.03892,-2.990557281,0.03892,4.38516353,
0.03894,-2.990557281,0.03894,4.019733236,
0.03896,-6.279429929,0.03896,4.750593824,
0.03898,-4.452278458,0.03898,4.750593824,
0.039,-3.355987575,0.039,4.750593824,
0.03902,-2.625126987,0.03902,3.288872648,
0.03904,-2.990557281,0.03904,4.38516353,
0.03906,-0.7979755162,0.03906,4.38516353,
0.03908,-2.259696693,0.03908,4.019733236,
0.0391,-1.16340581,0.0391,4.38516353,
0.03912,-1.16340581,0.03912,4.019733236,
0.03914,-0.432545222,0.03914,3.288872648,
0.03916,0.6637456605,0.03916,4.019733236,
0.03918,1.029175955,0.03918,4.019733236,
0.0392,-0.7979755162,0.0392,3.654302942,
0.03922,1.394606249,0.03922,4.38516353,
0.03924,2.125466837,0.03924,3.654302942,
0.03926,1.029175955,0.03926,3.654302942,
0.03928,2.125466837,0.03928,4.38516353,
0.0393,2.856327426,0.0393,4.019733236,
0.03932,4.318048602,0.03932,3.654302942,
0.03934,3.587188014,0.03934,4.38516353,
0.03936,5.048909191,0.03936,4.750593824,
0.03938,5.414339485,0.03938,3.654302942,
0.0394,4.318048602,0.0394,4.38516353,
0.03942,3.587188014,0.03942,4.019733236,
0.03944,2.490897131,0.03944,4.38516353,
0.03946,4.683478896,0.03946,4.38516353,
0.03948,3.952618308,0.03948,4.750593824,
0.0395,2.490897131,0.0395,3.654302942,
0.03952,3.22175772,0.03952,4.019733236,
0.03954,3.22175772,0.03954,4.38516353,
0.03956,3.952618308,0.03956,4.38516353,
0.03958,3.22175772,0.03958,4.019733236,
0.0396,1.760036543,0.0396,4.38516353,
0.03962,-0.06711492783,0.03962,3.654302942,
0.03964,1.394606249,0.03964,4.019733236,
0.03966,-0.7979755162,0.03966,4.38516353,
0.03968,-1.16340581,0.03968,4.38516353,
0.0397,-0.7979755162,0.0397,3.654302942,
0.03972,-1.16340581,0.03972,4.38516353,
0.03974,-2.625126987,0.03974,4.750593824,
0.03976,-4.817708752,0.03976,4.38516353,
0.03978,-1.894266399,0.03978,4.38516353,
0.0398,-3.355987575,0.0398,4.750593824,
0.03982,-2.625126987,0.03982,4.38516353,
0.03984,-2.990557281,0.03984,4.38516353,
0.03986,-1.894266399,0.03986,4.38516353,
0.03988,-3.355987575,0.03988,4.38516353,
0.0399,-3.355987575,0.0399,4.38516353,
0.03992,-2.990557281,0.03992,4.750593824,
0.03994,-2.990557281,0.03994,4.019733236,
0.03996,-2.990557281,0.03996,4.38516353,
0.03998,-3.355987575,0.03998,4.38516353,
0.04,-2.259696693,0.04,4.019733236,
0.04002,-2.259696693,0.04002,4.019733236,
0.04004,-1.16340581,0.04004,4.750593824,
0.04006,-1.528836105,0.04006,4.019733236,
0.04008,-0.432545222,0.04008,4.38516353,
0.0401,-0.7979755162,0.0401,4.750593824,
0.04012,-1.16340581,0.04012,4.38516353,
0.04014,-0.432545222,0.04014,3.654302942,
0.04016,-0.06711492783,0.04016,5.116024118,
0.04018,1.394606249,0.04018,4.38516353,
0.0402,1.029175955,0.0402,4.019733236,
0.04022,1.760036543,0.04022,4.750593824,
0.04024,0.6637456605,0.04024,4.38516353,
0.04026,2.856327426,0.04026,4.019733236,
0.04028,3.952618308,0.04028,5.116024118,
0.0403,2.856327426,0.0403,4.38516353,
0.04032,3.587188014,0.04032,4.019733236,
0.04034,3.587188014,0.04034,4.750593824,
0.04036,3.587188014,0.04036,4.38516353,
0.04038,3.22175772,0.04038,4.38516353,
0.0404,2.490897131,0.0404,4.750593824,
0.04042,3.587188014,0.04042,4.019733236,
0.04044,2.490897131,0.04044,4.019733236,
0.04046,2.125466837,0.04046,5.116024118,
0.04048,1.760036543,0.04048,4.38516353,
0.0405,1.029175955,0.0405,3.654302942,
0.04052,2.125466837,0.04052,4.750593824,
0.04054,0.2983153663,0.04054,4.38516353,
0.04056,-0.7979755162,0.04056,4.38516353,
0.04058,0.2983153663,0.04058,4.750593824,
0.0406,-1.528836105,0.0406,4.019733236,
0.04062,-1.16340581,0.04062,4.38516353,
0.04064,-1.16340581,0.04064,4.750593824,
0.04066,-3.355987575,0.04066,4.019733236,
0.04068,-3.355987575,0.04068,3.654302942,
0.0407,-1.894266399,0.0407,4.38516353,
0.04072,-3.72141787,0.04072,4.019733236,
0.04074,-3.72141787,0.04074,3.654302942,
0.04076,-3.355987575,0.04076,4.38516353,
0.04078,-3.355987575,0.04078,4.38516353,
0.0408,-3.355987575,0.0408,4.019733236,
0.04082,-3.72141787,0.04082,4.38516353,
0.04084,-4.086848164,0.04084,4.38516353,
0.04086,-2.625126987,0.04086,4.019733236,
0.04088,-2.990557281,0.04088,5.116024118,
0.0409,-2.990557281,0.0409,4.38516353,
0.04092,-2.259696693,0.04092,4.38516353,
0.04094,-2.990557281,0.04094,4.38516353,
0.04096,-1.528836105,0.04096,3.288872648,
0.04098,-1.16340581,0.04098,4.750593824,
0.041,-1.16340581,0.041,4.750593824,
0.04102,-2.259696693,0.04102,4.019733236,
0.04104,0.2983153663,0.04104,4.750593824,
0.04106,-0.06711492783,0.04106,4.750593824,
0.04108,0.2983153663,0.04108,4.019733236,
0.0411,1.029175955,0.0411,4.750593824,
0.04112,0.6637456605,0.04112,4.38516353,
0.04114,2.125466837,0.04114,4.019733236,
0.04116,1.394606249,0.04116,5.116024118,
0.04118,1.760036543,0.04118,4.38516353,
0.0412,2.490897131,0.0412,4.38516353,
0.04122,2.125466837,0.04122,4.750593824,
0.04124,2.490897131,0.04124,4.019733236,
0.04126,3.587188014,0.04126,3.288872648,
0.04128,3.952618308,0.04128,5.116024118,
0.0413,3.22175772,0.0413,4.38516353,
0.04132,3.587188014,0.04132,4.38516353,
0.04134,3.587188014,0.04134,4.750593824,
0.04136,3.952618308,0.04136,3.654302942,
0.04138,2.856327426,0.04138,4.750593824,
0.0414,-0.06711492783,0.0414,4.750593824,
0.04142,1.760036543,0.04142,4.019733236,
0.04144,1.394606249,0.04144,4.019733236,
0.04146,1.760036543,0.04146,5.481454413,
0.04148,0.2983153663,0.04148,4.38516353,
0.0415,-0.432545222,0.0415,4.019733236,
0.04152,0.2983153663,0.04152,4.38516353,
0.04154,-1.528836105,0.04154,4.38516353,
0.04156,-1.16340581,0.04156,2.923442353,
0.04158,-1.528836105,0.04158,4.750593824,
0.0416,-2.259696693,0.0416,4.38516353,
0.04162,-1.894266399,0.04162,4.019733236,
0.04164,-2.990557281,0.04164,4.750593824,
0.04166,-4.086848164,0.04166,2.923442353,
0.04168,-3.72141787,0.04168,4.38516353,
0.0417,-4.817708752,0.0417,4.750593824,
0.04172,-4.086848164,0.04172,4.750593824,
0.04174,-3.72141787,0.04174,4.38516353,
0.04176,-3.72141787,0.04176,4.38516353,
0.04178,-3.355987575,0.04178,4.750593824,
0.0418,-3.355987575,0.0418,4.019733236,
0.04182,-2.625126987,0.04182,4.750593824,
0.04184,-2.625126987,0.04184,4.38516353,
0.04186,-3.72141787,0.04186,6.212315001,
0.04188,-1.528836105,0.04188,4.38516353,
0.0419,-3.355987575,0.0419,4.019733236,
0.04192,-1.894266399,0.04192,4.019733236,
0.04194,-0.06711492783,0.04194,4.750593824,
0.04196,-1.528836105,0.04196,5.846884707,
0.04198,0.2983153663,0.04198,4.38516353,
0.042,0.6637456605,0.042,4.750593824,
0.04202,1.029175955,0.04202,4.38516353,
0.04204,1.029175955,0.04204,4.019733236,
0.04206,2.125466837,0.04206,6.212315001,
0.04208,1.394606249,0.04208,4.019733236,
0.0421,1.760036543,0.0421,4.38516353,
0.04212,2.490897131,0.04212,5.116024118,
0.04214,3.22175772,0.04214,4.38516353,
0.04216,3.952618308,0.04216,2.558012059,
0.04218,3.22175772,0.04218,4.750593824,
0.0422,1.760036543,0.0422,4.38516353,
0.04222,3.22175772,0.04222,3.654302942,
0.04224,3.22175772,0.04224,5.116024118,
0.04226,1.760036543,0.04226,3.654302942,
0.04228,4.318048602,0.04228,4.019733236,
0.0423,3.587188014,0.0423,4.38516353,
0.04232,2.125466837,0.04232,4.019733236,
0.04234,2.125466837,0.04234,4.019733236,
0.04236,1.760036543,0.04236,6.212315001,
0.04238,0.6637456605,0.04238,4.019733236,
0.0424,0.6637456605,0.0424,4.019733236,
0.04242,1.029175955,0.04242,5.116024118,
0.04244,-0.432545222,0.04244,4.38516353,
0.04246,-1.528836105,0.04246,3.654302942,
0.04248,-0.7979755162,0.04248,4.750593824,
0.0425,-4.452278458,0.0425,4.019733236,
0.04252,-1.894266399,0.04252,4.019733236,
0.04254,-2.625126987,0.04254,4.750593824,
0.04256,-3.72141787,0.04256,3.288872648,
0.04258,-2.259696693,0.04258,4.38516353,
0.0426,-3.355987575,0.0426,4.750593824,
0.04262,-3.72141787,0.04262,4.019733236,
0.04264,-3.72141787,0.04264,4.38516353,
0.04266,-2.259696693,0.04266,5.481454413,
0.04268,-4.817708752,0.04268,4.019733236,
0.0427,-4.086848164,0.0427,4.019733236,
0.04272,-4.086848164,0.04272,4.750593824,
0.04274,-4.817708752,0.04274,4.38516353,
0.04276,-2.990557281,0.04276,2.923442353,
0.04278,-2.990557281,0.04278,4.750593824,
0.0428,-2.259696693,0.0428,4.019733236,
0.04282,-2.990557281,0.04282,4.019733236,
0.04284,-1.528836105,0.04284,4.750593824,
0.04286,-1.894266399,0.04286,4.38516353,
0.04288,0.2983153663,0.04288,4.38516353,
0.0429,-1.16340581,0.0429,4.38516353,
0.04292,-0.7979755162,0.04292,4.019733236,
0.04294,0.6637456605,0.04294,4.750593824,
0.04296,1.394606249,0.04296,5.481454413,
0.04298,0.2983153663,0.04298,4.38516353,
0.043,2.856327426,0.043,4.019733236,
0.04302,2.125466837,0.04302,4.750593824,
0.04304,2.490897131,0.04304,4.38516353,
0.04306,2.490897131,0.04306,4.019733236,
0.04308,3.22175772,0.04308,4.750593824,
0.0431,3.587188014,0.0431,4.750593824,
0.04312,4.683478896,0.04312,4.38516353,
0.04314,3.587188014,0.04314,4.38516353,
0.04316,4.318048602,0.04316,4.019733236,
0.04318,5.048909191,0.04318,4.019733236,
0.0432,3.587188014,0.0432,4.38516353,
0.04322,3.22175772,0.04322,4.38516353,
0.04324,3.587188014,0.04324,4.019733236,
0.04326,2.856327426,0.04326,4.750593824,
0.04328,2.490897131,0.04328,4.750593824,
0.0433,2.125466837,0.0433,4.019733236,
0.04332,1.394606249,0.04332,4.38516353,
0.04334,1.029175955,0.04334,4.38516353,
0.04336,-0.432545222,0.04336,3.654302942,
0.04338,-1.16340581,0.04338,4.38516353,
0.0434,-0.7979755162,0.0434,4.38516353,
0.04342,-0.432545222,0.04342,4.38516353,
0.04344,-0.7979755162,0.04344,4.38516353,
0.04346,-2.625126987,0.04346,4.38516353,
0.04348,0.6637456605,0.04348,4.019733236,
0.0435,-0.7979755162,0.0435,5.116024118,
0.04352,-2.990557281,0.04352,4.38516353,
0.04354,-2.625126987,0.04354,4.38516353,
0.04356,-2.990557281,0.04356,4.750593824,
0.04358,-3.72141787,0.04358,4.38516353,
0.0436,-3.355987575,0.0436,4.38516353,
0.04362,-2.625126987,0.04362,4.750593824,
0.04364,-4.086848164,0.04364,4.38516353,
0.04366,-2.990557281,0.04366,4.38516353,
0.04368,-4.817708752,0.04368,4.38516353,
0.0437,-3.72141787,0.0437,4.38516353,
0.04372,-4.817708752,0.04372,4.019733236,
0.04374,-0.7979755162,0.04374,4.750593824,
0.04376,-1.894266399,0.04376,4.019733236,
0.04378,-1.894266399,0.04378,4.019733236,
0.0438,-2.625126987,0.0438,4.750593824,
0.04382,-0.7979755162,0.04382,4.750593824,
0.04384,-0.06711492783,0.04384,4.019733236,
0.04386,0.6637456605,0.04386,4.750593824,
0.04388,1.760036543,0.04388,4.38516353,
0.0439,1.394606249,0.0439,3.654302942,
0.04392,2.125466837,0.04392,4.38516353,
0.04394,1.760036543,0.04394,3.288872648,
0.04396,2.125466837,0.04396,4.38516353,
0.04398,2.856327426,0.04398,5.116024118,
0.044,2.125466837,0.044,4.38516353,
0.04402,2.856327426,0.04402,4.019733236,
0.04404,3.587188014,0.04404,4.38516353,
0.04406,4.318048602,0.04406,4.38516353,
0.04408,3.952618308,0.04408,4.019733236,
0.0441,3.587188014,0.0441,4.750593824,
0.04412,3.587188014,0.04412,4.38516353,
0.04414,3.22175772,0.04414,3.654302942,
0.04416,3.22175772,0.04416,4.750593824,
0.04418,2.856327426,0.04418,4.38516353,
0.0442,2.856327426,0.0442,4.38516353,
0.04422,2.490897131,0.04422,4.750593824,
0.04424,1.394606249,0.04424,4.750593824,
0.04426,0.2983153663,0.04426,4.019733236,
0.04428,1.394606249,0.04428,4.750593824,
0.0443,0.6637456605,0.0443,4.750593824,
0.04432,0.6637456605,0.04432,4.38516353,
0.04434,-0.7979755162,0.04434,4.750593824,
0.04436,-1.16340581,0.04436,4.38516353,
0.04438,-1.894266399,0.04438,4.750593824,
0.0444,-1.528836105,0.0444,4.750593824,
0.04442,-2.625126987,0.04442,4.750593824,
0.04444,-3.72141787,0.04444,4.38516353,
0.04446,-2.990557281,0.04446,4.750593824,
0.04448,-2.259696693,0.04448,4.750593824,
0.0445,-1.894266399,0.0445,4.38516353,
0.04452,-2.625126987,0.04452,4.750593824,
0.04454,-3.72141787,0.04454,4.019733236,
0.04456,-2.990557281,0.04456,4.38516353,
0.04458,-2.990557281,0.04458,4.38516353,
0.0446,-5.183139046,0.0446,4.38516353,
0.04462,-2.625126987,0.04462,4.019733236,
0.04464,-2.990557281,0.04464,4.38516353,
0.04466,-3.355987575,0.04466,4.38516353,
0.04468,-1.894266399,0.04468,4.019733236,
0.0447,-1.528836105,0.0447,4.38516353,
0.04472,0.2983153663,0.04472,4.019733236,
0.04474,-1.528836105,0.04474,4.38516353,
0.04476,-0.432545222,0.04476,4.019733236,
0.04478,0.6637456605,0.04478,4.38516353,
0.0448,1.029175955,0.0448,4.38516353,
0.04482,1.394606249,0.04482,4.750593824,
0.04484,1.394606249,0.04484,4.019733236,
0.04486,1.760036543,0.04486,4.38516353,
0.04488,2.490897131,0.04488,5.116024118,
0.0449,3.22175772,0.0449,4.019733236,
0.04492,3.22175772,0.04492,4.38516353,
0.04494,4.683478896,0.04494,4.38516353,
0.04496,3.587188014,0.04496,4.38516353,
0.04498,2.490897131,0.04498,4.019733236,
0.045,3.587188014,0.045,4.38516353,
0.04502,3.952618308,0.04502,4.750593824,
0.04504,4.318048602,0.04504,4.38516353,
0.04506,4.318048602,0.04506,4.750593824,
0.04508,3.587188014,0.04508,4.38516353,
0.0451,3.952618308,0.0451,4.38516353,
0.04512,5.414339485,0.04512,4.750593824,
0.04514,2.125466837,0.04514,4.750593824,
0.04516,1.760036543,0.04516,4.38516353,
0.04518,1.760036543,0.04518,6.212315001,
0.0452,1.029175955,0.0452,4.750593824,
0.04522,-0.432545222,0.04522,4.019733236,
0.04524,1.029175955,0.04524,4.38516353,
0.04526,1.029175955,0.04526,5.116024118,
0.04528,-3.355987575,0.04528,5.481454413,
0.0453,-1.16340581,0.0453,3.654302942,
0.04532,-1.528836105,0.04532,4.750593824,
0.04534,-1.894266399,0.04534,4.38516353,
0.04536,-1.894266399,0.04536,4.019733236,
0.04538,-2.625126987,0.04538,3.654302942,
0.0454,-4.086848164,0.0454,4.750593824,
0.04542,-2.990557281,0.04542,4.019733236,
0.04544,-3.355987575,0.04544,4.750593824,
0.04546,-3.72141787,0.04546,4.019733236,
0.04548,-2.990557281,0.04548,5.116024118,
0.0455,-3.72141787,0.0455,4.750593824,
0.04552,-3.355987575,0.04552,4.019733236,
0.04554,-3.72141787,0.04554,4.019733236,
0.04556,-2.259696693,0.04556,4.750593824,
0.04558,-2.625126987,0.04558,4.38516353,
0.0456,-2.259696693,0.0456,4.38516353,
0.04562,-1.528836105,0.04562,4.750593824,
0.04564,-2.259696693,0.04564,4.38516353,
0.04566,-2.625126987,0.04566,4.38516353,
0.04568,-0.432545222,0.04568,4.019733236,
0.0457,0.2983153663,0.0457,4.750593824,
0.04572,-1.894266399,0.04572,4.750593824,
0.04574,1.029175955,0.04574,4.38516353,
0.04576,1.029175955,0.04576,4.38516353,
0.04578,1.760036543,0.04578,4.750593824,
0.0458,1.760036543,0.0458,4.38516353,
0.04582,2.125466837,0.04582,4.38516353,
0.04584,3.587188014,0.04584,4.38516353,
0.04586,3.22175772,0.04586,4.750593824,
0.04588,4.318048602,0.04588,5.116024118,
0.0459,4.318048602,0.0459,4.38516353,
0.04592,2.490897131,0.04592,4.38516353,
0.04594,3.587188014,0.04594,4.019733236,
0.04596,3.952618308,0.04596,4.750593824,
0.04598,3.952618308,0.04598,3.654302942,
0.046,2.125466837,0.046,3.654302942,
0.04602,5.414339485,0.04602,4.019733236,
0.04604,2.490897131,0.04604,4.38516353,
0.04606,2.125466837,0.04606,4.019733236,
0.04608,1.394606249,0.04608,4.750593824,
0.0461,-0.06711492783,0.0461,4.38516353,
0.04612,1.394606249,0.04612,4.38516353,
0.04614,3.952618308,0.04614,4.750593824,
0.04616,-0.06711492783,0.04616,4.38516353,
0.04618,-0.432545222,0.04618,5.116024118,
0.0462,5.048909191,0.0462,4.750593824,
0.04622,-1.16340581,0.04622,4.019733236,
0.04624,-0.7979755162,0.04624,4.38516353,
0.04626,-1.528836105,0.04626,4.019733236,
0.04628,-2.625126987,0.04628,3.654302942,
0.0463,-2.625126987,0.0463,4.38516353,
0.04632,-1.894266399,0.04632,4.750593824,
0.04634,-3.72141787,0.04634,4.750593824,
0.04636,-4.086848164,0.04636,4.019733236,
0.04638,-4.086848164,0.04638,4.38516353,
0.0464,-4.817708752,0.0464,4.38516353,
0.04642,-4.086848164,0.04642,4.750593824,
0.04644,-1.528836105,0.04644,4.38516353,
0.04646,-3.355987575,0.04646,4.38516353,
0.04648,-2.625126987,0.04648,4.750593824,
0.0465,-2.625126987,0.0465,4.38516353,
0.04652,-3.72141787,0.04652,4.38516353,
0.04654,-1.894266399,0.04654,4.750593824,
0.04656,-0.432545222,0.04656,4.38516353,
0.04658,-2.990557281,0.04658,4.019733236,
0.0466,-1.528836105,0.0466,4.38516353,
0.04662,1.760036543,0.04662,4.750593824,
0.04664,-2.990557281,0.04664,4.38516353,
0.04666,1.029175955,0.04666,4.38516353,
0.04668,0.6637456605,0.04668,4.38516353,
0.0467,-0.06711492783,0.0467,4.750593824,
0.04672,2.125466837,0.04672,4.750593824,
0.04674,2.490897131,0.04674,5.116024118,
0.04676,2.856327426,0.04676,4.750593824,
0.04678,4.318048602,0.04678,4.019733236,
0.0468,4.683478896,0.0468,4.750593824,
0.04682,3.22175772,0.04682,4.750593824,
0.04684,3.22175772,0.04684,3.654302942,
0.04686,3.952618308,0.04686,4.750593824,
0.04688,1.394606249,0.04688,4.38516353,
0.0469,4.683478896,0.0469,4.019733236,
0.04692,3.952618308,0.04692,4.38516353,
0.04694,2.856327426,0.04694,4.38516353,
0.04696,4.683478896,0.04696,4.38516353,
0.04698,2.856327426,0.04698,4.750593824,
0.047,0.2983153663,0.047,4.38516353,
0.04702,0.2983153663,0.04702,4.38516353,
0.04704,2.125466837,0.04704,4.38516353,
0.04706,0.2983153663,0.04706,4.38516353,
0.04708,1.394606249,0.04708,4.38516353,
0.0471,2.490897131,0.0471,4.750593824,
0.04712,-0.432545222,0.04712,4.38516353,
0.04714,-0.06711492783,0.04714,4.019733236,
0.04716,-1.16340581,0.04716,4.38516353,
0.04718,-3.355987575,0.04718,4.38516353,
0.0472,-1.894266399,0.0472,4.38516353,
0.04722,-2.990557281,0.04722,4.38516353,
0.04724,-3.355987575,0.04724,4.38516353,
0.04726,-3.355987575,0.04726,4.019733236,
0.04728,-2.259696693,0.04728,4.38516353,
0.0473,-4.086848164,0.0473,4.38516353,
0.04732,-3.355987575,0.04732,4.38516353,
0.04734,-4.086848164,0.04734,4.38516353,
0.04736,-4.086848164,0.04736,4.750593824,
0.04738,-1.16340581,0.04738,4.38516353,
0.0474,-3.72141787,0.0474,4.38516353,
0.04742,-1.894266399,0.04742,4.750593824,
0.04744,-1.528836105,0.04744,4.38516353,
0.04746,-2.259696693,0.04746,4.750593824,
0.04748,-1.528836105,0.04748,4.750593824,
0.0475,-1.894266399,0.0475,4.38516353,
0.04752,-1.16340581,0.04752,4.750593824,
0.04754,-2.990557281,0.04754,5.116024118,
0.04756,-1.16340581,0.04756,4.38516353,
0.04758,0.6637456605,0.04758,4.38516353,
0.0476,0.6637456605,0.0476,3.654302942,
0.04762,1.394606249,0.04762,4.019733236,
0.04764,1.394606249,0.04764,4.38516353,
0.04766,1.394606249,0.04766,4.019733236,
0.04768,5.779769779,0.04768,4.38516353,
0.0477,3.952618308,0.0477,4.019733236,
0.04772,1.760036543,0.04772,3.654302942,
0.04774,3.22175772,0.04774,5.116024118,
0.04776,2.490897131,0.04776,4.019733236,
0.04778,3.22175772,0.04778,3.654302942,
0.0478,3.952618308,0.0478,4.38516353,
0.04782,3.952618308,0.04782,4.38516353,
0.04784,3.587188014,0.04784,3.654302942,
0.04786,3.587188014,0.04786,4.019733236,
0.04788,3.587188014,0.04788,4.019733236,
0.0479,1.760036543,0.0479,3.654302942,
0.04792,2.490897131,0.04792,4.38516353,
0.04794,3.587188014,0.04794,4.38516353,
0.04796,1.760036543,0.04796,3.654302942,
0.04798,1.760036543,0.04798,4.019733236,
0.048,-0.432545222,0.048,4.019733236,
0.04802,-1.16340581,0.04802,3.654302942,
0.04804,1.029175955,0.04804,4.38516353,
0.04806,-0.432545222,0.04806,4.38516353,
0.04808,-1.528836105,0.04808,3.654302942,
0.0481,-0.7979755162,0.0481,4.38516353,
0.04812,-1.528836105,0.04812,4.38516353,
0.04814,-1.528836105,0.04814,3.654302942,
0.04816,-2.625126987,0.04816,4.750593824,
0.04818,-1.528836105,0.04818,4.38516353,
0.0482,-3.355987575,0.0482,3.654302942,
0.04822,-2.625126987,0.04822,4.38516353,
0.04824,-3.355987575,0.04824,4.019733236,
0.04826,-4.086848164,0.04826,4.38516353,
0.04828,-2.259696693,0.04828,4.38516353,
0.0483,-3.72141787,0.0483,4.38516353,
0.04832,-3.72141787,0.04832,3.654302942,
0.04834,-2.259696693,0.04834,4.750593824,
0.04836,-2.990557281,0.04836,4.750593824,
0.04838,-3.355987575,0.04838,4.019733236,
0.0484,-1.528836105,0.0484,4.38516353,
0.04842,-2.259696693,0.04842,4.38516353,
0.04844,-1.894266399,0.04844,4.019733236,
0.04846,-0.432545222,0.04846,4.38516353,
0.04848,-0.06711492783,0.04848,4.38516353,
0.0485,-0.06711492783,0.0485,4.38516353,
0.04852,0.2983153663,0.04852,4.019733236,
0.04854,1.029175955,0.04854,4.019733236,
0.04856,1.029175955,0.04856,3.654302942,
0.04858,1.394606249,0.04858,4.38516353,
0.0486,-0.432545222,0.0486,4.019733236,
0.04862,3.587188014,0.04862,3.654302942,
0.04864,1.760036543,0.04864,4.38516353,
0.04866,2.125466837,0.04866,4.750593824,
0.04868,3.952618308,0.04868,3.654302942,
0.0487,3.952618308,0.0487,3.288872648,
0.04872,4.318048602,0.04872,4.38516353,
0.04874,2.856327426,0.04874,3.654302942,
0.04876,4.318048602,0.04876,4.38516353,
0.04878,3.587188014,0.04878,4.38516353,
0.0488,5.048909191,0.0488,4.750593824,
0.04882,3.587188014,0.04882,4.38516353,
0.04884,3.22175772,0.04884,4.750593824,
0.04886,3.22175772,0.04886,4.019733236,
0.04888,1.394606249,0.04888,4.38516353,
0.0489,2.125466837,0.0489,4.019733236,
0.04892,1.029175955,0.04892,4.38516353,
0.04894,1.394606249,0.04894,4.38516353,
0.04896,1.029175955,0.04896,4.38516353,
0.04898,-0.432545222,0.04898,4.019733236,
0.049,-0.7979755162,0.049,3.654302942,
0.04902,-0.432545222,0.04902,4.019733236,
0.04904,-1.894266399,0.04904,3.654302942,
0.04906,-1.894266399,0.04906,4.38516353,
0.04908,-2.259696693,0.04908,4.019733236,
0.0491,-2.625126987,0.0491,5.846884707,
0.04912,-2.990557281,0.04912,4.38516353,
0.04914,-4.452278458,0.04914,4.38516353,
0.04916,-3.355987575,0.04916,4.019733236,
0.04918,-4.086848164,0.04918,4.38516353,
0.0492,-2.990557281,0.0492,4.019733236,
0.04922,-4.086848164,0.04922,3.654302942,
0.04924,-2.259696693,0.04924,4.38516353,
0.04926,-2.990557281,0.04926,4.019733236,
0.04928,-3.355987575,0.04928,3.654302942,
0.0493,-1.528836105,0.0493,2.558012059,
0.04932,-1.894266399,0.04932,3.654302942,
0.04934,-1.16340581,0.04934,3.654302942,
0.04936,-0.7979755162,0.04936,4.38516353,
0.04938,-0.7979755162,0.04938,4.38516353,
0.0494,-1.528836105,0.0494,5.116024118,
0.04942,-0.7979755162,0.04942,4.019733236,
0.04944,0.2983153663,0.04944,4.38516353,
0.04946,-0.06711492783,0.04946,3.654302942,
0.04948,1.394606249,0.04948,4.38516353,
0.0495,1.394606249,0.0495,4.019733236,
0.04952,-0.432545222,0.04952,4.750593824,
0.04954,2.856327426,0.04954,4.019733236,
0.04956,2.490897131,0.04956,4.019733236,
0.04958,3.22175772,0.04958,4.750593824,
0.0496,2.856327426,0.0496,3.288872648,
0.04962,3.952618308,0.04962,4.019733236,
0.04964,3.587188014,0.04964,4.750593824,
0.04966,3.22175772,0.04966,4.38516353,
0.04968,3.22175772,0.04968,4.019733236,
0.0497,4.318048602,0.0497,5.481454413,
0.04972,3.587188014,0.04972,4.38516353,
0.04974,2.856327426,0.04974,4.750593824,
0.04976,5.048909191,0.04976,4.750593824,
0.04978,3.22175772,0.04978,4.019733236,
0.0498,2.490897131,0.0498,4.750593824,
0.04982,1.394606249,0.04982,4.750593824,
0.04984,1.760036543,0.04984,4.38516353,
0.04986,1.029175955,0.04986,4.38516353,
0.04988,-0.06711492783,0.04988,4.750593824,
0.0499,-1.16340581,0.0499,3.654302942,
0.04992,0.6637456605,0.04992,4.38516353,
0.04994,-0.7979755162,0.04994,4.38516353,
0.04996,-0.7979755162,0.04996,4.750593824,
0.04998,-2.625126987,0.04998,4.38516353,
0.05,-2.625126987,0.05,5.116024118,
0.05002,-3.355987575,0.05002,4.750593824,
0.05004,-5.183139046,0.05004,4.38516353,
0.05006,-3.355987575,0.05006,4.019733236,
0.05008,-3.355987575,0.05008,4.38516353,
0.0501,-2.990557281,0.0501,4.019733236,
0.05012,-3.72141787,0.05012,4.38516353,
0.05014,-3.355987575,0.05014,4.750593824,
0.05016,-2.990557281,0.05016,4.38516353,
0.05018,-3.72141787,0.05018,4.019733236,
0.0502,-2.625126987,0.0502,4.38516353,
0.05022,-2.990557281,0.05022,4.38516353,
0.05024,-2.990557281,0.05024,4.38516353,
0.05026,-2.259696693,0.05026,4.38516353,
0.05028,0.6637456605,0.05028,4.019733236,
0.0503,-1.894266399,0.0503,5.116024118,
0.05032,-2.625126987,0.05032,4.750593824,
0.05034,0.2983153663,0.05034,4.019733236,
0.05036,-0.7979755162,0.05036,4.750593824,
0.05038,-0.06711492783,0.05038,4.019733236,
0.0504,-0.06711492783,0.0504,4.019733236,
0.05042,1.394606249,0.05042,4.750593824,
0.05044,0.6637456605,0.05044,4.38516353,
0.05046,2.856327426,0.05046,4.019733236,
0.05048,0.6637456605,0.05048,4.750593824,
0.0505,2.490897131,0.0505,4.38516353,
0.05052,3.22175772,0.05052,4.38516353,
0.05054,4.683478896,0.05054,4.38516353,
0.05056,3.22175772,0.05056,4.38516353,
0.05058,3.587188014,0.05058,4.019733236,
0.0506,3.587188014,0.0506,4.750593824,
0.05062,3.22175772,0.05062,4.38516353,
0.05064,3.22175772,0.05064,4.019733236,
0.05066,2.490897131,0.05066,4.750593824,
0.05068,2.490897131,0.05068,3.654302942,
0.0507,2.490897131,0.0507,3.654302942,
0.05072,3.587188014,0.05072,4.750593824,
0.05074,2.125466837,0.05074,4.38516353,
0.05076,1.394606249,0.05076,4.019733236,
0.05078,1.760036543,0.05078,4.750593824,
0.0508,-2.990557281,0.0508,4.019733236,
0.05082,-0.7979755162,0.05082,3.654302942,
0.05084,-0.7979755162,0.05084,4.750593824,
0.05086,-1.528836105,0.05086,4.019733236,
0.05088,-1.16340581,0.05088,3.654302942,
0.0509,-1.16340581,0.0509,4.750593824,
0.05092,-1.894266399,0.05092,4.38516353,
0.05094,-2.990557281,0.05094,4.019733236,
0.05096,-2.259696693,0.05096,4.750593824,
0.05098,-2.625126987,0.05098,4.019733236,
0.051,-3.72141787,0.051,4.019733236,
0.05102,-2.990557281,0.05102,4.750593824,
0.05104,-5.54856934,0.05104,4.019733236,
0.05106,-4.086848164,0.05106,4.38516353,
0.05108,-3.72141787,0.05108,4.750593824,
0.0511,-3.72141787,0.0511,4.019733236,
0.05112,-5.54856934,0.05112,4.019733236,
0.05114,-3.355987575,0.05114,4.750593824,
0.05116,-3.355987575,0.05116,4.38516353,
0.05118,-2.259696693,0.05118,4.019733236,
0.0512,-0.432545222,0.0512,4.750593824,
0.05122,-2.990557281,0.05122,4.38516353,
0.05124,-1.528836105,0.05124,4.019733236,
0.05126,-0.432545222,0.05126,4.38516353,
0.05128,-0.7979755162,0.05128,4.38516353,
0.0513,-0.432545222,0.0513,4.750593824,
0.05132,0.6637456605,0.05132,4.750593824,
0.05134,0.6637456605,0.05134,4.019733236,
0.05136,1.029175955,0.05136,4.019733236,
0.05138,2.125466837,0.05138,5.116024118,
0.0514,2.125466837,0.0514,5.116024118,
0.05142,4.318048602,0.05142,4.750593824,
0.05144,2.490897131,0.05144,4.38516353,
0.05146,3.952618308,0.05146,4.750593824,
0.05148,2.490897131,0.05148,4.750593824,
0.0515,4.318048602,0.0515,4.750593824,
0.05152,3.952618308,0.05152,4.019733236,
0.05154,3.952618308,0.05154,4.38516353,
0.05156,2.490897131,0.05156,4.750593824,
0.05158,3.587188014,0.05158,4.38516353,
0.0516,3.22175772,0.0516,4.38516353,
0.05162,2.125466837,0.05162,4.750593824,
0.05164,2.856327426,0.05164,4.750593824,
0.05166,3.952618308,0.05166,4.750593824,
0.05168,2.125466837,0.05168,4.38516353,
0.0517,2.490897131,0.0517,4.38516353,
0.05172,1.029175955,0.05172,4.019733236,
0.05174,-1.16340581,0.05174,4.38516353,
0.05176,0.6637456605,0.05176,4.38516353,
0.05178,-0.06711492783,0.05178,4.38516353,
0.0518,-0.7979755162,0.0518,4.38516353,
0.05182,-1.528836105,0.05182,4.019733236,
0.05184,-1.528836105,0.05184,4.38516353,
0.05186,-1.16340581,0.05186,4.38516353,
0.05188,-2.625126987,0.05188,4.019733236,
0.0519,-3.72141787,0.0519,4.38516353,
0.05192,-3.355987575,0.05192,5.116024118,
0.05194,-2.990557281,0.05194,4.38516353,
0.05196,-2.990557281,0.05196,4.750593824,
0.05198,-4.086848164,0.05198,4.019733236,
0.052,-2.625126987,0.052,4.019733236,
0.05202,-2.990557281,0.05202,4.019733236,
0.05204,-4.086848164,0.05204,4.750593824,
0.05206,-2.259696693,0.05206,4.019733236,
0.05208,-3.72141787,0.05208,4.750593824,
0.0521,-2.625126987,0.0521,4.38516353,
0.05212,-2.259696693,0.05212,3.654302942,
0.05214,-2.259696693,0.05214,5.116024118,
0.05216,-2.259696693,0.05216,4.38516353,
0.05218,-2.259696693,0.05218,4.38516353,
0.0522,-1.16340581,0.0522,4.750593824,
0.05222,0.2983153663,0.05222,5.116024118,
0.05224,0.2983153663,0.05224,4.38516353,
0.05226,-0.06711492783,0.05226,4.750593824,
0.05228,-0.06711492783,0.05228,4.38516353,
0.0523,1.029175955,0.0523,4.750593824,
0.05232,2.125466837,0.05232,5.846884707,
0.05234,2.125466837,0.05234,4.38516353,
0.05236,2.856327426,0.05236,4.750593824,
0.05238,3.22175772,0.05238,4.38516353,
0.0524,2.856327426,0.0524,5.116024118,
0.05242,2.856327426,0.05242,4.38516353,
0.05244,3.22175772,0.05244,4.750593824,
0.05246,4.318048602,0.05246,4.38516353,
0.05248,3.22175772,0.05248,3.654302942,
0.0525,3.952618308,0.0525,4.750593824,
0.05252,3.587188014,0.05252,3.288872648,
0.05254,2.490897131,0.05254,4.38516353,
0.05256,3.952618308,0.05256,4.750593824,
0.05258,2.125466837,0.05258,4.38516353,
0.0526,3.952618308,0.0526,4.38516353,
0.05262,2.125466837,0.05262,4.750593824,
0.05264,0.2983153663,0.05264,5.116024118,
0.05266,1.760036543,0.05266,4.019733236,
0.05268,1.394606249,0.05268,4.750593824,
0.0527,-0.06711492783,0.0527,4.38516353,
0.05272,-0.7979755162,0.05272,5.116024118,
0.05274,-0.06711492783,0.05274,4.750593824,
0.05276,-1.16340581,0.05276,4.750593824,
0.05278,-1.16340581,0.05278,4.019733236,
0.0528,-2.990557281,0.0528,4.750593824,
0.05282,-2.259696693,0.05282,3.654302942,
0.05284,-2.990557281,0.05284,5.481454413,
0.05286,-1.894266399,0.05286,4.750593824,
0.05288,-3.72141787,0.05288,4.019733236,
0.0529,-3.355987575,0.0529,4.38516353,
0.05292,-3.72141787,0.05292,5.116024118,
0.05294,-4.817708752,0.05294,4.019733236,
0.05296,-2.625126987,0.05296,4.38516353,
0.05298,-2.259696693,0.05298,4.750593824,
0.053,-2.625126987,0.053,4.38516353,
0.05302,-2.990557281,0.05302,4.019733236,
0.05304,-1.16340581,0.05304,4.750593824,
0.05306,-3.72141787,0.05306,4.750593824,
0.05308,-1.16340581,0.05308,4.019733236,
0.0531,-1.528836105,0.0531,4.38516353,
0.05312,-1.16340581,0.05312,3.654302942,
0.05314,-2.990557281,0.05314,4.38516353,
0.05316,1.029175955,0.05316,4.38516353,
0.05318,-0.06711492783,0.05318,4.38516353,
0.0532,2.490897131,0.0532,4.750593824,
0.05322,0.6637456605,0.05322,4.750593824,
0.05324,-0.432545222,0.05324,4.38516353,
0.05326,3.587188014,0.05326,4.38516353,
0.05328,3.22175772,0.05328,4.38516353,
0.0533,2.856327426,0.0533,4.019733236,
0.05332,2.490897131,0.05332,4.750593824,
0.05334,4.318048602,0.05334,3.654302942,
0.05336,1.394606249,0.05336,4.019733236,
0.05338,3.587188014,0.05338,4.38516353,
0.0534,2.856327426,0.0534,4.019733236,
0.05342,3.587188014,0.05342,4.019733236,
0.05344,2.125466837,0.05344,4.38516353,
0.05346,2.490897131,0.05346,4.019733236,
0.05348,4.318048602,0.05348,4.019733236,
0.0535,2.125466837,0.0535,4.38516353,
0.05352,2.490897131,0.05352,4.019733236,
0.05354,4.683478896,0.05354,4.38516353,
0.05356,1.760036543,0.05356,4.019733236,
0.05358,1.029175955,0.05358,3.654302942,
0.0536,2.125466837,0.0536,4.38516353,
0.05362,0.6637456605,0.05362,4.019733236,
0.05364,2.125466837,0.05364,4.019733236,
0.05366,-0.432545222,0.05366,4.019733236,
0.05368,-1.16340581,0.05368,4.38516353,
0.0537,-0.7979755162,0.0537,4.019733236,
0.05372,-1.528836105,0.05372,4.38516353,
0.05374,-4.452278458,0.05374,4.38516353,
0.05376,-4.817708752,0.05376,3.654302942,
0.05378,-2.259696693,0.05378,4.750593824,
0.0538,-1.528836105,0.0538,4.019733236,
0.05382,-2.990557281,0.05382,4.019733236,
0.05384,-2.990557281,0.05384,4.38516353,
0.05386,-3.355987575,0.05386,4.38516353,
0.05388,-4.086848164,0.05388,4.38516353,
0.0539,-2.990557281,0.0539,4.019733236,
0.05392,-4.086848164,0.05392,4.019733236,
0.05394,-2.625126987,0.05394,4.38516353,
0.05396,-3.355987575,0.05396,4.019733236,
0.05398,-1.16340581,0.05398,4.019733236,
0.054,-2.625126987,0.054,4.019733236,
0.05402,-1.528836105,0.05402,4.38516353,
0.05404,-2.625126987,0.05404,3.654302942,
0.05406,-1.16340581,0.05406,4.019733236,
0.05408,-0.06711492783,0.05408,4.019733236,
0.0541,0.6637456605,0.0541,4.019733236,
0.05412,1.029175955,0.05412,3.654302942,
0.05414,1.394606249,0.05414,5.116024118,
0.05416,2.490897131,0.05416,4.38516353,
0.05418,1.394606249,0.05418,4.019733236,
0.0542,2.125466837,0.0542,4.38516353,
0.05422,2.856327426,0.05422,4.38516353,
0.05424,3.952618308,0.05424,4.019733236,
0.05426,2.856327426,0.05426,4.38516353,
0.05428,3.952618308,0.05428,4.019733236,
0.0543,3.22175772,0.0543,3.654302942,
0.05432,1.760036543,0.05432,4.38516353,
0.05434,3.22175772,0.05434,4.38516353,
0.05436,3.587188014,0.05436,3.288872648,
0.05438,4.318048602,0.05438,4.38516353,
0.0544,3.22175772,0.0544,4.019733236,
0.05442,3.22175772,0.05442,3.654302942,
0.05444,2.856327426,0.05444,4.38516353,
0.05446,2.856327426,0.05446,4.019733236,
0.05448,2.125466837,0.05448,3.654302942,
0.0545,1.760036543,0.0545,4.750593824,
0.05452,1.029175955,0.05452,4.38516353,
0.05454,1.394606249,0.05454,4.019733236,
0.05456,0.2983153663,0.05456,4.38516353,
0.05458,-0.432545222,0.05458,4.38516353,
0.0546,0.2983153663,0.0546,4.38516353,
0.05462,-0.432545222,0.05462,4.38516353,
0.05464,-1.528836105,0.05464,4.38516353,
0.05466,-2.990557281,0.05466,4.019733236,
0.05468,-1.894266399,0.05468,4.019733236,
0.0547,-2.625126987,0.0547,4.38516353,
0.05472,-3.355987575,0.05472,4.019733236,
0.05474,-2.259696693,0.05474,4.019733236,
0.05476,-3.355987575,0.05476,4.019733236,
0.05478,-3.72141787,0.05478,4.019733236,
0.0548,-5.54856934,0.0548,4.38516353,
0.05482,-4.452278458,0.05482,3.654302942,
0.05484,-3.355987575,0.05484,4.019733236,
0.05486,-2.990557281,0.05486,4.750593824,
0.05488,-4.086848164,0.05488,4.38516353,
0.0549,-1.528836105,0.0549,3.654302942,
0.05492,-2.259696693,0.05492,4.019733236,
0.05494,-3.72141787,0.05494,4.38516353,
0.05496,-1.894266399,0.05496,4.019733236,
0.05498,-1.894266399,0.05498,4.38516353,
0.055,-0.432545222,0.055,4.019733236,
0.05502,-0.432545222,0.05502,4.019733236,
0.05504,-0.7979755162,0.05504,4.019733236,
0.05506,1.029175955,0.05506,4.38516353,
0.05508,2.490897131,0.05508,4.38516353,
0.0551,2.856327426,0.0551,4.750593824,
0.05512,1.760036543,0.05512,4.750593824,
0.05514,3.22175772,0.05514,3.654302942,
0.05516,3.22175772,0.05516,4.38516353,
0.05518,3.22175772,0.05518,5.116024118,
0.0552,2.856327426,0.0552,4.019733236,
0.05522,4.318048602,0.05522,4.750593824,
0.05524,4.318048602,0.05524,5.481454413,
0.05526,4.318048602,0.05526,4.38516353,
0.05528,3.587188014,0.05528,4.019733236,
0.0553,3.952618308,0.0553,4.019733236,
0.05532,3.952618308,0.05532,4.750593824,
0.05534,3.587188014,0.05534,2.923442353,
0.05536,3.587188014,0.05536,4.38516353,
0.05538,2.490897131,0.05538,4.750593824,
0.0554,1.760036543,0.0554,5.116024118,
0.05542,0.6637456605,0.05542,4.38516353,
0.05544,3.587188014,0.05544,4.750593824,
0.05546,1.029175955,0.05546,4.38516353,
0.05548,1.029175955,0.05548,4.019733236,
0.0555,-0.432545222,0.0555,4.750593824,
0.05552,-0.432545222,0.05552,4.38516353,
0.05554,-0.7979755162,0.05554,6.577745295,
0.05556,-1.528836105,0.05556,4.750593824,
0.05558,-1.16340581,0.05558,4.38516353,
0.0556,-1.894266399,0.0556,4.38516353,
0.05562,-3.355987575,0.05562,5.116024118,
0.05564,-3.355987575,0.05564,5.481454413,
0.05566,-4.817708752,0.05566,4.38516353,
0.05568,-2.990557281,0.05568,4.38516353,
0.0557,-3.72141787,0.0557,4.38516353,
0.05572,-3.355987575,0.05572,4.019733236,
0.05574,-2.990557281,0.05574,2.923442353,
0.05576,-3.355987575,0.05576,4.38516353,
0.05578,-3.355987575,0.05578,4.750593824,
0.0558,-1.528836105,0.0558,4.38516353,
0.05582,-2.990557281,0.05582,4.38516353,
0.05584,-2.990557281,0.05584,5.481454413,
0.05586,-2.990557281,0.05586,4.750593824,
0.05588,-2.625126987,0.05588,4.38516353,
0.0559,-2.259696693,0.0559,4.38516353,
0.05592,-1.528836105,0.05592,4.38516353,
0.05594,-1.16340581,0.05594,4.38516353,
0.05596,-1.528836105,0.05596,4.38516353,
0.05598,-2.259696693,0.05598,4.750593824,
0.056,0.2983153663,0.056,4.750593824,
0.05602,1.760036543,0.05602,4.38516353,
0.05604,1.394606249,0.05604,3.288872648,
0.05606,1.394606249,0.05606,5.116024118,
0.05608,2.125466837,0.05608,4.019733236,
0.0561,3.22175772,0.0561,4.750593824,
0.05612,2.490897131,0.05612,4.750593824,
0.05614,4.683478896,0.05614,5.116024118,
0.05616,1.760036543,0.05616,4.38516353,
0.05618,3.587188014,0.05618,3.654302942,
0.0562,4.318048602,0.0562,4.38516353,
0.05622,4.683478896,0.05622,4.38516353,
0.05624,4.683478896,0.05624,2.923442353,
0.05626,3.22175772,0.05626,4.38516353,
0.05628,3.952618308,0.05628,4.38516353,
0.0563,2.125466837,0.0563,4.019733236,
0.05632,4.683478896,0.05632,4.38516353,
0.05634,2.125466837,0.05634,5.116024118,
0.05636,1.029175955,0.05636,4.019733236,
0.05638,1.760036543,0.05638,4.019733236,
0.0564,1.394606249,0.0564,4.38516353,
0.05642,0.2983153663,0.05642,3.654302942,
0.05644,1.029175955,0.05644,4.019733236,
0.05646,-0.7979755162,0.05646,4.38516353,
0.05648,-0.432545222,0.05648,4.019733236,
0.0565,1.029175955,0.0565,4.38516353,
0.05652,-2.259696693,0.05652,4.019733236,
0.05654,-2.990557281,0.05654,3.288872648,
0.05656,-0.7979755162,0.05656,4.38516353,
0.05658,-2.990557281,0.05658,4.019733236,
0.0566,-2.990557281,0.0566,4.019733236,
0.05662,-3.355987575,0.05662,4.38516353,
0.05664,-2.625126987,0.05664,4.019733236,
0.05666,-2.259696693,0.05666,3.288872648,
0.05668,-2.990557281,0.05668,3.288872648,
0.0567,-3.355987575,0.0567,4.38516353,
0.05672,-4.086848164,0.05672,4.019733236,
0.05674,-2.259696693,0.05674,4.750593824,
0.05676,-3.72141787,0.05676,4.019733236,
0.05678,-2.625126987,0.05678,3.654302942,
0.0568,-1.894266399,0.0568,4.38516353,
0.05682,-1.894266399,0.05682,4.38516353,
0.05684,-1.894266399,0.05684,3.654302942,
0.05686,-2.259696693,0.05686,4.38516353,
0.05688,-0.432545222,0.05688,4.38516353,
0.0569,-0.432545222,0.0569,4.019733236,
0.05692,-0.432545222,0.05692,4.38516353,
0.05694,1.394606249,0.05694,4.019733236,
0.05696,0.6637456605,0.05696,4.019733236,
0.05698,2.125466837,0.05698,4.38516353,
0.057,2.856327426,0.057,4.38516353,
0.05702,3.587188014,0.05702,3.654302942,
0.05704,2.856327426,0.05704,4.38516353,
0.05706,3.952618308,0.05706,4.750593824,
0.05708,4.318048602,0.05708,4.019733236,
0.0571,4.683478896,0.0571,4.38516353,
0.05712,-0.06711492783,0.05712,4.38516353,
0.05714,4.318048602,0.05714,4.019733236,
0.05716,3.587188014,0.05716,4.019733236,
0.05718,3.587188014,0.05718,4.750593824,
0.0572,5.048909191,0.0572,3.288872648,
0.05722,3.22175772,0.05722,4.38516353,
0.05724,3.22175772,0.05724,4.019733236,
0.05726,1.760036543,0.05726,3.654302942,
0.05728,2.125466837,0.05728,4.38516353,
0.0573,1.760036543,0.0573,4.38516353,
0.05732,1.394606249,0.05732,3.654302942,
0.05734,-0.7979755162,0.05734,4.38516353,
0.05736,-0.06711492783,0.05736,4.38516353,
0.05738,-0.06711492783,0.05738,4.38516353,
0.0574,-0.06711492783,0.0574,4.38516353,
0.05742,-0.7979755162,0.05742,4.38516353,
0.05744,-1.528836105,0.05744,4.019733236,
0.05746,-1.16340581,0.05746,4.750593824,
0.05748,-1.16340581,0.05748,4.019733236,
0.0575,-2.259696693,0.0575,4.019733236,
0.05752,-2.990557281,0.05752,4.019733236,
0.05754,-3.355987575,0.05754,4.750593824,
0.05756,-3.355987575,0.05756,4.019733236,
0.05758,-4.086848164,0.05758,4.38516353,
0.0576,-3.355987575,0.0576,4.38516353,
0.05762,-3.72141787,0.05762,4.019733236,
0.05764,-2.625126987,0.05764,4.019733236,
0.05766,-2.990557281,0.05766,4.38516353,
0.05768,-3.355987575,0.05768,4.019733236,
0.0577,-2.990557281,0.0577,4.019733236,
0.05772,-3.72141787,0.05772,4.38516353,
0.05774,-2.259696693,0.05774,4.019733236,
0.05776,-1.16340581,0.05776,4.38516353,
0.05778,-1.16340581,0.05778,4.38516353,
0.0578,-0.7979755162,0.0578,4.019733236,
0.05782,-0.06711492783,0.05782,4.38516353,
0.05784,0.2983153663,0.05784,4.38516353,
0.05786,0.6637456605,0.05786,4.019733236,
0.05788,1.760036543,0.05788,4.38516353,
0.0579,2.125466837,0.0579,4.750593824,
0.05792,1.760036543,0.05792,3.654302942,
0.05794,2.856327426,0.05794,4.019733236,
0.05796,3.22175772,0.05796,3.654302942,
0.05798,3.22175772,0.05798,3.654302942,
0.058,3.587188014,0.058,4.750593824,
0.05802,4.683478896,0.05802,4.38516353,
0.05804,2.490897131,0.05804,4.019733236,
0.05806,2.856327426,0.05806,4.38516353,
0.05808,3.587188014,0.05808,4.38516353,
0.0581,3.587188014,0.0581,5.116024118,
0.05812,2.490897131,0.05812,4.019733236,
0.05814,3.22175772,0.05814,4.019733236,
0.05816,2.125466837,0.05816,4.750593824,
0.05818,1.760036543,0.05818,4.38516353,
0.0582,1.760036543,0.0582,4.019733236,
0.05822,3.22175772,0.05822,4.750593824,
0.05824,1.394606249,0.05824,4.019733236,
0.05826,1.029175955,0.05826,4.38516353,
0.05828,-0.7979755162,0.05828,4.38516353,
0.0583,-0.06711492783,0.0583,4.38516353,
0.05832,-0.7979755162,0.05832,4.019733236,
0.05834,-1.528836105,0.05834,5.116024118,
0.05836,-2.259696693,0.05836,4.750593824,
0.05838,-1.894266399,0.05838,4.38516353,
0.0584,-1.16340581,0.0584,4.750593824,
0.05842,-5.913999635,0.05842,4.38516353,
0.05844,-2.990557281,0.05844,4.019733236,
0.05846,-2.990557281,0.05846,4.38516353,
0.05848,-2.259696693,0.05848,4.019733236,
0.0585,-4.452278458,0.0585,4.750593824,
0.05852,-3.355987575,0.05852,4.38516353,
0.05854,-4.817708752,0.05854,4.019733236,
0.05856,-4.086848164,0.05856,4.019733236,
0.05858,-1.16340581,0.05858,5.116024118,
0.0586,-3.72141787,0.0586,4.019733236,
0.05862,-3.72141787,0.05862,4.38516353,
0.05864,-2.990557281,0.05864,5.481454413,
0.05866,-3.72141787,0.05866,5.481454413,
0.05868,-2.259696693,0.05868,4.38516353,
0.0587,-2.625126987,0.0587,4.750593824,
0.05872,-1.528836105,0.05872,4.019733236,
0.05874,-0.06711492783,0.05874,4.019733236,
0.05876,-0.7979755162,0.05876,4.019733236,
0.05878,0.6637456605,0.05878,4.750593824,
0.0588,0.2983153663,0.0588,4.38516353,
0.05882,1.394606249,0.05882,4.750593824,
0.05884,1.760036543,0.05884,4.38516353,
0.05886,2.490897131,0.05886,4.750593824,
0.05888,2.490897131,0.05888,4.750593824,
0.0589,2.490897131,0.0589,3.654302942,
