"A0_accX_x","A0_accX_y","A1_rmsX_x","A1_rmsX_y"
0,-2.496977891,0,6.577745295,
2e-05,-4.324129362,2e-05,6.212315001,
4e-05,-5.420420245,4e-05,6.577745295,
6e-05,-5.054989951,6e-05,6.577745295,
8e-05,-3.593268774,8e-05,6.943175589,
0.0001,-5.420420245,0.0001,6.577745295,
0.00012,-6.882141422,0.00012,5.846884707,
0.00014,-5.785850539,0.00014,7.308605883,
0.00016,-7.247571716,0.00016,5.846884707,
0.00018,-7.978432304,0.00018,6.212315001,
0.0002,-6.516711127,0.0002,6.943175589,
0.00022,-6.516711127,0.00022,7.308605883,
0.00024,-6.882141422,0.00024,6.212315001,
0.00026,-5.420420245,0.00026,7.674036178,
0.00028,-5.054989951,0.00028,6.212315001,
0.0003,-5.054989951,0.0003,6.212315001,
0.00032,-4.324129362,0.00032,5.846884707,
0.00034,-3.22783848,0.00034,6.212315001,
0.00036,-0.6698264206,0.00036,5.846884707,
0.00038,-2.496977891,0.00038,7.308605883,
0.0004,-1.035256715,0.0004,6.577745295,
0.00042,-1.400687009,0.00042,7.308605883,
0.00044,0.7918947561,0.00044,6.943175589,
0.00046,-1.400687009,0.00046,6.577745295,
0.00048,2.619046227,0.00048,6.577745295,
0.0005,2.984476521,0.0005,7.308605883,
0.00052,3.715337109,0.00052,5.846884707,
0.00054,4.446197698,0.00054,6.577745295,
0.00056,7.369640051,0.00056,7.308605883,
0.00058,5.54248858,0.00058,6.577745295,
0.0006,6.638779463,0.0006,6.212315001,
0.00062,8.10050064,0.00062,6.577745295,
0.00064,5.907918874,0.00064,6.577745295,
0.00066,7.369640051,0.00066,6.577745295,
0.00068,6.638779463,0.00068,6.943175589,
0.0007,6.273349169,0.0007,6.577745295,
0.00072,6.273349169,0.00072,6.577745295,
0.00074,7.004209757,0.00074,7.308605883,
0.00076,5.54248858,0.00076,7.308605883,
0.00078,4.446197698,0.00078,5.846884707,
0.0008,4.080767404,0.0008,6.577745295,
0.00082,1.888185639,0.00082,6.577745295,
0.00084,1.522755344,0.00084,6.212315001,
0.00086,0.7918947561,0.00086,6.577745295,
0.00088,0.4264644619,0.00088,6.212315001,
0.0009,-2.862408186,0.0009,6.577745295,
0.00092,-1.035256715,0.00092,6.943175589,
0.00094,-2.496977891,0.00094,6.943175589,
0.00096,-1.035256715,0.00096,6.212315001,
0.00098,-3.593268774,0.00098,6.943175589,
0.001,-4.689559656,0.001,6.577745295,
0.00102,-6.151280833,0.00102,6.577745295,
0.00104,-5.785850539,0.00104,6.943175589,
0.00106,-10.17101407,0.00106,6.577745295,
0.00108,-7.978432304,0.00108,6.212315001,
0.0011,-7.247571716,0.0011,7.308605883,
0.00112,-9.440153481,0.00112,5.846884707,
0.00114,-8.709292892,0.00114,6.577745295,
0.00116,-6.516711127,0.00116,7.308605883,
0.00118,-6.516711127,0.00118,6.577745295,
0.0012,-5.420420245,0.0012,6.943175589,
0.00122,-5.785850539,0.00122,7.308605883,
0.00124,-5.420420245,0.00124,6.577745295,
0.00126,-5.054989951,0.00126,6.212315001,
0.00128,-3.22783848,0.00128,6.943175589,
0.0013,-2.862408186,0.0013,6.577745295,
0.00132,-2.131547597,0.00132,6.212315001,
0.00134,-1.400687009,0.00134,6.943175589,
0.00136,-0.3043961264,0.00136,5.846884707,
0.00138,0.4264644619,0.00138,6.212315001,
0.0014,2.619046227,0.0014,6.943175589,
0.00142,2.253615933,0.00142,6.212315001,
0.00144,2.253615933,0.00144,6.212315001,
0.00146,3.349906815,0.00146,6.943175589,
0.00148,5.54248858,0.00148,6.212315001,
0.0015,5.54248858,0.0015,6.212315001,
0.00152,6.273349169,0.00152,6.943175589,
0.00154,6.638779463,0.00154,6.577745295,
0.00156,6.638779463,0.00156,6.577745295,
0.00158,6.638779463,0.00158,6.943175589,
0.0016,6.638779463,0.0016,6.577745295,
0.00162,7.735070345,0.00162,6.577745295,
0.00164,4.811627992,0.00164,6.943175589,
0.00166,5.907918874,0.00166,6.577745295,
0.00168,5.907918874,0.00168,6.943175589,
0.0017,4.446197698,0.0017,6.577745295,
0.00172,4.446197698,0.00172,6.577745295,
0.00174,4.446197698,0.00174,6.943175589,
0.00176,2.619046227,0.00176,6.577745295,
0.00178,1.888185639,0.00178,6.577745295,
0.0018,1.15732505,0.0018,6.577745295,
0.00182,0.06103416773,0.00182,7.308605883,
0.00184,-1.035256715,0.00184,6.943175589,
0.00186,-1.400687009,0.00186,6.943175589,
0.00188,-2.131547597,0.00188,6.943175589,
0.0019,-2.862408186,0.0019,7.308605883,
0.00192,-3.593268774,0.00192,7.308605883,
0.00194,-4.689559656,0.00194,6.577745295,
0.00196,-4.324129362,0.00196,6.943175589,
0.00198,-5.420420245,0.00198,6.943175589,
0.002,-5.785850539,0.002,6.943175589,
0.00202,-5.420420245,0.00202,6.577745295,
0.00204,-6.516711127,0.00204,7.308605883,
0.00206,-7.61300201,0.00206,6.943175589,
0.00208,-6.151280833,0.00208,6.577745295,
0.0021,-6.882141422,0.0021,6.943175589,
0.00212,-6.516711127,0.00212,6.943175589,
0.00214,-6.151280833,0.00214,6.212315001,
0.00216,-4.689559656,0.00216,6.943175589,
0.00218,-4.689559656,0.00218,6.577745295,
0.0022,-3.593268774,0.0022,6.212315001,
0.00222,0.4264644619,0.00222,6.943175589,
0.00224,-3.593268774,0.00224,6.212315001,
0.00226,-1.035256715,0.00226,6.577745295,
0.00228,0.06103416773,0.00228,6.943175589,
0.0023,1.15732505,0.0023,6.943175589,
0.00232,1.522755344,0.00232,6.577745295,
0.00234,3.349906815,0.00234,6.943175589,
0.00236,4.446197698,0.00236,6.577745295,
0.00238,4.080767404,0.00238,6.943175589,
0.0024,7.004209757,0.0024,6.943175589,
0.00242,5.907918874,0.00242,6.577745295,
0.00244,6.638779463,0.00244,7.674036178,
0.00246,5.907918874,0.00246,6.577745295,
0.00248,5.907918874,0.00248,6.577745295,
0.0025,7.735070345,0.0025,6.943175589,
0.00252,7.004209757,0.00252,6.577745295,
0.00254,7.004209757,0.00254,6.577745295,
0.00256,7.369640051,0.00256,6.943175589,
0.00258,6.638779463,0.00258,6.943175589,
0.0026,6.638779463,0.0026,6.943175589,
0.00262,3.715337109,0.00262,6.577745295,
0.00264,4.811627992,0.00264,6.212315001,
0.00266,4.446197698,0.00266,6.943175589,
0.00268,3.349906815,0.00268,6.577745295,
0.0027,2.619046227,0.0027,6.577745295,
0.00272,1.888185639,0.00272,7.308605883,
0.00274,0.4264644619,0.00274,7.674036178,
0.00276,-0.6698264206,0.00276,6.577745295,
0.00278,-1.035256715,0.00278,6.943175589,
0.0028,-1.400687009,0.0028,6.577745295,
0.00282,-2.862408186,0.00282,6.943175589,
0.00284,-3.593268774,0.00284,6.212315001,
0.00286,-6.882141422,0.00286,6.577745295,
0.00288,-5.054989951,0.00288,6.212315001,
0.0029,-5.420420245,0.0029,7.308605883,
0.00292,-6.516711127,0.00292,6.577745295,
0.00294,-6.882141422,0.00294,6.943175589,
0.00296,-6.882141422,0.00296,6.943175589,
0.00298,-6.882141422,0.00298,6.577745295,
0.003,-7.247571716,0.003,6.577745295,
0.00302,-6.516711127,0.00302,6.943175589,
0.00304,-10.90187466,0.00304,6.943175589,
0.00306,-5.785850539,0.00306,6.943175589,
0.00308,-5.785850539,0.00308,6.943175589,
0.0031,-6.882141422,0.0031,6.943175589,
0.00312,-4.324129362,0.00312,6.212315001,
0.00314,-3.593268774,0.00314,6.212315001,
0.00316,-2.131547597,0.00316,6.577745295,
0.00318,-2.131547597,0.00318,6.577745295,
0.0032,-0.6698264206,0.0032,6.943175589,
0.00322,-0.3043961264,0.00322,6.212315001,
0.00324,0.4264644619,0.00324,6.212315001,
0.00326,0.7918947561,0.00326,6.943175589,
0.00328,2.984476521,0.00328,6.577745295,
0.0033,3.349906815,0.0033,6.577745295,
0.00332,4.811627992,0.00332,7.308605883,
0.00334,5.177058286,0.00334,7.308605883,
0.00336,7.369640051,0.00336,6.577745295,
0.00338,6.638779463,0.00338,6.943175589,
0.0034,5.177058286,0.0034,6.577745295,
0.00342,6.273349169,0.00342,6.577745295,
0.00344,5.907918874,0.00344,6.943175589,
0.00346,7.004209757,0.00346,6.577745295,
0.00348,7.369640051,0.00348,6.577745295,
0.0035,7.004209757,0.0035,6.943175589,
0.00352,5.54248858,0.00352,6.577745295,
0.00354,5.907918874,0.00354,6.943175589,
0.00356,4.080767404,0.00356,6.943175589,
0.00358,7.369640051,0.00358,6.577745295,
0.0036,2.253615933,0.0036,6.577745295,
0.00362,2.984476521,0.00362,7.308605883,
0.00364,2.619046227,0.00364,6.577745295,
0.00366,1.888185639,0.00366,6.577745295,
0.00368,-0.6698264206,0.00368,6.943175589,
0.0037,0.06103416773,0.0037,6.577745295,
0.00372,-1.035256715,0.00372,6.577745295,
0.00374,-1.766117303,0.00374,6.577745295,
0.00376,-2.862408186,0.00376,6.577745295,
0.00378,-5.054989951,0.00378,6.577745295,
0.0038,-5.420420245,0.0038,6.943175589,
0.00382,-5.054989951,0.00382,6.212315001,
0.00384,-6.882141422,0.00384,6.212315001,
0.00386,-6.151280833,0.00386,6.943175589,
0.00388,-7.247571716,0.00388,6.577745295,
0.0039,-7.247571716,0.0039,6.577745295,
0.00392,-8.343862598,0.00392,6.943175589,
0.00394,-7.61300201,0.00394,6.577745295,
0.00396,-6.151280833,0.00396,6.943175589,
0.00398,-6.882141422,0.00398,7.308605883,
0.004,-5.785850539,0.004,6.577745295,
0.00402,-6.151280833,0.00402,6.212315001,
0.00404,-4.689559656,0.00404,6.943175589,
0.00406,-5.785850539,0.00406,6.577745295,
0.00408,-3.22783848,0.00408,5.846884707,
0.0041,-2.131547597,0.0041,6.943175589,
0.00412,-2.131547597,0.00412,6.577745295,
0.00414,-2.496977891,0.00414,6.577745295,
0.00416,-1.035256715,0.00416,6.212315001,
0.00418,1.888185639,0.00418,6.577745295,
0.0042,0.7918947561,0.0042,6.212315001,
0.00422,2.619046227,0.00422,7.308605883,
0.00424,2.984476521,0.00424,6.943175589,
0.00426,4.811627992,0.00426,6.577745295,
0.00428,5.907918874,0.00428,6.577745295,
0.0043,5.177058286,0.0043,6.577745295,
0.00432,8.10050064,0.00432,6.212315001,
0.00434,7.004209757,0.00434,6.212315001,
0.00436,7.004209757,0.00436,6.943175589,
0.00438,7.369640051,0.00438,6.212315001,
0.0044,7.004209757,0.0044,6.943175589,
0.00442,6.638779463,0.00442,6.943175589,
0.00444,7.735070345,0.00444,6.577745295,
0.00446,5.54248858,0.00446,6.943175589,
0.00448,7.369640051,0.00448,6.577745295,
0.0045,5.177058286,0.0045,5.481454413,
0.00452,4.446197698,0.00452,6.943175589,
0.00454,2.984476521,0.00454,6.577745295,
0.00456,2.619046227,0.00456,6.577745295,
0.00458,2.253615933,0.00458,6.943175589,
0.0046,0.4264644619,0.0046,6.943175589,
0.00462,0.4264644619,0.00462,6.212315001,
0.00464,-1.035256715,0.00464,6.577745295,
0.00466,-2.862408186,0.00466,6.943175589,
0.00468,-2.496977891,0.00468,6.577745295,
0.0047,-3.593268774,0.0047,6.943175589,
0.00472,-4.689559656,0.00472,6.943175589,
0.00474,-4.689559656,0.00474,6.577745295,
0.00476,-5.054989951,0.00476,6.943175589,
0.00478,-6.151280833,0.00478,7.308605883,
0.0048,-6.882141422,0.0048,6.577745295,
0.00482,-6.516711127,0.00482,6.943175589,
0.00484,-7.61300201,0.00484,5.846884707,
0.00486,-6.882141422,0.00486,6.577745295,
0.00488,-6.516711127,0.00488,6.577745295,
0.0049,-6.516711127,0.0049,6.577745295,
0.00492,-5.420420245,0.00492,6.577745295,
0.00494,-5.420420245,0.00494,6.943175589,
0.00496,-5.054989951,0.00496,6.577745295,
0.00498,-3.958699068,0.00498,6.577745295,
0.005,-3.958699068,0.005,6.577745295,
0.00502,-3.22783848,0.00502,6.943175589,
0.00504,-2.131547597,0.00504,6.577745295,
0.00506,-1.035256715,0.00506,6.943175589,
0.00508,-1.035256715,0.00508,6.943175589,
0.0051,1.15732505,0.0051,5.846884707,
0.00512,1.522755344,0.00512,6.943175589,
0.00514,1.888185639,0.00514,6.943175589,
0.00516,1.522755344,0.00516,6.577745295,
0.00518,4.080767404,0.00518,6.943175589,
0.0052,4.811627992,0.0052,6.577745295,
0.00522,5.907918874,0.00522,6.212315001,
0.00524,4.811627992,0.00524,6.943175589,
0.00526,6.273349169,0.00526,6.943175589,
0.00528,6.638779463,0.00528,6.577745295,
0.0053,9.196791522,0.0053,6.577745295,
0.00532,8.465930934,0.00532,6.943175589,
0.00534,7.369640051,0.00534,6.577745295,
0.00536,8.10050064,0.00536,6.943175589,
0.00538,6.273349169,0.00538,6.577745295,
0.0054,6.638779463,0.0054,6.577745295,
0.00542,4.811627992,0.00542,7.308605883,
0.00544,4.080767404,0.00544,6.577745295,
0.00546,4.811627992,0.00546,6.212315001,
0.00548,2.984476521,0.00548,6.943175589,
0.0055,2.253615933,0.0055,6.577745295,
0.00552,1.888185639,0.00552,6.577745295,
0.00554,1.15732505,0.00554,6.943175589,
0.00556,0.06103416773,0.00556,5.846884707,
0.00558,-0.3043961264,0.00558,6.577745295,
0.0056,-2.131547597,0.0056,6.577745295,
0.00562,-5.054989951,0.00562,6.577745295,
0.00564,-3.593268774,0.00564,6.212315001,
0.00566,-3.593268774,0.00566,6.943175589,
0.00568,-6.882141422,0.00568,6.577745295,
0.0057,-5.420420245,0.0057,6.212315001,
0.00572,-7.247571716,0.00572,7.308605883,
0.00574,-7.247571716,0.00574,6.577745295,
0.00576,-8.343862598,0.00576,6.943175589,
0.00578,-7.978432304,0.00578,6.943175589,
0.0058,-6.882141422,0.0058,7.674036178,
0.00582,-6.516711127,0.00582,7.308605883,
0.00584,-5.785850539,0.00584,6.943175589,
0.00586,-6.516711127,0.00586,5.846884707,
0.00588,-6.151280833,0.00588,6.577745295,
0.0059,-4.689559656,0.0059,7.308605883,
0.00592,-6.516711127,0.00592,6.943175589,
0.00594,-2.862408186,0.00594,6.577745295,
0.00596,-2.496977891,0.00596,7.308605883,
0.00598,-2.131547597,0.00598,6.943175589,
0.006,-0.6698264206,0.006,6.577745295,
0.00602,1.15732505,0.00602,6.943175589,
0.00604,0.06103416773,0.00604,6.577745295,
0.00606,4.080767404,0.00606,7.674036178,
0.00608,3.349906815,0.00608,6.943175589,
0.0061,2.253615933,0.0061,6.943175589,
0.00612,3.349906815,0.00612,6.577745295,
0.00614,5.54248858,0.00614,6.943175589,
0.00616,5.177058286,0.00616,6.577745295,
0.00618,6.638779463,0.00618,6.577745295,
0.0062,6.638779463,0.0062,6.943175589,
0.00622,6.638779463,0.00622,6.943175589,
0.00624,7.369640051,0.00624,6.577745295,
0.00626,9.196791522,0.00626,5.481454413,
0.00628,7.735070345,0.00628,6.943175589,
0.0063,7.004209757,0.0063,6.212315001,
0.00632,7.004209757,0.00632,6.212315001,
0.00634,6.273349169,0.00634,6.577745295,
0.00636,5.177058286,0.00636,7.674036178,
0.00638,4.080767404,0.00638,5.481454413,
0.0064,4.446197698,0.0064,6.577745295,
0.00642,2.984476521,0.00642,6.577745295,
0.00644,2.253615933,0.00644,6.212315001,
0.00646,0.7918947561,0.00646,7.308605883,
0.00648,0.7918947561,0.00648,6.943175589,
0.0065,-2.131547597,0.0065,6.212315001,
0.00652,-1.400687009,0.00652,6.577745295,
0.00654,-3.22783848,0.00654,6.577745295,
0.00656,-2.496977891,0.00656,5.481454413,
0.00658,-3.22783848,0.00658,6.577745295,
0.0066,-3.593268774,0.0066,6.212315001,
0.00662,-5.420420245,0.00662,6.577745295,
0.00664,-5.785850539,0.00664,6.577745295,
0.00666,-5.054989951,0.00666,4.750593824,
0.00668,-5.054989951,0.00668,6.577745295,
0.0067,-7.247571716,0.0067,6.943175589,
0.00672,-7.247571716,0.00672,6.943175589,
0.00674,-7.61300201,0.00674,6.212315001,
0.00676,-6.882141422,0.00676,5.481454413,
0.00678,-5.054989951,0.00678,6.577745295,
0.0068,-5.785850539,0.0068,6.212315001,
0.00682,-5.420420245,0.00682,6.943175589,
0.00684,-4.689559656,0.00684,6.212315001,
0.00686,-4.689559656,0.00686,7.674036178,
0.00688,-3.22783848,0.00688,6.577745295,
0.0069,-3.22783848,0.0069,6.577745295,
0.00692,-1.400687009,0.00692,6.212315001,
0.00694,0.06103416773,0.00694,6.943175589,
0.00696,0.7918947561,0.00696,5.846884707,
0.00698,1.522755344,0.00698,5.846884707,
0.007,1.888185639,0.007,6.577745295,
0.00702,3.715337109,0.00702,6.577745295,
0.00704,3.349906815,0.00704,5.846884707,
0.00706,6.273349169,0.00706,6.212315001,
0.00708,8.831361228,0.00708,5.846884707,
0.0071,5.907918874,0.0071,5.846884707,
0.00712,8.10050064,0.00712,7.308605883,
0.00714,6.273349169,0.00714,6.577745295,
0.00716,7.369640051,0.00716,6.943175589,
0.00718,6.638779463,0.00718,6.943175589,
0.0072,7.369640051,0.0072,6.212315001,
0.00722,7.369640051,0.00722,6.212315001,
0.00724,6.638779463,0.00724,6.943175589,
0.00726,7.004209757,0.00726,5.481454413,
0.00728,7.369640051,0.00728,6.212315001,
0.0073,5.54248858,0.0073,6.212315001,
0.00732,4.446197698,0.00732,6.212315001,
0.00734,3.349906815,0.00734,6.212315001,
0.00736,2.619046227,0.00736,7.308605883,
0.00738,2.253615933,0.00738,6.577745295,
0.0074,-1.400687009,0.0074,6.212315001,
0.00742,1.15732505,0.00742,6.943175589,
0.00744,-1.400687009,0.00744,6.943175589,
0.00746,-2.131547597,0.00746,6.943175589,
0.00748,-3.22783848,0.00748,6.943175589,
0.0075,-3.22783848,0.0075,6.577745295,
0.00752,-5.054989951,0.00752,6.212315001,
0.00754,-5.054989951,0.00754,6.577745295,
0.00756,-5.054989951,0.00756,6.212315001,
0.00758,-6.882141422,0.00758,6.943175589,
0.0076,-7.247571716,0.0076,6.577745295,
0.00762,-6.516711127,0.00762,6.577745295,
0.00764,-6.882141422,0.00764,6.577745295,
0.00766,-5.420420245,0.00766,6.212315001,
0.00768,-6.516711127,0.00768,6.212315001,
0.0077,-6.882141422,0.0077,6.943175589,
0.00772,-7.978432304,0.00772,6.212315001,
0.00774,-5.420420245,0.00774,6.577745295,
0.00776,-5.054989951,0.00776,6.943175589,
0.00778,-3.958699068,0.00778,6.577745295,
0.0078,-3.958699068,0.0078,6.212315001,
0.00782,-2.131547597,0.00782,7.308605883,
0.00784,-2.496977891,0.00784,6.577745295,
0.00786,-1.766117303,0.00786,6.577745295,
0.00788,-0.6698264206,0.00788,6.577745295,
0.0079,1.15732505,0.0079,6.577745295,
0.00792,0.7918947561,0.00792,6.577745295,
0.00794,2.984476521,0.00794,6.943175589,
0.00796,2.984476521,0.00796,6.577745295,
0.00798,4.080767404,0.00798,6.577745295,
0.008,4.446197698,0.008,7.308605883,
0.00802,5.907918874,0.00802,6.577745295,
0.00804,6.273349169,0.00804,6.212315001,
0.00806,7.735070345,0.00806,6.577745295,
0.00808,7.004209757,0.00808,6.577745295,
0.0081,7.369640051,0.0081,6.577745295,
0.00812,7.369640051,0.00812,6.943175589,
0.00814,7.004209757,0.00814,6.577745295,
0.00816,7.004209757,0.00816,6.577745295,
0.00818,8.10050064,0.00818,6.943175589,
0.0082,7.369640051,0.0082,6.943175589,
0.00822,6.638779463,0.00822,6.577745295,
0.00824,4.446197698,0.00824,6.577745295,
0.00826,6.638779463,0.00826,6.577745295,
0.00828,3.715337109,0.00828,7.308605883,
0.0083,0.7918947561,0.0083,6.577745295,
0.00832,2.253615933,0.00832,6.212315001,
0.00834,-0.3043961264,0.00834,6.943175589,
0.00836,-1.035256715,0.00836,6.943175589,
0.00838,-2.131547597,0.00838,7.308605883,
0.0084,-2.131547597,0.0084,7.674036178,
0.00842,-1.766117303,0.00842,6.212315001,
0.00844,-1.766117303,0.00844,6.577745295,
0.00846,-5.420420245,0.00846,7.308605883,
0.00848,-5.054989951,0.00848,6.212315001,
0.0085,-5.054989951,0.0085,6.577745295,
0.00852,-5.420420245,0.00852,7.308605883,
0.00854,-6.882141422,0.00854,6.577745295,
0.00856,-6.151280833,0.00856,6.577745295,
0.00858,-6.882141422,0.00858,6.943175589,
0.0086,-8.343862598,0.0086,6.577745295,
0.00862,-6.882141422,0.00862,6.577745295,
0.00864,-6.516711127,0.00864,6.943175589,
0.00866,-6.151280833,0.00866,6.577745295,
0.00868,-5.785850539,0.00868,6.212315001,
0.0087,-5.420420245,0.0087,6.943175589,
0.00872,-4.689559656,0.00872,6.577745295,
0.00874,-3.593268774,0.00874,6.212315001,
0.00876,-5.054989951,0.00876,7.308605883,
0.00878,-2.496977891,0.00878,6.577745295,
0.0088,-0.6698264206,0.0088,5.846884707,
0.00882,0.4264644619,0.00882,6.943175589,
0.00884,0.7918947561,0.00884,6.943175589,
0.00886,1.522755344,0.00886,6.212315001,
0.00888,4.446197698,0.00888,6.943175589,
0.0089,2.984476521,0.0089,6.943175589,
0.00892,4.446197698,0.00892,6.577745295,
0.00894,4.446197698,0.00894,7.308605883,
0.00896,5.177058286,0.00896,6.577745295,
0.00898,6.273349169,0.00898,6.577745295,
0.009,9.562221816,0.009,7.308605883,
0.00902,7.004209757,0.00902,6.212315001,
0.00904,7.004209757,0.00904,6.577745295,
0.00906,7.004209757,0.00906,7.308605883,
0.00908,7.004209757,0.00908,6.577745295,
0.0091,7.369640051,0.0091,5.846884707,
0.00912,6.638779463,0.00912,7.308605883,
0.00914,4.811627992,0.00914,6.577745295,
0.00916,4.811627992,0.00916,5.846884707,
0.00918,3.715337109,0.00918,7.308605883,
0.0092,3.715337109,0.0092,7.308605883,
0.00922,2.984476521,0.00922,6.212315001,
0.00924,1.15732505,0.00924,6.943175589,
0.00926,-0.3043961264,0.00926,6.943175589,
0.00928,0.4264644619,0.00928,6.577745295,
0.0093,-1.035256715,0.0093,7.308605883,
0.00932,-1.035256715,0.00932,6.577745295,
0.00934,-2.862408186,0.00934,5.846884707,
0.00936,-3.593268774,0.00936,6.943175589,
0.00938,-5.054989951,0.00938,6.577745295,
0.0094,-5.054989951,0.0094,6.577745295,
0.00942,-4.689559656,0.00942,6.943175589,
0.00944,-6.516711127,0.00944,6.577745295,
0.00946,-4.324129362,0.00946,6.212315001,
0.00948,-7.247571716,0.00948,6.577745295,
0.0095,-6.516711127,0.0095,6.577745295,
0.00952,-6.516711127,0.00952,6.577745295,
0.00954,-7.247571716,0.00954,7.308605883,
0.00956,-6.516711127,0.00956,6.943175589,
0.00958,-5.420420245,0.00958,6.577745295,
0.0096,-6.151280833,0.0096,7.308605883,
0.00962,-5.054989951,0.00962,6.577745295,
0.00964,-5.785850539,0.00964,7.674036178,
0.00966,-3.958699068,0.00966,7.308605883,
0.00968,-2.862408186,0.00968,8.039466472,
0.0097,-5.420420245,0.0097,6.577745295,
0.00972,-1.400687009,0.00972,6.943175589,
0.00974,0.06103416773,0.00974,6.943175589,
0.00976,-1.035256715,0.00976,6.212315001,
0.00978,1.888185639,0.00978,8.039466472,
0.0098,1.888185639,0.0098,6.577745295,
0.00982,3.715337109,0.00982,6.943175589,
0.00984,4.446197698,0.00984,7.308605883,
0.00986,5.177058286,0.00986,6.577745295,
0.00988,5.177058286,0.00988,6.577745295,
0.0099,6.273349169,0.0099,7.308605883,
0.00992,6.273349169,0.00992,6.577745295,
0.00994,6.638779463,0.00994,5.846884707,
0.00996,7.735070345,0.00996,6.943175589,
0.00998,4.446197698,0.00998,5.481454413,
0.01,7.369640051,0.01,5.846884707,
0.01002,7.369640051,0.01002,6.943175589,
0.01004,6.273349169,0.01004,6.577745295,
0.01006,6.273349169,0.01006,6.212315001,
0.01008,5.54248858,0.01008,7.308605883,
0.0101,5.54248858,0.0101,6.212315001,
0.01012,4.446197698,0.01012,6.577745295,
0.01014,6.273349169,0.01014,6.943175589,
0.01016,1.888185639,0.01016,6.943175589,
0.01018,1.888185639,0.01018,6.212315001,
0.0102,0.7918947561,0.0102,6.943175589,
0.01022,0.7918947561,0.01022,6.577745295,
0.01024,-0.3043961264,0.01024,6.577745295,
0.01026,-3.593268774,0.01026,6.577745295,
0.01028,-2.862408186,0.01028,5.846884707,
0.0103,-3.22783848,0.0103,6.577745295,
0.01032,-2.496977891,0.01032,6.943175589,
0.01034,-3.958699068,0.01034,6.577745295,
0.01036,-5.420420245,0.01036,6.943175589,
0.01038,-6.516711127,0.01038,7.308605883,
0.0104,-6.882141422,0.0104,6.943175589,
0.01042,-5.785850539,0.01042,6.577745295,
0.01044,-8.709292892,0.01044,6.943175589,
0.01046,-7.61300201,0.01046,7.308605883,
0.01048,-7.61300201,0.01048,6.943175589,
0.0105,-6.516711127,0.0105,6.943175589,
0.01052,-7.61300201,0.01052,6.943175589,
0.01054,-5.785850539,0.01054,6.577745295,
0.01056,-4.324129362,0.01056,7.308605883,
0.01058,-3.958699068,0.01058,6.212315001,
0.0106,-5.054989951,0.0106,6.577745295,
0.01062,-3.958699068,0.01062,6.943175589,
0.01064,-2.131547597,0.01064,6.577745295,
0.01066,-0.6698264206,0.01066,6.943175589,
0.01068,-0.6698264206,0.01068,7.308605883,
0.0107,0.06103416773,0.0107,6.212315001,
0.01072,1.888185639,0.01072,6.577745295,
0.01074,1.888185639,0.01074,6.943175589,
0.01076,2.984476521,0.01076,6.943175589,
0.01078,5.177058286,0.01078,6.943175589,
0.0108,5.54248858,0.0108,6.943175589,
0.01082,6.273349169,0.01082,6.577745295,
0.01084,7.369640051,0.01084,6.943175589,
0.01086,6.273349169,0.01086,6.577745295,
0.01088,4.080767404,0.01088,6.212315001,
0.0109,7.004209757,0.0109,6.212315001,
0.01092,6.638779463,0.01092,6.943175589,
0.01094,6.638779463,0.01094,6.943175589,
0.01096,8.831361228,0.01096,6.577745295,
0.01098,7.369640051,0.01098,7.674036178,
0.011,6.638779463,0.011,6.577745295,
0.01102,5.907918874,0.01102,6.943175589,
0.01104,5.54248858,0.01104,6.943175589,
0.01106,5.177058286,0.01106,6.577745295,
0.01108,4.080767404,0.01108,6.577745295,
0.0111,2.984476521,0.0111,6.943175589,
0.01112,1.522755344,0.01112,6.943175589,
0.01114,1.522755344,0.01114,6.577745295,
0.01116,0.06103416773,0.01116,6.577745295,
0.01118,-1.400687009,0.01118,6.577745295,
0.0112,-2.496977891,0.0112,6.577745295,
0.01122,-2.862408186,0.01122,6.577745295,
0.01124,-4.689559656,0.01124,6.943175589,
0.01126,-6.151280833,0.01126,6.212315001,
0.01128,-5.785850539,0.01128,6.943175589,
0.0113,-5.054989951,0.0113,6.943175589,
0.01132,-5.785850539,0.01132,6.577745295,
0.01134,-6.882141422,0.01134,6.943175589,
0.01136,-7.247571716,0.01136,6.577745295,
0.01138,-7.247571716,0.01138,6.943175589,
0.0114,-3.593268774,0.0114,6.943175589,
0.01142,-6.516711127,0.01142,6.943175589,
0.01144,-6.882141422,0.01144,6.577745295,
0.01146,-5.054989951,0.01146,6.943175589,
0.01148,-5.420420245,0.01148,6.577745295,
0.0115,-5.785850539,0.0115,6.577745295,
0.01152,-2.496977891,0.01152,7.308605883,
0.01154,-2.496977891,0.01154,6.577745295,
0.01156,-2.131547597,0.01156,6.577745295,
0.01158,-1.766117303,0.01158,6.943175589,
0.0116,-2.131547597,0.0116,6.943175589,
0.01162,-0.3043961264,0.01162,6.943175589,
0.01164,0.7918947561,0.01164,6.577745295,
0.01166,0.4264644619,0.01166,6.577745295,
0.01168,2.984476521,0.01168,6.943175589,
0.0117,5.177058286,0.0117,6.943175589,
0.01172,4.446197698,0.01172,6.577745295,
0.01174,5.54248858,0.01174,6.577745295,
0.01176,5.177058286,0.01176,6.943175589,
0.01178,5.907918874,0.01178,6.577745295,
0.0118,8.465930934,0.0118,6.577745295,
0.01182,7.369640051,0.01182,6.943175589,
0.01184,7.369640051,0.01184,6.943175589,
0.01186,8.831361228,0.01186,6.577745295,
0.01188,7.735070345,0.01188,6.943175589,
0.0119,6.273349169,0.0119,6.577745295,
0.01192,6.638779463,0.01192,6.212315001,
0.01194,5.907918874,0.01194,7.308605883,
0.01196,5.177058286,0.01196,6.943175589,
0.01198,5.907918874,0.01198,6.212315001,
0.012,2.984476521,0.012,6.943175589,
0.01202,4.080767404,0.01202,6.212315001,
0.01204,2.253615933,0.01204,6.943175589,
0.01206,0.7918947561,0.01206,6.212315001,
0.01208,-1.035256715,0.01208,6.577745295,
0.0121,1.888185639,0.0121,6.577745295,
0.01212,-1.400687009,0.01212,6.212315001,
0.01214,-2.131547597,0.01214,6.943175589,
0.01216,-2.862408186,0.01216,6.943175589,
0.01218,-4.689559656,0.01218,6.212315001,
0.0122,-3.593268774,0.0122,6.943175589,
0.01222,-5.785850539,0.01222,6.577745295,
0.01224,-6.151280833,0.01224,5.846884707,
0.01226,-6.151280833,0.01226,7.308605883,
0.01228,-6.516711127,0.01228,6.943175589,
0.0123,-7.61300201,0.0123,6.212315001,
0.01232,-5.420420245,0.01232,6.577745295,
0.01234,-5.785850539,0.01234,6.577745295,
0.01236,-6.516711127,0.01236,6.577745295,
0.01238,-6.882141422,0.01238,6.943175589,
0.0124,-5.420420245,0.0124,6.577745295,
0.01242,-5.420420245,0.01242,6.212315001,
0.01244,-3.22783848,0.01244,6.212315001,
0.01246,-5.054989951,0.01246,6.577745295,
0.01248,-3.22783848,0.01248,6.943175589,
0.0125,-1.400687009,0.0125,6.577745295,
0.01252,-1.400687009,0.01252,6.943175589,
0.01254,-0.3043961264,0.01254,6.577745295,
0.01256,0.7918947561,0.01256,6.577745295,
0.01258,0.4264644619,0.01258,6.577745295,
0.0126,0.7918947561,0.0126,6.943175589,
0.01262,2.984476521,0.01262,6.943175589,
0.01264,3.715337109,0.01264,6.212315001,
0.01266,5.177058286,0.01266,6.943175589,
0.01268,5.54248858,0.01268,6.943175589,
0.0127,5.907918874,0.0127,6.943175589,
0.01272,7.369640051,0.01272,6.577745295,
0.01274,7.004209757,0.01274,5.846884707,
0.01276,7.735070345,0.01276,6.943175589,
0.01278,7.735070345,0.01278,6.577745295,
0.0128,8.10050064,0.0128,6.577745295,
0.01282,7.369640051,0.01282,7.308605883,
0.01284,7.004209757,0.01284,6.577745295,
0.01286,5.54248858,0.01286,6.577745295,
0.01288,7.004209757,0.01288,7.308605883,
0.0129,5.907918874,0.0129,6.212315001,
0.01292,4.446197698,0.01292,6.577745295,
0.01294,3.715337109,0.01294,7.308605883,
0.01296,2.619046227,0.01296,6.943175589,
0.01298,2.984476521,0.01298,7.308605883,
0.013,1.15732505,0.013,6.577745295,
0.01302,0.06103416773,0.01302,6.943175589,
0.01304,-1.766117303,0.01304,6.943175589,
0.01306,-2.496977891,0.01306,6.943175589,
0.01308,-2.862408186,0.01308,6.943175589,
0.0131,-3.593268774,0.0131,7.308605883,
0.01312,-5.054989951,0.01312,7.674036178,
0.01314,-4.689559656,0.01314,6.577745295,
0.01316,-6.151280833,0.01316,6.943175589,
0.01318,-5.420420245,0.01318,6.943175589,
0.0132,-7.978432304,0.0132,6.577745295,
0.01322,-6.516711127,0.01322,6.577745295,
0.01324,-7.247571716,0.01324,6.943175589,
0.01326,-6.516711127,0.01326,6.577745295,
0.01328,-8.709292892,0.01328,6.943175589,
0.0133,-7.247571716,0.0133,5.846884707,
0.01332,-5.785850539,0.01332,6.577745295,
0.01334,-5.785850539,0.01334,6.577745295,
0.01336,-5.054989951,0.01336,6.577745295,
0.01338,-3.593268774,0.01338,6.212315001,
0.0134,-3.593268774,0.0134,7.308605883,
0.01342,-2.496977891,0.01342,6.943175589,
0.01344,-2.496977891,0.01344,6.577745295,
0.01346,-2.131547597,0.01346,6.577745295,
0.01348,-1.766117303,0.01348,6.943175589,
0.0135,0.7918947561,0.0135,6.577745295,
0.01352,1.888185639,0.01352,6.943175589,
0.01354,2.253615933,0.01354,6.943175589,
0.01356,2.984476521,0.01356,6.943175589,
0.01358,3.715337109,0.01358,7.308605883,
0.0136,4.080767404,0.0136,5.846884707,
0.01362,6.273349169,0.01362,6.943175589,
0.01364,5.54248858,0.01364,6.943175589,
0.01366,6.273349169,0.01366,6.943175589,
0.01368,6.638779463,0.01368,7.308605883,
0.0137,6.273349169,0.0137,8.404896766,
0.01372,6.638779463,0.01372,6.943175589,
0.01374,7.369640051,0.01374,6.577745295,
0.01376,7.004209757,0.01376,6.943175589,
0.01378,6.638779463,0.01378,6.943175589,
0.0138,8.465930934,0.0138,8.039466472,
0.01382,5.177058286,0.01382,6.577745295,
0.01384,4.080767404,0.01384,6.577745295,
0.01386,3.715337109,0.01386,6.943175589,
0.01388,3.715337109,0.01388,6.943175589,
0.0139,2.984476521,0.0139,4.750593824,
0.01392,1.888185639,0.01392,6.577745295,
0.01394,0.7918947561,0.01394,6.577745295,
0.01396,-2.131547597,0.01396,6.577745295,
0.01398,-0.3043961264,0.01398,6.577745295,
0.014,-2.131547597,0.014,6.943175589,
0.01402,-3.593268774,0.01402,6.577745295,
0.01404,-3.593268774,0.01404,5.846884707,
0.01406,-4.689559656,0.01406,7.308605883,
0.01408,-5.785850539,0.01408,6.577745295,
0.0141,-6.882141422,0.0141,7.674036178,
0.01412,-3.22783848,0.01412,6.577745295,
0.01414,-8.343862598,0.01414,6.577745295,
0.01416,-6.882141422,0.01416,6.577745295,
0.01418,-6.516711127,0.01418,6.943175589,
0.0142,-7.247571716,0.0142,7.674036178,
0.01422,-6.882141422,0.01422,6.577745295,
0.01424,-4.689559656,0.01424,6.943175589,
0.01426,-5.785850539,0.01426,6.577745295,
0.01428,-4.689559656,0.01428,6.577745295,
0.0143,-5.420420245,0.0143,6.577745295,
0.01432,-5.420420245,0.01432,7.308605883,
0.01434,-1.766117303,0.01434,6.943175589,
0.01436,-3.22783848,0.01436,6.943175589,
0.01438,-2.496977891,0.01438,6.943175589,
0.0144,0.06103416773,0.0144,5.846884707,
0.01442,2.253615933,0.01442,6.943175589,
0.01444,0.7918947561,0.01444,6.943175589,
0.01446,1.888185639,0.01446,6.943175589,
0.01448,2.619046227,0.01448,6.943175589,
0.0145,3.715337109,0.0145,8.039466472,
0.01452,5.177058286,0.01452,6.943175589,
0.01454,7.004209757,0.01454,7.308605883,
0.01456,5.177058286,0.01456,7.308605883,
0.01458,7.735070345,0.01458,6.577745295,
0.0146,6.273349169,0.0146,6.577745295,
0.01462,6.273349169,0.01462,6.943175589,
0.01464,7.369640051,0.01464,6.943175589,
0.01466,8.465930934,0.01466,6.943175589,
0.01468,6.273349169,0.01468,6.577745295,
0.0147,7.369640051,0.0147,5.116024118,
0.01472,7.004209757,0.01472,7.308605883,
0.01474,5.54248858,0.01474,6.577745295,
0.01476,5.54248858,0.01476,6.212315001,
0.01478,4.811627992,0.01478,6.943175589,
0.0148,4.446197698,0.0148,6.943175589,
0.01482,3.715337109,0.01482,6.577745295,
0.01484,3.349906815,0.01484,6.577745295,
0.01486,-0.3043961264,0.01486,6.943175589,
0.01488,0.7918947561,0.01488,6.577745295,
0.0149,-1.400687009,0.0149,6.943175589,
0.01492,-1.400687009,0.01492,6.943175589,
0.01494,-0.6698264206,0.01494,6.577745295,
0.01496,-3.958699068,0.01496,6.212315001,
0.01498,-3.958699068,0.01498,6.577745295,
0.015,-5.785850539,0.015,6.943175589,
0.01502,-6.151280833,0.01502,6.212315001,
0.01504,-6.882141422,0.01504,6.577745295,
0.01506,-6.151280833,0.01506,6.577745295,
0.01508,-6.516711127,0.01508,6.212315001,
0.0151,-7.247571716,0.0151,6.212315001,
0.01512,-5.785850539,0.01512,6.577745295,
0.01514,-7.247571716,0.01514,6.212315001,
0.01516,-5.785850539,0.01516,6.943175589,
0.01518,-2.862408186,0.01518,6.212315001,
0.0152,-6.151280833,0.0152,5.846884707,
0.01522,-6.151280833,0.01522,6.577745295,
0.01524,-3.593268774,0.01524,6.212315001,
0.01526,-4.324129362,0.01526,5.846884707,
0.01528,-3.593268774,0.01528,6.577745295,
0.0153,-1.766117303,0.0153,6.943175589,
0.01532,-2.131547597,0.01532,6.212315001,
0.01534,0.4264644619,0.01534,6.943175589,
0.01536,0.7918947561,0.01536,6.577745295,
0.01538,0.7918947561,0.01538,6.212315001,
0.0154,1.888185639,0.0154,6.577745295,
0.01542,2.619046227,0.01542,6.943175589,
0.01544,4.080767404,0.01544,6.212315001,
0.01546,7.735070345,0.01546,6.577745295,
0.01548,6.273349169,0.01548,6.577745295,
0.0155,5.54248858,0.0155,6.212315001,
0.01552,7.369640051,0.01552,6.577745295,
0.01554,6.273349169,0.01554,6.577745295,
0.01556,7.004209757,0.01556,6.212315001,
0.01558,8.465930934,0.01558,6.577745295,
0.0156,8.10050064,0.0156,6.577745295,
0.01562,5.54248858,0.01562,6.577745295,
0.01564,9.196791522,0.01564,6.577745295,
0.01566,7.004209757,0.01566,6.577745295,
0.01568,4.811627992,0.01568,5.846884707,
0.0157,5.54248858,0.0157,6.577745295,
0.01572,4.811627992,0.01572,6.577745295,
0.01574,2.619046227,0.01574,6.212315001,
0.01576,3.349906815,0.01576,6.943175589,
0.01578,1.888185639,0.01578,6.577745295,
0.0158,-0.3043961264,0.0158,6.212315001,
0.01582,0.06103416773,0.01582,6.577745295,
0.01584,-0.6698264206,0.01584,6.577745295,
0.01586,-2.131547597,0.01586,6.212315001,
0.01588,-2.496977891,0.01588,6.943175589,
0.0159,-3.958699068,0.0159,6.577745295,
0.01592,-3.958699068,0.01592,6.577745295,
0.01594,-3.958699068,0.01594,6.577745295,
0.01596,-6.151280833,0.01596,6.212315001,
0.01598,-6.151280833,0.01598,6.212315001,
0.016,-7.61300201,0.016,6.943175589,
0.01602,-6.882141422,0.01602,6.577745295,
0.01604,-6.882141422,0.01604,6.212315001,
0.01606,-7.247571716,0.01606,6.577745295,
0.01608,-6.516711127,0.01608,6.943175589,
0.0161,-7.247571716,0.0161,6.577745295,
0.01612,-6.151280833,0.01612,7.674036178,
0.01614,-4.689559656,0.01614,6.943175589,
0.01616,-6.882141422,0.01616,6.212315001,
0.01618,-4.324129362,0.01618,6.577745295,
0.0162,-2.496977891,0.0162,6.577745295,
0.01622,-3.22783848,0.01622,6.212315001,
0.01624,-1.400687009,0.01624,6.577745295,
0.01626,-0.6698264206,0.01626,6.212315001,
0.01628,0.06103416773,0.01628,6.577745295,
0.0163,1.888185639,0.0163,6.577745295,
0.01632,2.619046227,0.01632,6.577745295,
0.01634,1.888185639,0.01634,6.212315001,
0.01636,4.080767404,0.01636,6.577745295,
0.01638,4.446197698,0.01638,6.577745295,
0.0164,4.811627992,0.0164,6.212315001,
0.01642,7.004209757,0.01642,6.577745295,
0.01644,7.004209757,0.01644,6.577745295,
0.01646,6.638779463,0.01646,6.212315001,
0.01648,7.369640051,0.01648,6.943175589,
0.0165,7.735070345,0.0165,6.212315001,
0.01652,7.369640051,0.01652,6.212315001,
0.01654,7.735070345,0.01654,6.577745295,
0.01656,5.907918874,0.01656,6.577745295,
0.01658,6.638779463,0.01658,5.846884707,
0.0166,6.273349169,0.0166,6.577745295,
0.01662,5.907918874,0.01662,6.212315001,
0.01664,3.349906815,0.01664,6.212315001,
0.01666,3.349906815,0.01666,6.577745295,
0.01668,2.619046227,0.01668,6.212315001,
0.0167,2.253615933,0.0167,6.577745295,
0.01672,1.522755344,0.01672,6.577745295,
0.01674,0.06103416773,0.01674,6.212315001,
0.01676,-1.035256715,0.01676,6.212315001,
0.01678,-2.496977891,0.01678,6.577745295,
0.0168,-3.593268774,0.0168,6.577745295,
0.01682,-3.22783848,0.01682,6.943175589,
0.01684,-4.324129362,0.01684,6.577745295,
0.01686,-5.420420245,0.01686,6.577745295,
0.01688,-6.516711127,0.01688,6.943175589,
0.0169,-5.785850539,0.0169,6.577745295,
0.01692,-5.785850539,0.01692,6.577745295,
0.01694,-6.516711127,0.01694,6.943175589,
0.01696,-7.247571716,0.01696,6.577745295,
0.01698,-6.516711127,0.01698,6.943175589,
0.017,-6.882141422,0.017,7.308605883,
0.01702,-6.882141422,0.01702,6.943175589,
0.01704,-7.61300201,0.01704,6.943175589,
0.01706,-5.785850539,0.01706,6.943175589,
0.01708,-5.785850539,0.01708,6.943175589,
0.0171,-5.420420245,0.0171,6.577745295,
0.01712,-5.054989951,0.01712,6.212315001,
0.01714,-4.324129362,0.01714,6.577745295,
0.01716,-4.324129362,0.01716,6.577745295,
0.01718,-1.400687009,0.01718,6.943175589,
0.0172,-1.035256715,0.0172,6.577745295,
0.01722,0.06103416773,0.01722,6.943175589,
0.01724,1.15732505,0.01724,6.943175589,
0.01726,2.253615933,0.01726,6.943175589,
0.01728,2.984476521,0.01728,6.577745295,
0.0173,4.080767404,0.0173,6.943175589,
0.01732,4.811627992,0.01732,7.308605883,
0.01734,6.273349169,0.01734,6.212315001,
0.01736,5.54248858,0.01736,6.943175589,
0.01738,5.907918874,0.01738,6.577745295,
0.0174,6.638779463,0.0174,6.943175589,
0.01742,7.369640051,0.01742,5.846884707,
0.01744,7.369640051,0.01744,6.943175589,
0.01746,6.273349169,0.01746,6.577745295,
0.01748,6.273349169,0.01748,6.943175589,
0.0175,6.273349169,0.0175,6.577745295,
0.01752,7.004209757,0.01752,7.308605883,
0.01754,6.273349169,0.01754,7.308605883,
0.01756,3.715337109,0.01756,6.577745295,
0.01758,4.811627992,0.01758,6.212315001,
0.0176,4.080767404,0.0176,6.212315001,
0.01762,3.715337109,0.01762,6.212315001,
0.01764,2.619046227,0.01764,6.212315001,
0.01766,1.888185639,0.01766,6.943175589,
0.01768,-1.035256715,0.01768,6.577745295,
0.0177,-0.6698264206,0.0177,6.577745295,
0.01772,-1.766117303,0.01772,6.212315001,
0.01774,-3.593268774,0.01774,6.943175589,
0.01776,-4.324129362,0.01776,6.212315001,
0.01778,-4.689559656,0.01778,6.212315001,
0.0178,-6.151280833,0.0178,5.846884707,
0.01782,-5.420420245,0.01782,7.674036178,
0.01784,-8.343862598,0.01784,6.943175589,
0.01786,-7.61300201,0.01786,6.943175589,
0.01788,-7.247571716,0.01788,6.577745295,
0.0179,-7.978432304,0.0179,6.943175589,
0.01792,-6.882141422,0.01792,6.577745295,
0.01794,-6.882141422,0.01794,6.577745295,
0.01796,-6.151280833,0.01796,6.212315001,
0.01798,-1.400687009,0.01798,6.212315001,
0.018,-4.689559656,0.018,6.212315001,
0.01802,-5.420420245,0.01802,5.481454413,
0.01804,-5.054989951,0.01804,6.212315001,
0.01806,-3.958699068,0.01806,6.577745295,
0.01808,-2.131547597,0.01808,6.212315001,
0.0181,-1.400687009,0.0181,6.577745295,
0.01812,-0.3043961264,0.01812,7.308605883,
0.01814,-1.035256715,0.01814,5.846884707,
0.01816,0.4264644619,0.01816,6.577745295,
0.01818,2.619046227,0.01818,6.577745295,
0.0182,2.984476521,0.0182,6.577745295,
0.01822,3.349906815,0.01822,6.212315001,
0.01824,5.907918874,0.01824,6.577745295,
0.01826,5.177058286,0.01826,6.212315001,
0.01828,6.273349169,0.01828,6.577745295,
0.0183,5.907918874,0.0183,6.212315001,
0.01832,6.638779463,0.01832,6.212315001,
0.01834,6.273349169,0.01834,6.577745295,
0.01836,8.465930934,0.01836,6.577745295,
0.01838,7.369640051,0.01838,6.577745295,
0.0184,8.831361228,0.0184,6.577745295,
0.01842,7.369640051,0.01842,6.943175589,
0.01844,8.465930934,0.01844,6.577745295,
0.01846,7.004209757,0.01846,6.577745295,
0.01848,6.638779463,0.01848,6.577745295,
0.0185,4.446197698,0.0185,6.212315001,
0.01852,4.811627992,0.01852,6.212315001,
0.01854,3.349906815,0.01854,6.943175589,
0.01856,1.15732505,0.01856,6.212315001,
0.01858,0.7918947561,0.01858,6.577745295,
0.0186,1.15732505,0.0186,6.577745295,
0.01862,-0.6698264206,0.01862,5.846884707,
0.01864,-0.6698264206,0.01864,6.577745295,
0.01866,-1.766117303,0.01866,6.943175589,
0.01868,0.06103416773,0.01868,6.943175589,
0.0187,-3.593268774,0.0187,6.943175589,
0.01872,-4.324129362,0.01872,6.943175589,
0.01874,-3.958699068,0.01874,6.212315001,
0.01876,-3.593268774,0.01876,6.577745295,
0.01878,-5.785850539,0.01878,6.577745295,
0.0188,-5.785850539,0.0188,5.846884707,
0.01882,-8.709292892,0.01882,6.577745295,
0.01884,-6.516711127,0.01884,6.577745295,
0.01886,-7.247571716,0.01886,6.577745295,
0.01888,-6.516711127,0.01888,6.577745295,
0.0189,-6.151280833,0.0189,6.577745295,
0.01892,-8.343862598,0.01892,5.846884707,
0.01894,-6.151280833,0.01894,6.577745295,
0.01896,-5.054989951,0.01896,6.577745295,
0.01898,-4.689559656,0.01898,6.212315001,
0.019,-1.766117303,0.019,6.577745295,
0.01902,-2.131547597,0.01902,6.577745295,
0.01904,-5.054989951,0.01904,6.212315001,
0.01906,-0.6698264206,0.01906,6.577745295,
0.01908,-0.6698264206,0.01908,7.308605883,
0.0191,0.7918947561,0.0191,6.577745295,
0.01912,2.984476521,0.01912,6.577745295,
0.01914,6.273349169,0.01914,6.577745295,
0.01916,4.446197698,0.01916,6.577745295,
0.01918,4.811627992,0.01918,6.212315001,
0.0192,4.811627992,0.0192,6.577745295,
0.01922,5.177058286,0.01922,6.212315001,
0.01924,7.004209757,0.01924,6.577745295,
0.01926,7.369640051,0.01926,6.212315001,
0.01928,7.369640051,0.01928,6.212315001,
0.0193,7.369640051,0.0193,6.943175589,
0.01932,7.369640051,0.01932,6.212315001,
0.01934,4.446197698,0.01934,6.212315001,
0.01936,6.638779463,0.01936,6.943175589,
0.01938,7.735070345,0.01938,6.577745295,
0.0194,5.54248858,0.0194,6.212315001,
0.01942,6.273349169,0.01942,6.577745295,
0.01944,4.811627992,0.01944,6.212315001,
0.01946,2.619046227,0.01946,6.212315001,
0.01948,1.15732505,0.01948,6.577745295,
0.0195,2.253615933,0.0195,6.943175589,
0.01952,2.253615933,0.01952,5.846884707,
0.01954,0.06103416773,0.01954,6.943175589,
0.01956,-0.6698264206,0.01956,6.577745295,
0.01958,-0.6698264206,0.01958,6.212315001,
0.0196,-1.766117303,0.0196,6.577745295,
0.01962,-3.22783848,0.01962,6.212315001,
0.01964,-3.958699068,0.01964,6.577745295,
0.01966,-3.958699068,0.01966,7.308605883,
0.01968,-4.689559656,0.01968,5.846884707,
0.0197,-6.151280833,0.0197,6.212315001,
0.01972,-6.516711127,0.01972,6.577745295,
0.01974,-6.151280833,0.01974,6.577745295,
0.01976,-7.61300201,0.01976,6.577745295,
0.01978,-6.882141422,0.01978,6.943175589,
0.0198,-8.709292892,0.0198,6.577745295,
0.01982,-6.882141422,0.01982,6.212315001,
0.01984,-6.516711127,0.01984,7.308605883,
0.01986,-6.151280833,0.01986,6.577745295,
0.01988,-5.785850539,0.01988,6.577745295,
0.0199,-4.689559656,0.0199,7.674036178,
0.01992,-3.958699068,0.01992,6.212315001,
0.01994,-6.516711127,0.01994,7.308605883,
0.01996,-2.131547597,0.01996,6.943175589,
0.01998,-1.035256715,0.01998,6.212315001,
0.02,-0.6698264206,0.02,6.577745295,
0.02002,1.522755344,0.02002,6.943175589,
0.02004,1.888185639,0.02004,6.212315001,
0.02006,1.888185639,0.02006,6.577745295,
0.02008,2.253615933,0.02008,6.943175589,
0.0201,2.984476521,0.0201,6.943175589,
0.02012,4.811627992,0.02012,6.577745295,
0.02014,6.273349169,0.02014,6.943175589,
0.02016,5.54248858,0.02016,6.212315001,
0.02018,7.004209757,0.02018,6.577745295,
0.0202,7.369640051,0.0202,7.308605883,
0.02022,6.638779463,0.02022,6.577745295,
0.02024,7.369640051,0.02024,6.577745295,
0.02026,7.369640051,0.02026,7.308605883,
0.02028,5.907918874,0.02028,6.212315001,
0.0203,5.907918874,0.0203,7.308605883,
0.02032,6.638779463,0.02032,7.308605883,
0.02034,4.811627992,0.02034,6.577745295,
0.02036,4.811627992,0.02036,6.577745295,
0.02038,4.811627992,0.02038,7.308605883,
0.0204,2.619046227,0.0204,6.577745295,
0.02042,2.253615933,0.02042,6.212315001,
0.02044,1.522755344,0.02044,6.212315001,
0.02046,0.4264644619,0.02046,6.577745295,
0.02048,-2.131547597,0.02048,6.577745295,
0.0205,-0.3043961264,0.0205,7.308605883,
0.02052,-3.22783848,0.02052,6.212315001,
0.02054,-2.496977891,0.02054,5.846884707,
0.02056,-6.151280833,0.02056,6.943175589,
0.02058,-6.516711127,0.02058,6.212315001,
0.0206,-5.054989951,0.0206,6.212315001,
0.02062,-5.054989951,0.02062,6.943175589,
0.02064,-6.151280833,0.02064,7.308605883,
0.02066,-7.247571716,0.02066,6.577745295,
0.02068,-6.151280833,0.02068,6.577745295,
0.0207,-6.882141422,0.0207,6.577745295,
0.02072,-7.247571716,0.02072,6.212315001,
0.02074,-6.882141422,0.02074,6.577745295,
0.02076,-7.61300201,0.02076,6.943175589,
0.02078,-6.151280833,0.02078,6.577745295,
0.0208,-6.516711127,0.0208,6.943175589,
0.02082,-5.785850539,0.02082,6.943175589,
0.02084,-6.882141422,0.02084,6.212315001,
0.02086,-5.054989951,0.02086,7.308605883,
0.02088,-3.22783848,0.02088,6.577745295,
0.0209,-2.862408186,0.0209,6.577745295,
0.02092,-1.035256715,0.02092,6.943175589,
0.02094,-1.766117303,0.02094,8.404896766,
0.02096,1.522755344,0.02096,6.577745295,
0.02098,1.15732505,0.02098,7.308605883,
0.021,2.619046227,0.021,6.943175589,
0.02102,3.715337109,0.02102,6.577745295,
0.02104,4.446197698,0.02104,5.481454413,
0.02106,3.349906815,0.02106,6.943175589,
0.02108,5.177058286,0.02108,6.577745295,
0.0211,5.907918874,0.0211,7.308605883,
0.02112,5.907918874,0.02112,6.577745295,
0.02114,7.369640051,0.02114,6.577745295,
0.02116,8.10050064,0.02116,7.308605883,
0.02118,6.638779463,0.02118,6.212315001,
0.0212,7.004209757,0.0212,6.212315001,
0.02122,7.369640051,0.02122,6.943175589,
0.02124,6.273349169,0.02124,7.674036178,
0.02126,6.273349169,0.02126,5.481454413,
0.02128,5.54248858,0.02128,6.943175589,
0.0213,4.446197698,0.0213,6.943175589,
0.02132,5.177058286,0.02132,6.577745295,
0.02134,2.984476521,0.02134,6.212315001,
0.02136,-1.035256715,0.02136,6.577745295,
0.02138,0.06103416773,0.02138,6.212315001,
0.0214,1.888185639,0.0214,6.943175589,
0.02142,-1.035256715,0.02142,6.212315001,
0.02144,-2.496977891,0.02144,5.481454413,
0.02146,-0.3043961264,0.02146,6.943175589,
0.02148,-3.22783848,0.02148,6.577745295,
0.0215,-2.862408186,0.0215,6.212315001,
0.02152,-3.593268774,0.02152,7.308605883,
0.02154,-5.054989951,0.02154,7.674036178,
0.02156,-6.516711127,0.02156,6.943175589,
0.02158,-6.151280833,0.02158,6.943175589,
0.0216,-7.247571716,0.0216,6.577745295,
0.02162,-6.882141422,0.02162,6.943175589,
0.02164,-7.247571716,0.02164,5.846884707,
0.02166,-7.61300201,0.02166,6.943175589,
0.02168,-6.516711127,0.02168,7.308605883,
0.0217,-5.785850539,0.0217,6.943175589,
0.02172,-5.785850539,0.02172,6.577745295,
0.02174,-5.785850539,0.02174,7.308605883,
0.02176,-4.689559656,0.02176,7.308605883,
0.02178,-3.958699068,0.02178,6.212315001,
0.0218,-3.22783848,0.0218,6.943175589,
0.02182,-3.22783848,0.02182,6.943175589,
0.02184,-1.766117303,0.02184,6.212315001,
0.02186,-2.496977891,0.02186,6.577745295,
0.02188,-0.3043961264,0.02188,6.943175589,
0.0219,0.7918947561,0.0219,6.577745295,
0.02192,2.253615933,0.02192,6.577745295,
0.02194,2.984476521,0.02194,6.577745295,
0.02196,5.177058286,0.02196,6.577745295,
0.02198,4.080767404,0.02198,6.212315001,
0.022,5.54248858,0.022,6.943175589,
0.02202,6.638779463,0.02202,6.577745295,
0.02204,6.273349169,0.02204,6.943175589,
0.02206,7.735070345,0.02206,6.577745295,
0.02208,7.735070345,0.02208,6.577745295,
0.0221,7.369640051,0.0221,6.943175589,
0.02212,7.004209757,0.02212,6.577745295,
0.02214,7.369640051,0.02214,7.308605883,
0.02216,8.10050064,0.02216,6.943175589,
0.02218,7.004209757,0.02218,6.943175589,
0.0222,6.638779463,0.0222,6.577745295,
0.02222,5.907918874,0.02222,6.943175589,
0.02224,3.349906815,0.02224,6.943175589,
0.02226,3.715337109,0.02226,6.943175589,
0.02228,4.080767404,0.02228,6.212315001,
0.0223,1.15732505,0.0223,6.943175589,
0.02232,1.15732505,0.02232,6.577745295,
0.02234,0.7918947561,0.02234,7.308605883,
0.02236,2.619046227,0.02236,6.943175589,
0.02238,-1.766117303,0.02238,6.943175589,
0.0224,-4.689559656,0.0224,6.577745295,
0.02242,-3.22783848,0.02242,6.943175589,
0.02244,-4.324129362,0.02244,6.577745295,
0.02246,-3.593268774,0.02246,6.577745295,
0.02248,-6.151280833,0.02248,6.212315001,
0.0225,-5.420420245,0.0225,6.577745295,
0.02252,-4.324129362,0.02252,6.577745295,
0.02254,-7.61300201,0.02254,6.577745295,
0.02256,-10.53644436,0.02256,6.212315001,
0.02258,-6.882141422,0.02258,6.943175589,
0.0226,-7.247571716,0.0226,6.577745295,
0.02262,-6.882141422,0.02262,6.577745295,
0.02264,-6.516711127,0.02264,6.943175589,
0.02266,-5.420420245,0.02266,6.577745295,
0.02268,-5.420420245,0.02268,6.577745295,
0.0227,-2.496977891,0.0227,6.577745295,
0.02272,-3.593268774,0.02272,6.212315001,
0.02274,-2.862408186,0.02274,6.577745295,
0.02276,-3.22783848,0.02276,6.577745295,
0.02278,0.4264644619,0.02278,6.577745295,
0.0228,0.06103416773,0.0228,6.943175589,
0.02282,1.888185639,0.02282,6.212315001,
0.02284,0.06103416773,0.02284,6.577745295,
0.02286,2.253615933,0.02286,6.943175589,
0.02288,4.080767404,0.02288,6.577745295,
0.0229,5.177058286,0.0229,7.308605883,
0.02292,5.907918874,0.02292,6.943175589,
0.02294,5.907918874,0.02294,6.577745295,
0.02296,6.273349169,0.02296,6.943175589,
0.02298,6.638779463,0.02298,5.846884707,
0.023,6.638779463,0.023,6.577745295,
0.02302,8.10050064,0.02302,6.577745295,
0.02304,5.907918874,0.02304,5.846884707,
0.02306,5.54248858,0.02306,6.577745295,
0.02308,7.369640051,0.02308,6.577745295,
0.0231,7.369640051,0.0231,6.943175589,
0.02312,5.907918874,0.02312,6.577745295,
0.02314,5.54248858,0.02314,6.212315001,
0.02316,4.811627992,0.02316,7.308605883,
0.02318,4.446197698,0.02318,6.943175589,
0.0232,4.446197698,0.0232,6.577745295,
0.02322,2.253615933,0.02322,7.674036178,
0.02324,1.15732505,0.02324,6.943175589,
0.02326,-1.035256715,0.02326,6.577745295,
0.02328,-0.6698264206,0.02328,6.943175589,
0.0233,-0.6698264206,0.0233,6.577745295,
0.02332,-3.22783848,0.02332,6.577745295,
0.02334,-1.766117303,0.02334,7.308605883,
0.02336,-4.324129362,0.02336,6.212315001,
0.02338,-4.324129362,0.02338,6.212315001,
0.0234,-5.420420245,0.0234,7.308605883,
0.02342,-5.785850539,0.02342,6.943175589,
0.02344,-7.978432304,0.02344,6.212315001,
0.02346,-7.61300201,0.02346,7.308605883,
0.02348,-7.978432304,0.02348,6.577745295,
0.0235,-7.61300201,0.0235,6.577745295,
0.02352,-6.882141422,0.02352,6.943175589,
0.02354,-7.61300201,0.02354,6.943175589,
0.02356,-5.785850539,0.02356,6.212315001,
0.02358,-6.516711127,0.02358,6.943175589,
0.0236,-6.516711127,0.0236,6.577745295,
0.02362,-5.420420245,0.02362,6.212315001,
0.02364,-4.689559656,0.02364,6.943175589,
0.02366,-3.593268774,0.02366,6.212315001,
0.02368,-3.22783848,0.02368,6.577745295,
0.0237,-2.131547597,0.0237,7.308605883,
0.02372,-2.496977891,0.02372,6.577745295,
0.02374,-2.131547597,0.02374,6.577745295,
0.02376,1.522755344,0.02376,7.674036178,
0.02378,1.15732505,0.02378,6.577745295,
0.0238,1.15732505,0.0238,6.943175589,
0.02382,4.811627992,0.02382,7.674036178,
0.02384,4.080767404,0.02384,6.943175589,
0.02386,4.446197698,0.02386,5.481454413,
0.02388,6.273349169,0.02388,7.308605883,
0.0239,5.54248858,0.0239,6.577745295,
0.02392,5.177058286,0.02392,6.577745295,
0.02394,5.907918874,0.02394,6.943175589,
0.02396,6.638779463,0.02396,8.039466472,
0.02398,7.004209757,0.02398,6.943175589,
0.024,7.369640051,0.024,7.308605883,
0.02402,7.735070345,0.02402,6.577745295,
0.02404,7.369640051,0.02404,6.943175589,
0.02406,7.004209757,0.02406,6.577745295,
0.02408,6.273349169,0.02408,6.577745295,
0.0241,3.715337109,0.0241,6.577745295,
0.02412,4.446197698,0.02412,6.943175589,
0.02414,2.619046227,0.02414,6.577745295,
0.02416,2.984476521,0.02416,6.212315001,
0.02418,-0.6698264206,0.02418,7.308605883,
0.0242,0.7918947561,0.0242,6.943175589,
0.02422,1.522755344,0.02422,6.577745295,
0.02424,-1.035256715,0.02424,7.308605883,
0.02426,-3.958699068,0.02426,7.674036178,
0.02428,-4.324129362,0.02428,6.212315001,
0.0243,-3.958699068,0.0243,6.943175589,
0.02432,-5.054989951,0.02432,6.943175589,
0.02434,-5.785850539,0.02434,6.212315001,
0.02436,-6.151280833,0.02436,6.212315001,
0.02438,-8.343862598,0.02438,6.577745295,
0.0244,-6.516711127,0.0244,6.943175589,
0.02442,-7.247571716,0.02442,6.577745295,
0.02444,-6.516711127,0.02444,6.577745295,
0.02446,-6.882141422,0.02446,7.674036178,
0.02448,-6.516711127,0.02448,6.577745295,
0.0245,-6.516711127,0.0245,6.943175589,
0.02452,-5.785850539,0.02452,6.943175589,
0.02454,-5.785850539,0.02454,6.943175589,
0.02456,-5.785850539,0.02456,6.943175589,
0.02458,-2.131547597,0.02458,6.577745295,
0.0246,-4.324129362,0.0246,6.943175589,
0.02462,-2.496977891,0.02462,6.943175589,
0.02464,-1.766117303,0.02464,6.943175589,
0.02466,-1.035256715,0.02466,6.577745295,
0.02468,-1.400687009,0.02468,6.943175589,
0.0247,0.7918947561,0.0247,7.674036178,
0.02472,1.522755344,0.02472,6.943175589,
0.02474,2.984476521,0.02474,6.943175589,
0.02476,3.715337109,0.02476,7.308605883,
0.02478,5.907918874,0.02478,6.943175589,
0.0248,4.811627992,0.0248,6.943175589,
0.02482,6.273349169,0.02482,6.943175589,
0.02484,6.638779463,0.02484,6.577745295,
0.02486,7.369640051,0.02486,6.212315001,
0.02488,6.638779463,0.02488,6.943175589,
0.0249,6.638779463,0.0249,6.943175589,
0.02492,8.10050064,0.02492,6.577745295,
0.02494,9.562221816,0.02494,6.577745295,
0.02496,8.10050064,0.02496,6.943175589,
0.02498,7.369640051,0.02498,6.577745295,
0.025,5.54248858,0.025,6.577745295,
0.02502,4.811627992,0.02502,6.577745295,
0.02504,5.54248858,0.02504,6.943175589,
0.02506,4.446197698,0.02506,6.943175589,
0.02508,4.811627992,0.02508,7.308605883,
0.0251,1.888185639,0.0251,6.577745295,
0.02512,1.522755344,0.02512,6.577745295,
0.02514,-0.3043961264,0.02514,6.943175589,
0.02516,-0.3043961264,0.02516,6.943175589,
0.02518,-2.131547597,0.02518,6.943175589,
0.0252,-2.496977891,0.0252,6.943175589,
0.02522,-2.496977891,0.02522,6.577745295,
0.02524,-3.958699068,0.02524,6.943175589,
0.02526,-5.054989951,0.02526,6.943175589,
0.02528,-6.516711127,0.02528,6.577745295,
0.0253,-5.420420245,0.0253,7.308605883,
0.02532,-6.882141422,0.02532,6.212315001,
0.02534,-6.882141422,0.02534,6.577745295,
0.02536,-6.516711127,0.02536,6.943175589,
0.02538,-6.882141422,0.02538,6.943175589,
0.0254,-6.516711127,0.0254,6.577745295,
0.02542,-8.343862598,0.02542,6.943175589,
0.02544,-6.882141422,0.02544,6.577745295,
0.02546,-7.247571716,0.02546,6.943175589,
0.02548,-3.958699068,0.02548,6.943175589,
0.0255,-5.785850539,0.0255,6.212315001,
0.02552,-3.22783848,0.02552,6.577745295,
0.02554,-3.22783848,0.02554,6.212315001,
0.02556,-3.593268774,0.02556,6.943175589,
0.02558,-1.400687009,0.02558,7.308605883,
0.0256,-1.400687009,0.0256,6.943175589,
0.02562,4.446197698,0.02562,6.577745295,
0.02564,2.253615933,0.02564,6.577745295,
0.02566,2.984476521,0.02566,6.943175589,
0.02568,2.984476521,0.02568,6.943175589,
0.0257,4.446197698,0.0257,7.308605883,
0.02572,4.811627992,0.02572,7.308605883,
0.02574,3.349906815,0.02574,6.943175589,
0.02576,6.638779463,0.02576,6.212315001,
0.02578,6.638779463,0.02578,6.577745295,
0.0258,6.273349169,0.0258,6.943175589,
0.02582,7.004209757,0.02582,6.577745295,
0.02584,7.735070345,0.02584,6.943175589,
0.02586,7.369640051,0.02586,6.943175589,
0.02588,8.831361228,0.02588,5.846884707,
0.0259,7.369640051,0.0259,6.943175589,
0.02592,8.10050064,0.02592,6.943175589,
0.02594,6.273349169,0.02594,6.577745295,
0.02596,4.080767404,0.02596,6.943175589,
0.02598,4.080767404,0.02598,6.943175589,
0.026,3.715337109,0.026,6.577745295,
0.02602,2.619046227,0.02602,6.943175589,
0.02604,1.15732505,0.02604,6.577745295,
0.02606,2.619046227,0.02606,6.577745295,
0.02608,0.4264644619,0.02608,6.943175589,
0.0261,-1.766117303,0.0261,6.943175589,
0.02612,-1.400687009,0.02612,6.577745295,
0.02614,-2.862408186,0.02614,6.943175589,
0.02616,-5.420420245,0.02616,6.577745295,
0.02618,-5.420420245,0.02618,6.577745295,
0.0262,-4.689559656,0.0262,6.943175589,
0.02622,-5.785850539,0.02622,6.577745295,
0.02624,-6.516711127,0.02624,6.577745295,
0.02626,-6.516711127,0.02626,7.308605883,
0.02628,-6.882141422,0.02628,6.943175589,
0.0263,-6.151280833,0.0263,6.577745295,
0.02632,-6.882141422,0.02632,5.846884707,
0.02634,-5.420420245,0.02634,6.577745295,
0.02636,-6.882141422,0.02636,6.212315001,
0.02638,-6.516711127,0.02638,6.212315001,
0.0264,-4.689559656,0.0264,6.212315001,
0.02642,-4.689559656,0.02642,6.577745295,
0.02644,-4.689559656,0.02644,6.577745295,
0.02646,-3.22783848,0.02646,6.577745295,
0.02648,-3.22783848,0.02648,6.943175589,
0.0265,-1.035256715,0.0265,6.212315001,
0.02652,-0.6698264206,0.02652,6.577745295,
0.02654,-2.131547597,0.02654,6.943175589,
0.02656,0.7918947561,0.02656,6.212315001,
0.02658,1.522755344,0.02658,6.212315001,
0.0266,2.984476521,0.0266,6.577745295,
0.02662,2.619046227,0.02662,5.846884707,
0.02664,4.811627992,0.02664,6.577745295,
0.02666,5.177058286,0.02666,6.577745295,
0.02668,6.273349169,0.02668,6.212315001,
0.0267,4.446197698,0.0267,6.943175589,
0.02672,5.177058286,0.02672,6.577745295,
0.02674,5.907918874,0.02674,6.212315001,
0.02676,8.465930934,0.02676,6.577745295,
0.02678,7.004209757,0.02678,7.308605883,
0.0268,8.10050064,0.0268,6.212315001,
0.02682,6.638779463,0.02682,6.212315001,
0.02684,7.004209757,0.02684,6.943175589,
0.02686,4.811627992,0.02686,5.846884707,
0.02688,6.638779463,0.02688,7.308605883,
0.0269,5.177058286,0.0269,6.577745295,
0.02692,4.080767404,0.02692,5.846884707,
0.02694,2.984476521,0.02694,6.943175589,
0.02696,2.619046227,0.02696,6.943175589,
0.02698,1.15732505,0.02698,4.750593824,
0.027,1.888185639,0.027,6.943175589,
0.02702,-0.6698264206,0.02702,6.577745295,
0.02704,-1.400687009,0.02704,5.846884707,
0.02706,-1.766117303,0.02706,6.943175589,
0.02708,-4.689559656,0.02708,5.846884707,
0.0271,-3.958699068,0.0271,6.212315001,
0.02712,-4.324129362,0.02712,6.577745295,
0.02714,-5.420420245,0.02714,6.577745295,
0.02716,-7.247571716,0.02716,6.212315001,
0.02718,-6.882141422,0.02718,8.404896766,
0.0272,-6.882141422,0.0272,6.212315001,
0.02722,-8.343862598,0.02722,6.212315001,
0.02724,-7.247571716,0.02724,6.212315001,
0.02726,-6.882141422,0.02726,6.577745295,
0.02728,-6.151280833,0.02728,6.212315001,
0.0273,-6.516711127,0.0273,6.577745295,
0.02732,-6.151280833,0.02732,6.577745295,
0.02734,-4.324129362,0.02734,5.846884707,
0.02736,-4.689559656,0.02736,6.577745295,
0.02738,-3.22783848,0.02738,4.750593824,
0.0274,-3.958699068,0.0274,6.212315001,
0.02742,-3.22783848,0.02742,6.577745295,
0.02744,-1.400687009,0.02744,6.577745295,
0.02746,-0.6698264206,0.02746,6.577745295,
0.02748,0.7918947561,0.02748,7.674036178,
0.0275,1.15732505,0.0275,6.577745295,
0.02752,2.253615933,0.02752,6.577745295,
0.02754,1.888185639,0.02754,6.577745295,
0.02756,5.907918874,0.02756,6.577745295,
0.02758,4.080767404,0.02758,6.212315001,
0.0276,5.177058286,0.0276,6.577745295,
0.02762,5.54248858,0.02762,6.577745295,
0.02764,6.638779463,0.02764,6.212315001,
0.02766,7.004209757,0.02766,6.943175589,
0.02768,7.735070345,0.02768,5.481454413,
0.0277,7.004209757,0.0277,6.212315001,
0.02772,8.10050064,0.02772,6.577745295,
0.02774,7.004209757,0.02774,6.577745295,
0.02776,6.273349169,0.02776,6.212315001,
0.02778,7.735070345,0.02778,6.943175589,
0.0278,6.638779463,0.0278,6.577745295,
0.02782,4.811627992,0.02782,6.212315001,
0.02784,4.080767404,0.02784,6.943175589,
0.02786,4.811627992,0.02786,6.577745295,
0.02788,3.715337109,0.02788,7.674036178,
0.0279,1.522755344,0.0279,6.943175589,
0.02792,1.15732505,0.02792,7.308605883,
0.02794,-0.6698264206,0.02794,6.577745295,
0.02796,-0.3043961264,0.02796,6.943175589,
0.02798,-2.131547597,0.02798,6.212315001,
0.028,-1.400687009,0.028,6.577745295,
0.02802,-3.593268774,0.02802,7.308605883,
0.02804,-5.420420245,0.02804,6.577745295,
0.02806,-5.054989951,0.02806,6.577745295,
0.02808,-6.516711127,0.02808,7.674036178,
0.0281,-6.516711127,0.0281,6.577745295,
0.02812,-6.151280833,0.02812,6.577745295,
0.02814,-6.151280833,0.02814,6.943175589,
0.02816,-7.978432304,0.02816,6.943175589,
0.02818,-5.785850539,0.02818,6.577745295,
0.0282,-7.247571716,0.0282,7.308605883,
0.02822,-7.247571716,0.02822,6.577745295,
0.02824,-6.151280833,0.02824,6.212315001,
0.02826,-5.785850539,0.02826,6.577745295,
0.02828,-5.420420245,0.02828,7.308605883,
0.0283,-4.689559656,0.0283,6.212315001,
0.02832,-3.958699068,0.02832,6.212315001,
0.02834,-1.035256715,0.02834,7.308605883,
0.02836,-2.496977891,0.02836,6.212315001,
0.02838,-1.400687009,0.02838,6.577745295,
0.0284,-1.035256715,0.0284,7.308605883,
0.02842,-2.496977891,0.02842,6.577745295,
0.02844,2.619046227,0.02844,6.577745295,
0.02846,1.888185639,0.02846,6.943175589,
0.02848,4.811627992,0.02848,6.577745295,
0.0285,3.349906815,0.0285,6.577745295,
0.02852,5.177058286,0.02852,6.943175589,
0.02854,4.811627992,0.02854,6.577745295,
0.02856,7.369640051,0.02856,6.577745295,
0.02858,6.273349169,0.02858,7.308605883,
0.0286,6.638779463,0.0286,6.577745295,
0.02862,5.907918874,0.02862,6.577745295,
0.02864,6.638779463,0.02864,7.308605883,
0.02866,6.638779463,0.02866,6.212315001,
0.02868,3.715337109,0.02868,6.943175589,
0.0287,7.735070345,0.0287,6.943175589,
0.02872,5.54248858,0.02872,6.577745295,
0.02874,5.177058286,0.02874,6.943175589,
0.02876,5.177058286,0.02876,7.308605883,
0.02878,3.715337109,0.02878,7.308605883,
0.0288,4.080767404,0.0288,6.212315001,
0.02882,1.15732505,0.02882,7.308605883,
0.02884,1.888185639,0.02884,6.943175589,
0.02886,0.4264644619,0.02886,6.577745295,
0.02888,-0.6698264206,0.02888,6.943175589,
0.0289,-3.958699068,0.0289,6.212315001,
0.02892,-2.131547597,0.02892,6.577745295,
0.02894,-3.22783848,0.02894,7.308605883,
0.02896,-3.958699068,0.02896,6.577745295,
0.02898,-5.054989951,0.02898,6.212315001,
0.029,-5.420420245,0.029,6.943175589,
0.02902,-6.516711127,0.02902,6.212315001,
0.02904,-6.882141422,0.02904,6.577745295,
0.02906,-5.420420245,0.02906,6.943175589,
0.02908,-5.054989951,0.02908,6.577745295,
0.0291,-6.516711127,0.0291,6.212315001,
0.02912,-7.61300201,0.02912,7.308605883,
0.02914,-7.61300201,0.02914,6.577745295,
0.02916,-6.151280833,0.02916,6.212315001,
0.02918,-5.420420245,0.02918,6.943175589,
0.0292,-4.689559656,0.0292,6.577745295,
0.02922,-5.420420245,0.02922,6.577745295,
0.02924,-4.689559656,0.02924,7.308605883,
0.02926,-6.516711127,0.02926,6.577745295,
0.02928,-3.22783848,0.02928,6.212315001,
0.0293,-1.766117303,0.0293,6.943175589,
0.02932,-1.035256715,0.02932,6.212315001,
0.02934,-0.3043961264,0.02934,6.212315001,
0.02936,1.522755344,0.02936,6.943175589,
0.02938,1.522755344,0.02938,6.577745295,
0.0294,2.984476521,0.0294,6.577745295,
0.02942,4.080767404,0.02942,6.943175589,
0.02944,5.177058286,0.02944,6.212315001,
0.02946,5.177058286,0.02946,6.212315001,
0.02948,4.811627992,0.02948,6.943175589,
0.0295,6.638779463,0.0295,6.943175589,
0.02952,7.004209757,0.02952,6.212315001,
0.02954,7.369640051,0.02954,6.577745295,
0.02956,6.638779463,0.02956,6.577745295,
0.02958,6.638779463,0.02958,6.212315001,
0.0296,7.369640051,0.0296,6.577745295,
0.02962,7.004209757,0.02962,6.577745295,
0.02964,6.273349169,0.02964,6.577745295,
0.02966,5.907918874,0.02966,7.308605883,
0.02968,5.177058286,0.02968,6.577745295,
0.0297,4.811627992,0.0297,6.577745295,
0.02972,7.004209757,0.02972,6.943175589,
0.02974,2.619046227,0.02974,6.577745295,
0.02976,0.4264644619,0.02976,6.577745295,
0.02978,1.888185639,0.02978,6.943175589,
0.0298,-0.3043961264,0.0298,6.577745295,
0.02982,-1.766117303,0.02982,6.212315001,
0.02984,-0.6698264206,0.02984,7.308605883,
0.02986,-3.22783848,0.02986,6.577745295,
0.02988,-3.958699068,0.02988,5.846884707,
0.0299,-3.958699068,0.0299,6.943175589,
0.02992,-3.593268774,0.02992,6.212315001,
0.02994,-5.054989951,0.02994,6.212315001,
0.02996,-6.151280833,0.02996,6.943175589,
0.02998,-6.882141422,0.02998,6.577745295,
0.03,-4.689559656,0.03,6.577745295,
0.03002,-7.247571716,0.03002,6.943175589,
0.03004,-7.61300201,0.03004,6.943175589,
0.03006,-6.882141422,0.03006,6.212315001,
0.03008,-7.247571716,0.03008,6.943175589,
0.0301,-7.247571716,0.0301,5.481454413,
0.03012,-5.785850539,0.03012,6.577745295,
0.03014,-5.420420245,0.03014,6.577745295,
0.03016,-6.516711127,0.03016,6.577745295,
0.03018,-3.22783848,0.03018,6.577745295,
0.0302,-3.22783848,0.0302,6.577745295,
0.03022,-2.862408186,0.03022,7.308605883,
0.03024,-1.400687009,0.03024,6.577745295,
0.03026,-1.035256715,0.03026,7.674036178,
0.03028,0.06103416773,0.03028,7.308605883,
0.0303,1.522755344,0.0303,6.943175589,
0.03032,2.984476521,0.03032,7.308605883,
0.03034,2.984476521,0.03034,6.943175589,
0.03036,4.811627992,0.03036,6.212315001,
0.03038,4.080767404,0.03038,6.943175589,
0.0304,5.177058286,0.0304,7.308605883,
0.03042,6.273349169,0.03042,6.212315001,
0.03044,7.735070345,0.03044,6.943175589,
0.03046,7.004209757,0.03046,6.943175589,
0.03048,7.369640051,0.03048,6.577745295,
0.0305,7.004209757,0.0305,6.212315001,
0.03052,7.369640051,0.03052,7.308605883,
0.03054,7.735070345,0.03054,6.943175589,
0.03056,8.465930934,0.03056,6.943175589,
0.03058,6.638779463,0.03058,6.943175589,
0.0306,5.907918874,0.0306,7.674036178,
0.03062,6.638779463,0.03062,6.943175589,
0.03064,5.177058286,0.03064,6.577745295,
0.03066,4.446197698,0.03066,6.212315001,
0.03068,2.984476521,0.03068,7.308605883,
0.0307,1.888185639,0.0307,6.212315001,
0.03072,1.15732505,0.03072,6.577745295,
0.03074,0.4264644619,0.03074,6.577745295,
0.03076,-1.400687009,0.03076,6.577745295,
0.03078,-1.400687009,0.03078,6.577745295,
0.0308,-2.496977891,0.0308,7.308605883,
0.03082,-4.689559656,0.03082,6.943175589,
0.03084,-5.420420245,0.03084,6.577745295,
0.03086,-5.420420245,0.03086,6.943175589,
0.03088,-7.978432304,0.03088,6.577745295,
0.0309,-6.882141422,0.0309,7.674036178,
0.03092,-6.516711127,0.03092,7.308605883,
0.03094,-6.882141422,0.03094,6.943175589,
0.03096,-6.882141422,0.03096,6.577745295,
0.03098,-7.247571716,0.03098,6.577745295,
0.031,-8.709292892,0.031,8.039466472,
0.03102,-6.151280833,0.03102,6.577745295,
0.03104,-6.151280833,0.03104,6.943175589,
0.03106,-6.516711127,0.03106,6.943175589,
0.03108,-7.61300201,0.03108,6.577745295,
0.0311,-3.958699068,0.0311,5.846884707,
0.03112,-5.785850539,0.03112,7.308605883,
0.03114,-5.054989951,0.03114,6.943175589,
0.03116,-1.035256715,0.03116,6.577745295,
0.03118,-1.400687009,0.03118,7.308605883,
0.0312,-0.3043961264,0.0312,6.577745295,
0.03122,-0.6698264206,0.03122,7.308605883,
0.03124,1.522755344,0.03124,6.943175589,
0.03126,3.349906815,0.03126,6.577745295,
0.03128,0.7918947561,0.03128,6.943175589,
0.0313,4.080767404,0.0313,7.308605883,
0.03132,5.54248858,0.03132,6.943175589,
0.03134,5.907918874,0.03134,7.308605883,
0.03136,6.638779463,0.03136,6.943175589,
0.03138,5.907918874,0.03138,6.943175589,
0.0314,7.369640051,0.0314,6.212315001,
0.03142,6.273349169,0.03142,6.943175589,
0.03144,7.004209757,0.03144,6.943175589,
0.03146,5.907918874,0.03146,6.943175589,
0.03148,5.907918874,0.03148,6.943175589,
0.0315,7.004209757,0.0315,7.308605883,
0.03152,5.907918874,0.03152,6.943175589,
0.03154,4.446197698,0.03154,7.308605883,
0.03156,5.54248858,0.03156,6.577745295,
0.03158,4.080767404,0.03158,7.674036178,
0.0316,3.349906815,0.0316,6.577745295,
0.03162,1.888185639,0.03162,6.577745295,
0.03164,2.253615933,0.03164,6.943175589,
0.03166,-0.3043961264,0.03166,6.943175589,
0.03168,-0.3043961264,0.03168,6.943175589,
0.0317,-1.035256715,0.0317,6.943175589,
0.03172,-1.035256715,0.03172,6.577745295,
0.03174,-1.766117303,0.03174,6.943175589,
0.03176,-5.054989951,0.03176,6.943175589,
0.03178,-4.689559656,0.03178,7.308605883,
0.0318,-5.785850539,0.0318,7.308605883,
0.03182,-4.689559656,0.03182,6.577745295,
0.03184,-6.516711127,0.03184,6.943175589,
0.03186,-6.516711127,0.03186,6.943175589,
0.03188,-6.516711127,0.03188,7.308605883,
0.0319,-7.61300201,0.0319,6.577745295,
0.03192,-10.17101407,0.03192,6.577745295,
0.03194,-6.516711127,0.03194,7.674036178,
0.03196,-6.882141422,0.03196,6.577745295,
0.03198,-6.151280833,0.03198,6.577745295,
0.032,-5.420420245,0.032,6.943175589,
0.03202,-4.324129362,0.03202,6.577745295,
0.03204,-4.324129362,0.03204,6.577745295,
0.03206,-3.22783848,0.03206,6.212315001,
0.03208,-3.22783848,0.03208,6.577745295,
0.0321,-2.496977891,0.0321,6.943175589,
0.03212,0.06103416773,0.03212,6.212315001,
0.03214,1.15732505,0.03214,6.943175589,
0.03216,1.15732505,0.03216,6.943175589,
0.03218,2.253615933,0.03218,6.212315001,
0.0322,3.715337109,0.0322,6.577745295,
0.03222,3.349906815,0.03222,6.943175589,
0.03224,4.080767404,0.03224,6.212315001,
0.03226,5.54248858,0.03226,6.577745295,
0.03228,5.907918874,0.03228,6.577745295,
0.0323,7.004209757,0.0323,6.212315001,
0.03232,6.273349169,0.03232,6.943175589,
0.03234,6.638779463,0.03234,6.577745295,
0.03236,7.369640051,0.03236,5.846884707,
0.03238,7.735070345,0.03238,6.943175589,
0.0324,8.465930934,0.0324,6.577745295,
0.03242,7.369640051,0.03242,6.212315001,
0.03244,7.735070345,0.03244,6.943175589,
0.03246,6.638779463,0.03246,6.577745295,
0.03248,5.907918874,0.03248,6.212315001,
0.0325,4.811627992,0.0325,6.577745295,
0.03252,4.446197698,0.03252,7.308605883,
0.03254,3.349906815,0.03254,6.212315001,
0.03256,2.619046227,0.03256,6.943175589,
0.03258,1.15732505,0.03258,6.577745295,
0.0326,0.4264644619,0.0326,6.212315001,
0.03262,1.522755344,0.03262,6.577745295,
0.03264,-3.22783848,0.03264,6.577745295,
0.03266,-2.131547597,0.03266,5.846884707,
0.03268,-3.22783848,0.03268,6.577745295,
0.0327,-3.593268774,0.0327,6.577745295,
0.03272,-5.420420245,0.03272,6.577745295,
0.03274,-5.420420245,0.03274,6.577745295,
0.03276,-5.785850539,0.03276,6.212315001,
0.03278,-7.61300201,0.03278,6.212315001,
0.0328,-6.151280833,0.0328,6.943175589,
0.03282,-7.61300201,0.03282,6.577745295,
0.03284,-7.247571716,0.03284,5.481454413,
0.03286,-7.247571716,0.03286,5.846884707,
0.03288,-7.247571716,0.03288,6.577745295,
0.0329,-6.516711127,0.0329,5.846884707,
0.03292,-7.247571716,0.03292,6.943175589,
0.03294,-5.054989951,0.03294,6.577745295,
0.03296,-6.151280833,0.03296,6.943175589,
0.03298,-3.22783848,0.03298,6.943175589,
0.033,-2.862408186,0.033,6.943175589,
0.03302,-1.400687009,0.03302,5.846884707,
0.03304,-0.6698264206,0.03304,6.577745295,
0.03306,-0.6698264206,0.03306,6.943175589,
0.03308,-2.862408186,0.03308,6.212315001,
0.0331,0.7918947561,0.0331,6.212315001,
0.03312,1.888185639,0.03312,6.577745295,
0.03314,2.619046227,0.03314,6.577745295,
0.03316,3.715337109,0.03316,6.943175589,
0.03318,6.638779463,0.03318,6.943175589,
0.0332,6.273349169,0.0332,6.943175589,
0.03322,7.004209757,0.03322,5.846884707,
0.03324,6.638779463,0.03324,6.943175589,
0.03326,7.004209757,0.03326,6.577745295,
0.03328,7.735070345,0.03328,6.577745295,
0.0333,7.004209757,0.0333,6.943175589,
0.03332,8.10050064,0.03332,7.674036178,
0.03334,8.465930934,0.03334,6.577745295,
0.03336,8.10050064,0.03336,6.943175589,
0.03338,5.54248858,0.03338,6.943175589,
0.0334,5.54248858,0.0334,6.212315001,
0.03342,5.54248858,0.03342,7.308605883,
0.03344,4.811627992,0.03344,6.943175589,
0.03346,4.811627992,0.03346,6.212315001,
0.03348,3.715337109,0.03348,7.308605883,
0.0335,2.619046227,0.0335,6.943175589,
0.03352,2.253615933,0.03352,4.38516353,
0.03354,0.06103416773,0.03354,6.943175589,
0.03356,-1.035256715,0.03356,6.943175589,
0.03358,-2.131547597,0.03358,6.212315001,
0.0336,-2.131547597,0.0336,6.943175589,
0.03362,-3.958699068,0.03362,8.039466472,
0.03364,-3.593268774,0.03364,6.212315001,
0.03366,-4.689559656,0.03366,6.577745295,
0.03368,-5.420420245,0.03368,6.943175589,
0.0337,-5.785850539,0.0337,6.577745295,
0.03372,-6.882141422,0.03372,7.308605883,
0.03374,-6.882141422,0.03374,6.943175589,
0.03376,-6.516711127,0.03376,6.943175589,
0.03378,-6.882141422,0.03378,6.943175589,
0.0338,-8.343862598,0.0338,6.943175589,
0.03382,-6.151280833,0.03382,6.212315001,
0.03384,-5.054989951,0.03384,6.943175589,
0.03386,-7.61300201,0.03386,6.577745295,
0.03388,-5.785850539,0.03388,6.577745295,
0.0339,-3.958699068,0.0339,7.308605883,
0.03392,-2.862408186,0.03392,8.039466472,
0.03394,-6.151280833,0.03394,6.577745295,
0.03396,-1.766117303,0.03396,7.308605883,
0.03398,-1.400687009,0.03398,6.943175589,
0.034,1.522755344,0.034,6.577745295,
0.03402,1.15732505,0.03402,6.212315001,
0.03404,2.619046227,0.03404,6.577745295,
0.03406,4.811627992,0.03406,6.577745295,
0.03408,2.253615933,0.03408,6.943175589,
0.0341,4.446197698,0.0341,6.212315001,
0.03412,4.811627992,0.03412,7.674036178,
0.03414,5.907918874,0.03414,6.943175589,
0.03416,4.811627992,0.03416,7.308605883,
0.03418,7.369640051,0.03418,6.577745295,
0.0342,7.369640051,0.0342,6.943175589,
0.03422,6.273349169,0.03422,5.846884707,
0.03424,7.369640051,0.03424,6.943175589,
0.03426,7.369640051,0.03426,7.308605883,
0.03428,7.004209757,0.03428,6.577745295,
0.0343,6.638779463,0.0343,6.577745295,
0.03432,7.735070345,0.03432,7.308605883,
0.03434,5.54248858,0.03434,6.212315001,
0.03436,4.080767404,0.03436,6.212315001,
0.03438,4.080767404,0.03438,7.308605883,
0.0344,3.715337109,0.0344,6.212315001,
0.03442,2.619046227,0.03442,7.308605883,
0.03444,0.7918947561,0.03444,7.308605883,
0.03446,-0.6698264206,0.03446,6.577745295,
0.03448,-1.035256715,0.03448,6.943175589,
0.0345,-1.035256715,0.0345,6.943175589,
0.03452,-3.22783848,0.03452,6.577745295,
0.03454,-5.420420245,0.03454,6.577745295,
0.03456,-5.054989951,0.03456,6.943175589,
0.03458,-6.151280833,0.03458,6.577745295,
0.0346,-5.785850539,0.0346,6.577745295,
0.03462,-5.054989951,0.03462,6.577745295,
0.03464,-5.785850539,0.03464,6.577745295,
0.03466,-7.247571716,0.03466,6.577745295,
0.03468,-7.247571716,0.03468,6.943175589,
0.0347,-7.247571716,0.0347,6.577745295,
0.03472,-7.247571716,0.03472,6.577745295,
0.03474,-7.61300201,0.03474,6.943175589,
0.03476,-7.247571716,0.03476,6.212315001,
0.03478,-6.516711127,0.03478,6.212315001,
0.0348,-5.054989951,0.0348,6.943175589,
0.03482,-5.054989951,0.03482,6.943175589,
0.03484,-3.958699068,0.03484,6.577745295,
0.03486,-3.593268774,0.03486,6.577745295,
0.03488,-3.22783848,0.03488,6.577745295,
0.0349,-2.131547597,0.0349,6.577745295,
0.03492,-1.400687009,0.03492,6.943175589,
0.03494,-0.3043961264,0.03494,6.577745295,
0.03496,0.4264644619,0.03496,6.943175589,
0.03498,0.4264644619,0.03498,6.943175589,
0.035,1.888185639,0.035,6.577745295,
0.03502,5.177058286,0.03502,6.212315001,
0.03504,4.446197698,0.03504,6.943175589,
0.03506,5.54248858,0.03506,6.577745295,
0.03508,7.369640051,0.03508,6.577745295,
0.0351,4.446197698,0.0351,6.943175589,
0.03512,4.446197698,0.03512,6.577745295,
0.03514,6.638779463,0.03514,6.577745295,
0.03516,5.907918874,0.03516,7.674036178,
0.03518,7.369640051,0.03518,6.212315001,
0.0352,6.638779463,0.0352,6.212315001,
0.03522,7.735070345,0.03522,7.308605883,
0.03524,6.638779463,0.03524,6.577745295,
0.03526,5.177058286,0.03526,6.577745295,
0.03528,5.54248858,0.03528,7.308605883,
0.0353,4.446197698,0.0353,6.577745295,
0.03532,4.080767404,0.03532,6.577745295,
0.03534,2.619046227,0.03534,6.943175589,
0.03536,1.888185639,0.03536,6.943175589,
0.03538,0.7918947561,0.03538,6.577745295,
0.0354,1.15732505,0.0354,6.577745295,
0.03542,-1.400687009,0.03542,7.308605883,
0.03544,-2.131547597,0.03544,6.943175589,
0.03546,-3.958699068,0.03546,6.577745295,
0.03548,-5.054989951,0.03548,6.943175589,
0.0355,-4.689559656,0.0355,6.577745295,
0.03552,-5.420420245,0.03552,6.577745295,
0.03554,-7.61300201,0.03554,6.943175589,
0.03556,-6.516711127,0.03556,6.577745295,
0.03558,-8.343862598,0.03558,6.943175589,
0.0356,-7.978432304,0.0356,6.212315001,
0.03562,-7.61300201,0.03562,6.943175589,
0.03564,-7.247571716,0.03564,7.308605883,
0.03566,-8.343862598,0.03566,6.577745295,
0.03568,-7.247571716,0.03568,6.577745295,
0.0357,-6.516711127,0.0357,6.943175589,
0.03572,-7.61300201,0.03572,6.577745295,
0.03574,-5.785850539,0.03574,6.577745295,
0.03576,-6.151280833,0.03576,6.943175589,
0.03578,-4.324129362,0.03578,6.577745295,
0.0358,-3.593268774,0.0358,6.943175589,
0.03582,-1.766117303,0.03582,7.308605883,
0.03584,-1.766117303,0.03584,6.943175589,
0.03586,-1.400687009,0.03586,6.577745295,
0.03588,-0.6698264206,0.03588,6.943175589,
0.0359,1.522755344,0.0359,6.943175589,
0.03592,2.984476521,0.03592,6.577745295,
0.03594,3.349906815,0.03594,6.943175589,
0.03596,4.446197698,0.03596,6.577745295,
0.03598,5.54248858,0.03598,6.577745295,
0.036,5.907918874,0.036,6.943175589,
0.03602,5.907918874,0.03602,6.943175589,
0.03604,6.273349169,0.03604,7.674036178,
0.03606,7.369640051,0.03606,6.943175589,
0.03608,6.273349169,0.03608,6.943175589,
0.0361,7.004209757,0.0361,6.943175589,
0.03612,7.735070345,0.03612,6.943175589,
0.03614,7.004209757,0.03614,5.846884707,
0.03616,7.004209757,0.03616,6.943175589,
0.03618,5.54248858,0.03618,6.943175589,
0.0362,5.907918874,0.0362,6.577745295,
0.03622,5.907918874,0.03622,6.577745295,
0.03624,5.907918874,0.03624,7.674036178,
0.03626,3.349906815,0.03626,6.943175589,
0.03628,2.619046227,0.03628,6.943175589,
0.0363,1.522755344,0.0363,6.577745295,
0.03632,0.7918947561,0.03632,6.943175589,
0.03634,-0.6698264206,0.03634,5.481454413,
0.03636,-1.400687009,0.03636,6.943175589,
0.03638,-1.766117303,0.03638,6.943175589,
0.0364,-2.496977891,0.0364,6.577745295,
0.03642,-4.324129362,0.03642,6.577745295,
0.03644,-4.689559656,0.03644,7.674036178,
0.03646,-3.958699068,0.03646,6.943175589,
0.03648,-5.054989951,0.03648,6.943175589,
0.0365,-6.516711127,0.0365,6.943175589,
0.03652,-7.61300201,0.03652,7.308605883,
0.03654,-6.151280833,0.03654,5.846884707,
0.03656,-7.61300201,0.03656,6.943175589,
0.03658,-7.247571716,0.03658,6.943175589,
0.0366,-7.61300201,0.0366,6.943175589,
0.03662,-6.882141422,0.03662,6.577745295,
0.03664,-6.516711127,0.03664,7.674036178,
0.03666,-5.785850539,0.03666,6.577745295,
0.03668,-5.420420245,0.03668,6.577745295,
0.0367,-6.151280833,0.0367,6.212315001,
0.03672,-3.958699068,0.03672,6.212315001,
0.03674,-2.862408186,0.03674,6.212315001,
0.03676,-2.131547597,0.03676,6.577745295,
0.03678,-1.035256715,0.03678,6.943175589,
0.0368,-1.766117303,0.0368,6.577745295,
0.03682,0.7918947561,0.03682,6.943175589,
0.03684,1.522755344,0.03684,7.674036178,
0.03686,1.888185639,0.03686,6.943175589,
0.03688,4.080767404,0.03688,6.577745295,
0.0369,5.177058286,0.0369,6.943175589,
0.03692,3.715337109,0.03692,6.943175589,
0.03694,8.465930934,0.03694,6.943175589,
0.03696,7.735070345,0.03696,6.943175589,
0.03698,5.907918874,0.03698,7.308605883,
0.037,7.735070345,0.037,6.212315001,
0.03702,6.638779463,0.03702,6.943175589,
0.03704,7.369640051,0.03704,6.212315001,
0.03706,7.369640051,0.03706,5.846884707,
0.03708,6.638779463,0.03708,6.943175589,
0.0371,7.004209757,0.0371,6.943175589,
0.03712,6.638779463,0.03712,6.577745295,
0.03714,6.273349169,0.03714,6.943175589,
0.03716,3.715337109,0.03716,6.577745295,
0.03718,3.715337109,0.03718,6.943175589,
0.0372,4.446197698,0.0372,6.943175589,
0.03722,1.15732505,0.03722,6.577745295,
0.03724,0.4264644619,0.03724,6.212315001,
0.03726,0.7918947561,0.03726,6.943175589,
0.03728,-0.6698264206,0.03728,7.308605883,
0.0373,-1.400687009,0.0373,6.943175589,
0.03732,-3.22783848,0.03732,6.943175589,
0.03734,-3.593268774,0.03734,6.943175589,
0.03736,-3.958699068,0.03736,6.577745295,
0.03738,-3.22783848,0.03738,6.943175589,
0.0374,-5.785850539,0.0374,6.943175589,
0.03742,-5.785850539,0.03742,6.577745295,
0.03744,-7.247571716,0.03744,6.577745295,
0.03746,-5.420420245,0.03746,7.308605883,
0.03748,-6.882141422,0.03748,6.943175589,
0.0375,-7.61300201,0.0375,6.943175589,
0.03752,-6.882141422,0.03752,6.943175589,
0.03754,-6.516711127,0.03754,6.212315001,
0.03756,-6.516711127,0.03756,6.943175589,
0.03758,-7.61300201,0.03758,6.943175589,
0.0376,-6.151280833,0.0376,6.577745295,
0.03762,-4.689559656,0.03762,6.943175589,
0.03764,-5.785850539,0.03764,6.577745295,
0.03766,-3.958699068,0.03766,6.577745295,
0.03768,-2.862408186,0.03768,7.308605883,
0.0377,-1.400687009,0.0377,6.943175589,
0.03772,-1.035256715,0.03772,6.943175589,
0.03774,-0.6698264206,0.03774,6.212315001,
0.03776,1.522755344,0.03776,6.577745295,
0.03778,3.715337109,0.03778,6.943175589,
0.0378,1.888185639,0.0378,6.212315001,
0.03782,3.715337109,0.03782,6.577745295,
0.03784,4.446197698,0.03784,6.577745295,
0.03786,5.907918874,0.03786,6.212315001,
0.03788,6.638779463,0.03788,6.943175589,
0.0379,5.907918874,0.0379,6.212315001,
0.03792,6.638779463,0.03792,6.212315001,
0.03794,6.638779463,0.03794,6.943175589,
0.03796,7.004209757,0.03796,6.577745295,
0.03798,6.273349169,0.03798,6.212315001,
0.038,8.465930934,0.038,5.846884707,
0.03802,7.735070345,0.03802,6.943175589,
0.03804,7.369640051,0.03804,6.577745295,
0.03806,7.369640051,0.03806,6.577745295,
0.03808,5.177058286,0.03808,5.846884707,
0.0381,5.907918874,0.0381,6.212315001,
0.03812,3.715337109,0.03812,6.212315001,
0.03814,2.619046227,0.03814,6.577745295,
0.03816,1.15732505,0.03816,6.577745295,
0.03818,-0.6698264206,0.03818,5.846884707,
0.0382,1.15732505,0.0382,6.943175589,
0.03822,-0.3043961264,0.03822,6.577745295,
0.03824,-1.400687009,0.03824,6.577745295,
0.03826,-3.22783848,0.03826,6.577745295,
0.03828,-3.22783848,0.03828,6.212315001,
0.0383,-3.593268774,0.0383,6.943175589,
0.03832,-3.593268774,0.03832,6.943175589,
0.03834,-2.862408186,0.03834,6.212315001,
0.03836,-6.151280833,0.03836,6.577745295,
0.03838,-7.247571716,0.03838,6.943175589,
0.0384,-7.247571716,0.0384,6.943175589,
0.03842,-7.247571716,0.03842,6.577745295,
0.03844,-6.516711127,0.03844,7.308605883,
0.03846,-6.151280833,0.03846,6.212315001,
0.03848,-6.882141422,0.03848,6.943175589,
0.0385,-6.882141422,0.0385,7.308605883,
0.03852,-7.247571716,0.03852,6.577745295,
0.03854,-6.516711127,0.03854,6.943175589,
0.03856,-5.054989951,0.03856,6.943175589,
0.03858,-3.958699068,0.03858,6.943175589,
0.0386,-3.22783848,0.0386,6.943175589,
0.03862,-2.131547597,0.03862,6.577745295,
0.03864,-0.6698264206,0.03864,6.577745295,
0.03866,-1.400687009,0.03866,6.943175589,
0.03868,-1.035256715,0.03868,7.308605883,
0.0387,2.253615933,0.0387,7.308605883,
0.03872,2.619046227,0.03872,6.943175589,
0.03874,2.253615933,0.03874,6.577745295,
0.03876,6.273349169,0.03876,6.577745295,
0.03878,4.446197698,0.03878,6.943175589,
0.0388,6.638779463,0.0388,6.577745295,
0.03882,6.273349169,0.03882,6.577745295,
0.03884,5.907918874,0.03884,7.308605883,
0.03886,7.369640051,0.03886,7.674036178,
0.03888,6.638779463,0.03888,7.308605883,
0.0389,6.638779463,0.0389,6.943175589,
0.03892,6.638779463,0.03892,6.577745295,
0.03894,8.10050064,0.03894,6.943175589,
0.03896,6.638779463,0.03896,5.481454413,
0.03898,6.273349169,0.03898,6.943175589,
0.039,5.907918874,0.039,6.943175589,
0.03902,5.177058286,0.03902,6.943175589,
0.03904,5.177058286,0.03904,6.577745295,
0.03906,3.349906815,0.03906,6.577745295,
0.03908,0.4264644619,0.03908,7.308605883,
0.0391,0.7918947561,0.0391,6.212315001,
0.03912,1.522755344,0.03912,6.943175589,
0.03914,-1.035256715,0.03914,6.943175589,
0.03916,0.06103416773,0.03916,7.308605883,
0.03918,-1.035256715,0.03918,6.577745295,
0.0392,-3.593268774,0.0392,7.308605883,
0.03922,-2.862408186,0.03922,6.943175589,
0.03924,-3.958699068,0.03924,6.943175589,
0.03926,-4.689559656,0.03926,4.750593824,
0.03928,-5.785850539,0.03928,6.943175589,
0.0393,-5.785850539,0.0393,7.308605883,
0.03932,-7.247571716,0.03932,7.308605883,
0.03934,-7.978432304,0.03934,7.308605883,
0.03936,-6.516711127,0.03936,7.674036178,
0.03938,-6.882141422,0.03938,6.943175589,
0.0394,-7.61300201,0.0394,6.577745295,
0.03942,-6.882141422,0.03942,6.943175589,
0.03944,-6.516711127,0.03944,6.943175589,
0.03946,-5.785850539,0.03946,7.674036178,
0.03948,-6.516711127,0.03948,6.943175589,
0.0395,-4.689559656,0.0395,6.943175589,
0.03952,-3.593268774,0.03952,6.943175589,
0.03954,-1.766117303,0.03954,6.943175589,
0.03956,-2.862408186,0.03956,6.212315001,
0.03958,-2.496977891,0.03958,6.943175589,
0.0396,0.4264644619,0.0396,6.943175589,
0.03962,0.4264644619,0.03962,6.943175589,
0.03964,2.619046227,0.03964,6.577745295,
0.03966,3.349906815,0.03966,6.943175589,
0.03968,4.080767404,0.03968,6.943175589,
0.0397,4.446197698,0.0397,6.577745295,
0.03972,6.273349169,0.03972,6.943175589,
0.03974,8.831361228,0.03974,6.577745295,
0.03976,6.273349169,0.03976,7.674036178,
0.03978,7.369640051,0.03978,6.943175589,
0.0398,7.004209757,0.0398,6.212315001,
0.03982,6.638779463,0.03982,6.943175589,
0.03984,7.735070345,0.03984,6.943175589,
0.03986,6.638779463,0.03986,5.846884707,
0.03988,7.004209757,0.03988,6.577745295,
0.0399,7.004209757,0.0399,6.577745295,
0.03992,6.273349169,0.03992,6.212315001,
0.03994,6.273349169,0.03994,6.577745295,
0.03996,5.177058286,0.03996,7.674036178,
0.03998,4.080767404,0.03998,6.212315001,
0.04,4.080767404,0.04,6.577745295,
0.04002,1.888185639,0.04002,6.943175589,
0.04004,1.888185639,0.04004,6.943175589,
0.04006,0.4264644619,0.04006,7.308605883,
0.04008,-1.035256715,0.04008,6.943175589,
0.0401,-1.766117303,0.0401,6.577745295,
0.04012,-2.131547597,0.04012,6.577745295,
0.04014,-0.3043961264,0.04014,6.943175589,
0.04016,-3.593268774,0.04016,6.212315001,
0.04018,-4.689559656,0.04018,6.577745295,
0.0402,-4.689559656,0.0402,6.577745295,
0.04022,-6.151280833,0.04022,6.577745295,
0.04024,-5.420420245,0.04024,6.577745295,
0.04026,-6.882141422,0.04026,6.577745295,
0.04028,-6.882141422,0.04028,6.943175589,
0.0403,-6.882141422,0.0403,6.577745295,
0.04032,-7.978432304,0.04032,6.943175589,
0.04034,-6.516711127,0.04034,6.943175589,
0.04036,-5.785850539,0.04036,6.577745295,
0.04038,-4.689559656,0.04038,7.308605883,
0.0404,-7.247571716,0.0404,6.943175589,
0.04042,-4.689559656,0.04042,6.943175589,
0.04044,-4.324129362,0.04044,6.943175589,
0.04046,-3.958699068,0.04046,6.943175589,
0.04048,-1.035256715,0.04048,6.943175589,
0.0405,-1.400687009,0.0405,7.308605883,
0.04052,-0.6698264206,0.04052,6.943175589,
0.04054,0.06103416773,0.04054,6.577745295,
0.04056,-1.400687009,0.04056,7.308605883,
0.04058,3.349906815,0.04058,6.212315001,
0.0406,3.349906815,0.0406,6.212315001,
0.04062,4.811627992,0.04062,6.943175589,
0.04064,4.811627992,0.04064,6.943175589,
0.04066,6.273349169,0.04066,6.212315001,
0.04068,5.907918874,0.04068,6.212315001,
0.0407,6.638779463,0.0407,6.577745295,
0.04072,8.465930934,0.04072,6.943175589,
0.04074,7.004209757,0.04074,6.577745295,
0.04076,7.735070345,0.04076,6.577745295,
0.04078,7.735070345,0.04078,6.577745295,
0.0408,7.735070345,0.0408,6.577745295,
0.04082,8.831361228,0.04082,6.212315001,
0.04084,7.369640051,0.04084,6.577745295,
0.04086,7.004209757,0.04086,6.943175589,
0.04088,5.907918874,0.04088,6.212315001,
0.0409,5.54248858,0.0409,6.577745295,
0.04092,2.984476521,0.04092,6.577745295,
0.04094,3.349906815,0.04094,6.212315001,
0.04096,2.619046227,0.04096,6.577745295,
0.04098,0.06103416773,0.04098,6.577745295,
0.041,0.4264644619,0.041,6.212315001,
0.04102,2.984476521,0.04102,6.577745295,
0.04104,-1.400687009,0.04104,7.308605883,
0.04106,-3.22783848,0.04106,6.212315001,
0.04108,-3.22783848,0.04108,6.943175589,
0.0411,-3.958699068,0.0411,6.577745295,
0.04112,-4.689559656,0.04112,6.577745295,
0.04114,-3.958699068,0.04114,6.943175589,
0.04116,-6.882141422,0.04116,6.577745295,
0.04118,-6.516711127,0.04118,6.212315001,
0.0412,-4.689559656,0.0412,6.577745295,
0.04122,-6.516711127,0.04122,6.577745295,
0.04124,-7.61300201,0.04124,6.212315001,
0.04126,-7.61300201,0.04126,6.577745295,
0.04128,-5.785850539,0.04128,6.577745295,
0.0413,-7.247571716,0.0413,6.212315001,
0.04132,-2.496977891,0.04132,6.943175589,
0.04134,-5.054989951,0.04134,6.577745295,
0.04136,-5.054989951,0.04136,6.577745295,
0.04138,-4.324129362,0.04138,6.943175589,
0.0414,-3.22783848,0.0414,6.943175589,
0.04142,-2.862408186,0.04142,6.212315001,
0.04144,0.06103416773,0.04144,6.943175589,
0.04146,1.522755344,0.04146,6.577745295,
0.04148,2.253615933,0.04148,5.846884707,
0.0415,1.888185639,0.0415,6.212315001,
0.04152,2.619046227,0.04152,6.943175589,
0.04154,3.715337109,0.04154,6.577745295,
0.04156,4.446197698,0.04156,6.943175589,
0.04158,5.177058286,0.04158,7.308605883,
0.0416,7.004209757,0.0416,6.577745295,
0.04162,7.004209757,0.04162,6.943175589,
0.04164,7.735070345,0.04164,6.943175589,
0.04166,7.004209757,0.04166,6.212315001,
0.04168,7.369640051,0.04168,5.846884707,
0.0417,6.638779463,0.0417,6.577745295,
0.04172,6.638779463,0.04172,6.577745295,
0.04174,6.273349169,0.04174,6.577745295,
0.04176,7.735070345,0.04176,6.577745295,
0.04178,6.638779463,0.04178,7.308605883,
0.0418,7.004209757,0.0418,6.943175589,
0.04182,4.080767404,0.04182,6.577745295,
0.04184,4.446197698,0.04184,6.212315001,
0.04186,3.349906815,0.04186,6.943175589,
0.04188,3.349906815,0.04188,7.308605883,
0.0419,1.888185639,0.0419,6.577745295,
0.04192,1.15732505,0.04192,6.943175589,
0.04194,-0.3043961264,0.04194,6.577745295,
0.04196,-1.766117303,0.04196,5.481454413,
0.04198,-2.131547597,0.04198,5.846884707,
0.042,-2.862408186,0.042,6.943175589,
0.04202,-4.689559656,0.04202,5.846884707,
0.04204,-3.958699068,0.04204,6.577745295,
0.04206,-5.420420245,0.04206,6.212315001,
0.04208,-6.882141422,0.04208,5.846884707,
0.0421,-5.785850539,0.0421,6.943175589,
0.04212,-6.151280833,0.04212,6.943175589,
0.04214,-6.516711127,0.04214,6.577745295,
0.04216,-6.882141422,0.04216,6.943175589,
0.04218,-6.882141422,0.04218,8.039466472,
0.0422,-5.785850539,0.0422,5.846884707,
0.04222,-6.516711127,0.04222,6.943175589,
0.04224,-5.785850539,0.04224,6.943175589,
0.04226,-5.420420245,0.04226,6.212315001,
0.04228,-4.689559656,0.04228,7.308605883,
0.0423,-5.785850539,0.0423,7.308605883,
0.04232,-3.22783848,0.04232,6.577745295,
0.04234,-1.400687009,0.04234,6.943175589,
0.04236,-1.766117303,0.04236,6.577745295,
0.04238,-0.3043961264,0.04238,5.846884707,
0.0424,0.7918947561,0.0424,6.577745295,
0.04242,1.15732505,0.04242,6.577745295,
0.04244,1.522755344,0.04244,6.212315001,
0.04246,3.349906815,0.04246,6.943175589,
0.04248,4.080767404,0.04248,7.308605883,
0.0425,4.811627992,0.0425,7.308605883,
0.04252,5.177058286,0.04252,6.577745295,
0.04254,7.004209757,0.04254,6.577745295,
0.04256,5.907918874,0.04256,6.943175589,
0.04258,4.446197698,0.04258,5.846884707,
0.0426,5.907918874,0.0426,6.577745295,
0.04262,7.369640051,0.04262,7.308605883,
0.04264,6.638779463,0.04264,6.212315001,
0.04266,7.369640051,0.04266,6.577745295,
0.04268,6.273349169,0.04268,6.943175589,
0.0427,6.273349169,0.0427,6.577745295,
0.04272,7.369640051,0.04272,6.943175589,
0.04274,6.273349169,0.04274,6.943175589,
0.04276,4.446197698,0.04276,6.577745295,
0.04278,4.080767404,0.04278,6.943175589,
0.0428,3.349906815,0.0428,7.308605883,
0.04282,2.253615933,0.04282,6.577745295,
0.04284,0.4264644619,0.04284,6.577745295,
0.04286,0.06103416773,0.04286,7.308605883,
0.04288,-0.6698264206,0.04288,6.577745295,
0.0429,0.7918947561,0.0429,6.577745295,
0.04292,-2.131547597,0.04292,7.308605883,
0.04294,-3.958699068,0.04294,6.577745295,
0.04296,-4.689559656,0.04296,6.943175589,
0.04298,-5.054989951,0.04298,6.577745295,
0.043,-6.516711127,0.043,6.577745295,
0.04302,-5.420420245,0.04302,6.212315001,
0.04304,-8.343862598,0.04304,6.577745295,
0.04306,-7.61300201,0.04306,6.577745295,
0.04308,-7.247571716,0.04308,6.943175589,
0.0431,-7.61300201,0.0431,6.943175589,
0.04312,-7.247571716,0.04312,6.943175589,
0.04314,-7.247571716,0.04314,6.577745295,
0.04316,-5.054989951,0.04316,8.039466472,
0.04318,-6.516711127,0.04318,6.943175589,
0.0432,-4.689559656,0.0432,7.674036178,
0.04322,-5.420420245,0.04322,6.943175589,
0.04324,-5.054989951,0.04324,6.943175589,
0.04326,-3.22783848,0.04326,6.943175589,
0.04328,-1.766117303,0.04328,6.577745295,
0.0433,-1.035256715,0.0433,6.212315001,
0.04332,-0.6698264206,0.04332,6.943175589,
0.04334,0.7918947561,0.04334,6.577745295,
0.04336,1.15732505,0.04336,6.943175589,
0.04338,2.984476521,0.04338,6.577745295,
0.0434,3.715337109,0.0434,6.577745295,
0.04342,3.715337109,0.04342,6.577745295,
0.04344,5.177058286,0.04344,6.943175589,
0.04346,5.54248858,0.04346,6.943175589,
0.04348,7.004209757,0.04348,6.943175589,
0.0435,8.10050064,0.0435,6.577745295,
0.04352,5.907918874,0.04352,7.308605883,
0.04354,7.004209757,0.04354,6.577745295,
0.04356,7.735070345,0.04356,6.577745295,
0.04358,6.638779463,0.04358,6.943175589,
0.0436,6.638779463,0.0436,6.577745295,
0.04362,8.10050064,0.04362,6.577745295,
0.04364,6.273349169,0.04364,6.943175589,
0.04366,10.6585127,0.04366,6.577745295,
0.04368,6.273349169,0.04368,6.943175589,
0.0437,3.715337109,0.0437,6.943175589,
0.04372,5.177058286,0.04372,6.943175589,
0.04374,2.984476521,0.04374,6.943175589,
0.04376,2.253615933,0.04376,6.943175589,
0.04378,0.06103416773,0.04378,7.308605883,
0.0438,0.06103416773,0.0438,6.577745295,
0.04382,-0.6698264206,0.04382,6.943175589,
0.04384,-1.766117303,0.04384,6.943175589,
0.04386,-1.766117303,0.04386,6.212315001,
0.04388,-3.593268774,0.04388,6.577745295,
0.0439,-3.593268774,0.0439,6.943175589,
0.04392,-5.054989951,0.04392,7.308605883,
0.04394,-5.054989951,0.04394,6.577745295,
0.04396,-6.882141422,0.04396,6.577745295,
0.04398,-5.420420245,0.04398,6.577745295,
0.044,-7.247571716,0.044,7.308605883,
0.04402,-8.709292892,0.04402,6.943175589,
0.04404,-7.978432304,0.04404,6.577745295,
0.04406,-7.61300201,0.04406,6.943175589,
0.04408,-7.247571716,0.04408,6.577745295,
0.0441,-7.61300201,0.0441,6.577745295,
0.04412,-5.054989951,0.04412,6.943175589,
0.04414,-5.785850539,0.04414,6.577745295,
0.04416,-5.420420245,0.04416,6.577745295,
0.04418,-3.593268774,0.04418,7.308605883,
0.0442,-4.324129362,0.0442,6.577745295,
0.04422,-2.131547597,0.04422,6.577745295,
0.04424,-0.3043961264,0.04424,7.308605883,
0.04426,-0.6698264206,0.04426,6.943175589,
0.04428,0.4264644619,0.04428,6.577745295,
0.0443,1.888185639,0.0443,6.577745295,
0.04432,2.984476521,0.04432,6.577745295,
0.04434,4.446197698,0.04434,6.577745295,
0.04436,5.177058286,0.04436,7.308605883,
0.04438,5.54248858,0.04438,7.674036178,
0.0444,6.638779463,0.0444,6.577745295,
0.04442,7.004209757,0.04442,7.308605883,
0.04444,4.446197698,0.04444,6.943175589,
0.04446,6.638779463,0.04446,6.943175589,
0.04448,7.369640051,0.04448,6.943175589,
0.0445,8.10050064,0.0445,6.577745295,
0.04452,7.369640051,0.04452,6.943175589,
0.04454,8.10050064,0.04454,6.577745295,
0.04456,7.004209757,0.04456,6.943175589,
0.04458,5.907918874,0.04458,6.943175589,
0.0446,4.811627992,0.0446,6.943175589,
0.04462,5.177058286,0.04462,6.943175589,
0.04464,2.984476521,0.04464,6.577745295,
0.04466,4.080767404,0.04466,6.943175589,
0.04468,2.253615933,0.04468,6.943175589,
0.0447,0.06103416773,0.0447,6.212315001,
0.04472,1.15732505,0.04472,6.577745295,
0.04474,-0.3043961264,0.04474,6.943175589,
0.04476,-0.6698264206,0.04476,6.577745295,
0.04478,-4.324129362,0.04478,6.943175589,
0.0448,-2.131547597,0.0448,6.943175589,
0.04482,-5.054989951,0.04482,6.577745295,
0.04484,-4.324129362,0.04484,6.577745295,
0.04486,-7.247571716,0.04486,6.577745295,
0.04488,-6.151280833,0.04488,6.943175589,
0.0449,-7.247571716,0.0449,6.943175589,
0.04492,-6.151280833,0.04492,6.943175589,
0.04494,-7.247571716,0.04494,6.943175589,
0.04496,-7.247571716,0.04496,6.577745295,
0.04498,-7.61300201,0.04498,6.943175589,
0.045,-8.343862598,0.045,6.943175589,
0.04502,-7.247571716,0.04502,6.943175589,
0.04504,-7.978432304,0.04504,6.943175589,
0.04506,-6.151280833,0.04506,6.577745295,
0.04508,-5.785850539,0.04508,6.943175589,
0.0451,-4.689559656,0.0451,6.577745295,
0.04512,-2.496977891,0.04512,6.943175589,
0.04514,-1.766117303,0.04514,6.577745295,
0.04516,-4.324129362,0.04516,7.308605883,
0.04518,-1.766117303,0.04518,6.943175589,
0.0452,0.7918947561,0.0452,8.039466472,
0.04522,1.15732505,0.04522,6.577745295,
0.04524,2.619046227,0.04524,6.577745295,
0.04526,1.522755344,0.04526,6.943175589,
0.04528,3.349906815,0.04528,6.943175589,
0.0453,6.638779463,0.0453,5.481454413,
0.04532,5.54248858,0.04532,6.577745295,
0.04534,7.369640051,0.04534,6.577745295,
0.04536,6.273349169,0.04536,6.577745295,
0.04538,5.907918874,0.04538,7.308605883,
0.0454,6.273349169,0.0454,8.039466472,
0.04542,6.273349169,0.04542,6.577745295,
0.04544,11.02394299,0.04544,7.308605883,
0.04546,6.638779463,0.04546,6.943175589,
0.04548,7.735070345,0.04548,6.212315001,
0.0455,8.465930934,0.0455,6.943175589,
0.04552,3.715337109,0.04552,6.943175589,
0.04554,5.177058286,0.04554,6.577745295,
0.04556,3.715337109,0.04556,7.308605883,
0.04558,2.984476521,0.04558,6.577745295,
0.0456,2.253615933,0.0456,6.212315001,
0.04562,1.888185639,0.04562,6.943175589,
0.04564,1.15732505,0.04564,6.577745295,
0.04566,-1.035256715,0.04566,6.212315001,
0.04568,0.06103416773,0.04568,6.943175589,
0.0457,-2.131547597,0.0457,7.674036178,
0.04572,-2.496977891,0.04572,6.577745295,
0.04574,-3.593268774,0.04574,6.212315001,
0.04576,-1.035256715,0.04576,6.577745295,
0.04578,-5.420420245,0.04578,6.577745295,
0.0458,-5.420420245,0.0458,7.308605883,
0.04582,-7.247571716,0.04582,6.577745295,
0.04584,-6.882141422,0.04584,6.943175589,
0.04586,-7.247571716,0.04586,7.308605883,
0.04588,-6.882141422,0.04588,6.943175589,
0.0459,-7.978432304,0.0459,6.212315001,
0.04592,-8.709292892,0.04592,7.308605883,
0.04594,-6.516711127,0.04594,6.577745295,
0.04596,-6.882141422,0.04596,6.212315001,
0.04598,-6.151280833,0.04598,7.308605883,
0.046,-5.785850539,0.046,7.674036178,
0.04602,-5.420420245,0.04602,6.212315001,
0.04604,-2.862408186,0.04604,6.943175589,
0.04606,-2.862408186,0.04606,6.943175589,
0.04608,-3.958699068,0.04608,6.577745295,
0.0461,-0.6698264206,0.0461,7.308605883,
0.04612,-2.131547597,0.04612,6.577745295,
0.04614,0.06103416773,0.04614,6.212315001,
0.04616,1.522755344,0.04616,6.943175589,
0.04618,1.522755344,0.04618,6.943175589,
0.0462,1.15732505,0.0462,6.577745295,
0.04622,4.446197698,0.04622,7.674036178,
0.04624,3.349906815,0.04624,6.577745295,
0.04626,5.177058286,0.04626,6.577745295,
0.04628,5.54248858,0.04628,7.308605883,
0.0463,6.638779463,0.0463,7.308605883,
0.04632,5.177058286,0.04632,6.577745295,
0.04634,6.638779463,0.04634,7.308605883,
0.04636,8.10050064,0.04636,7.308605883,
0.04638,7.004209757,0.04638,6.212315001,
0.0464,7.004209757,0.0464,6.577745295,
0.04642,7.004209757,0.04642,6.577745295,
0.04644,6.273349169,0.04644,6.212315001,
0.04646,5.907918874,0.04646,6.943175589,
0.04648,5.54248858,0.04648,6.577745295,
0.0465,3.715337109,0.0465,6.577745295,
0.04652,3.349906815,0.04652,7.308605883,
0.04654,-0.3043961264,0.04654,6.577745295,
0.04656,1.888185639,0.04656,6.577745295,
0.04658,2.619046227,0.04658,7.308605883,
0.0466,-2.496977891,0.0466,6.212315001,
0.04662,-1.035256715,0.04662,6.212315001,
0.04664,-2.131547597,0.04664,6.943175589,
0.04666,-2.862408186,0.04666,6.577745295,
0.04668,-4.324129362,0.04668,6.577745295,
0.0467,-4.689559656,0.0467,7.308605883,
0.04672,-5.054989951,0.04672,6.943175589,
0.04674,-8.343862598,0.04674,6.577745295,
0.04676,-6.882141422,0.04676,6.943175589,
0.04678,-7.61300201,0.04678,6.943175589,
0.0468,-7.61300201,0.0468,6.943175589,
0.04682,-6.516711127,0.04682,7.308605883,
0.04684,-7.247571716,0.04684,6.577745295,
0.04686,-7.247571716,0.04686,6.577745295,
0.04688,-6.516711127,0.04688,7.308605883,
0.0469,-5.054989951,0.0469,6.577745295,
0.04692,-6.151280833,0.04692,6.577745295,
0.04694,-4.689559656,0.04694,6.943175589,
0.04696,-5.420420245,0.04696,6.577745295,
0.04698,-4.324129362,0.04698,6.577745295,
0.047,-3.22783848,0.047,6.943175589,
0.04702,-2.862408186,0.04702,6.943175589,
0.04704,-1.035256715,0.04704,5.846884707,
0.04706,-2.131547597,0.04706,6.943175589,
0.04708,0.06103416773,0.04708,6.943175589,
0.0471,0.7918947561,0.0471,6.577745295,
0.04712,2.984476521,0.04712,7.308605883,
0.04714,3.715337109,0.04714,6.577745295,
0.04716,4.446197698,0.04716,6.577745295,
0.04718,3.349906815,0.04718,6.943175589,
0.0472,5.177058286,0.0472,6.943175589,
0.04722,6.638779463,0.04722,6.577745295,
0.04724,6.273349169,0.04724,7.308605883,
0.04726,7.004209757,0.04726,6.577745295,
0.04728,7.369640051,0.04728,6.577745295,
0.0473,7.369640051,0.0473,6.943175589,
0.04732,7.004209757,0.04732,6.943175589,
0.04734,8.10050064,0.04734,6.212315001,
0.04736,7.004209757,0.04736,6.577745295,
0.04738,5.907918874,0.04738,7.308605883,
0.0474,6.273349169,0.0474,6.577745295,
0.04742,5.907918874,0.04742,6.577745295,
0.04744,4.080767404,0.04744,6.943175589,
0.04746,3.715337109,0.04746,6.943175589,
0.04748,1.888185639,0.04748,6.577745295,
0.0475,1.15732505,0.0475,6.577745295,
0.04752,0.7918947561,0.04752,6.577745295,
0.04754,-0.3043961264,0.04754,6.943175589,
0.04756,-2.131547597,0.04756,6.943175589,
0.04758,-1.400687009,0.04758,7.308605883,
0.0476,-2.496977891,0.0476,7.308605883,
0.04762,-4.324129362,0.04762,6.943175589,
0.04764,-4.689559656,0.04764,6.943175589,
0.04766,-5.785850539,0.04766,7.308605883,
0.04768,-6.516711127,0.04768,7.308605883,
0.0477,-6.516711127,0.0477,6.577745295,
0.04772,-6.516711127,0.04772,6.943175589,
0.04774,-7.978432304,0.04774,6.943175589,
0.04776,-6.151280833,0.04776,6.943175589,
0.04778,-7.978432304,0.04778,7.308605883,
0.0478,-7.247571716,0.0478,6.943175589,
0.04782,-7.247571716,0.04782,6.943175589,
0.04784,-6.151280833,0.04784,7.674036178,
0.04786,-5.785850539,0.04786,6.943175589,
0.04788,-5.420420245,0.04788,6.577745295,
0.0479,-3.593268774,0.0479,6.943175589,
0.04792,-3.958699068,0.04792,6.577745295,
0.04794,-2.131547597,0.04794,6.943175589,
0.04796,-2.131547597,0.04796,6.577745295,
0.04798,-0.3043961264,0.04798,6.212315001,
0.048,0.06103416773,0.048,6.577745295,
0.04802,1.15732505,0.04802,7.674036178,
0.04804,1.15732505,0.04804,6.577745295,
0.04806,2.619046227,0.04806,6.943175589,
0.04808,3.715337109,0.04808,6.943175589,
0.0481,4.811627992,0.0481,6.943175589,
0.04812,5.54248858,0.04812,5.846884707,
0.04814,5.177058286,0.04814,7.308605883,
0.04816,5.54248858,0.04816,6.577745295,
0.04818,8.10050064,0.04818,6.577745295,
0.0482,6.273349169,0.0482,7.308605883,
0.04822,6.638779463,0.04822,6.577745295,
0.04824,7.369640051,0.04824,6.943175589,
0.04826,8.10050064,0.04826,6.943175589,
0.04828,6.638779463,0.04828,6.577745295,
0.0483,8.465930934,0.0483,6.943175589,
0.04832,5.907918874,0.04832,7.674036178,
0.04834,5.177058286,0.04834,6.577745295,
0.04836,4.446197698,0.04836,6.943175589,
0.04838,4.446197698,0.04838,6.577745295,
0.0484,2.619046227,0.0484,6.577745295,
0.04842,2.619046227,0.04842,5.481454413,
0.04844,1.15732505,0.04844,6.577745295,
0.04846,0.7918947561,0.04846,6.577745295,
0.04848,-0.3043961264,0.04848,6.943175589,
0.0485,-1.766117303,0.0485,6.943175589,
0.04852,-3.22783848,0.04852,6.943175589,
0.04854,-3.593268774,0.04854,6.577745295,
0.04856,-3.593268774,0.04856,6.943175589,
0.04858,-5.785850539,0.04858,6.577745295,
0.0486,-5.420420245,0.0486,6.943175589,
0.04862,-7.978432304,0.04862,7.674036178,
0.04864,-6.151280833,0.04864,6.943175589,
0.04866,-6.882141422,0.04866,7.674036178,
0.04868,-6.882141422,0.04868,6.943175589,
0.0487,-6.151280833,0.0487,6.943175589,
0.04872,-6.882141422,0.04872,6.943175589,
0.04874,-6.516711127,0.04874,6.577745295,
0.04876,-6.882141422,0.04876,6.577745295,
0.04878,-6.151280833,0.04878,6.943175589,
0.0488,-5.785850539,0.0488,7.308605883,
0.04882,-4.324129362,0.04882,6.212315001,
0.04884,-5.785850539,0.04884,6.943175589,
0.04886,-4.689559656,0.04886,7.308605883,
0.04888,-2.131547597,0.04888,6.577745295,
0.0489,-0.6698264206,0.0489,7.308605883,
0.04892,-3.593268774,0.04892,7.308605883,
0.04894,0.7918947561,0.04894,7.308605883,
0.04896,1.888185639,0.04896,6.577745295,
0.04898,1.15732505,0.04898,6.943175589,
0.049,2.984476521,0.049,6.943175589,
0.04902,4.811627992,0.04902,7.308605883,
0.04904,6.273349169,0.04904,6.943175589,
0.04906,6.273349169,0.04906,6.943175589,
0.04908,6.638779463,0.04908,6.943175589,
0.0491,7.004209757,0.0491,7.308605883,
0.04912,7.004209757,0.04912,6.212315001,
0.04914,6.273349169,0.04914,6.943175589,
0.04916,7.369640051,0.04916,6.212315001,
0.04918,7.735070345,0.04918,6.577745295,
0.0492,7.369640051,0.0492,6.943175589,
0.04922,7.735070345,0.04922,6.577745295,
0.04924,8.10050064,0.04924,6.577745295,
0.04926,5.177058286,0.04926,6.577745295,
0.04928,5.54248858,0.04928,6.212315001,
0.0493,5.177058286,0.0493,6.943175589,
0.04932,3.349906815,0.04932,6.943175589,
0.04934,4.811627992,0.04934,6.577745295,
0.04936,1.888185639,0.04936,6.577745295,
0.04938,0.4264644619,0.04938,6.577745295,
0.0494,0.06103416773,0.0494,6.577745295,
0.04942,-0.3043961264,0.04942,6.577745295,
0.04944,-1.766117303,0.04944,6.943175589,
0.04946,-2.131547597,0.04946,6.212315001,
0.04948,-3.22783848,0.04948,6.943175589,
0.0495,-3.22783848,0.0495,6.943175589,
0.04952,-5.054989951,0.04952,6.577745295,
0.04954,-2.496977891,0.04954,6.943175589,
0.04956,-5.785850539,0.04956,6.577745295,
0.04958,-6.882141422,0.04958,6.212315001,
0.0496,-7.247571716,0.0496,6.943175589,
0.04962,-4.324129362,0.04962,6.212315001,
0.04964,-7.978432304,0.04964,5.846884707,
0.04966,-6.151280833,0.04966,6.212315001,
0.04968,-6.151280833,0.04968,6.577745295,
0.0497,-5.420420245,0.0497,6.212315001,
0.04972,-3.22783848,0.04972,6.943175589,
0.04974,-6.516711127,0.04974,6.212315001,
0.04976,-4.689559656,0.04976,6.943175589,
0.04978,-3.958699068,0.04978,6.943175589,
0.0498,-2.496977891,0.0498,6.943175589,
0.04982,-1.766117303,0.04982,6.577745295,
0.04984,-0.6698264206,0.04984,6.943175589,
0.04986,0.7918947561,0.04986,6.577745295,
0.04988,4.080767404,0.04988,6.577745295,
0.0499,2.984476521,0.0499,6.943175589,
0.04992,3.349906815,0.04992,6.577745295,
0.04994,3.349906815,0.04994,6.212315001,
0.04996,5.907918874,0.04996,6.943175589,
0.04998,5.907918874,0.04998,6.577745295,
0.05,5.54248858,0.05,6.212315001,
0.05002,7.004209757,0.05002,6.577745295,
0.05004,5.907918874,0.05004,6.577745295,
0.05006,7.004209757,0.05006,6.212315001,
0.05008,8.10050064,0.05008,6.577745295,
0.0501,8.10050064,0.0501,6.577745295,
0.05012,7.369640051,0.05012,6.212315001,
0.05014,5.907918874,0.05014,6.943175589,
0.05016,7.735070345,0.05016,6.577745295,
0.05018,6.273349169,0.05018,6.577745295,
0.0502,4.811627992,0.0502,6.943175589,
0.05022,5.907918874,0.05022,6.577745295,
0.05024,4.080767404,0.05024,6.212315001,
0.05026,2.984476521,0.05026,6.943175589,
0.05028,3.349906815,0.05028,6.577745295,
0.0503,1.888185639,0.0503,6.577745295,
0.05032,0.7918947561,0.05032,6.577745295,
0.05034,0.06103416773,0.05034,6.577745295,
0.05036,-1.035256715,0.05036,6.212315001,
0.05038,-2.131547597,0.05038,6.943175589,
0.0504,-2.862408186,0.0504,6.577745295,
0.05042,-4.324129362,0.05042,6.212315001,
0.05044,-5.054989951,0.05044,6.943175589,
0.05046,-4.689559656,0.05046,6.212315001,
0.05048,-7.61300201,0.05048,6.212315001,
0.0505,-6.516711127,0.0505,6.943175589,
0.05052,-7.61300201,0.05052,6.212315001,
0.05054,-7.978432304,0.05054,6.212315001,
0.05056,-9.074723187,0.05056,6.943175589,
0.05058,-7.61300201,0.05058,6.577745295,
0.0506,-6.151280833,0.0506,6.577745295,
0.05062,-6.151280833,0.05062,6.943175589,
0.05064,-6.882141422,0.05064,6.212315001,
0.05066,-5.785850539,0.05066,6.577745295,
0.05068,-4.689559656,0.05068,6.943175589,
0.0507,-4.324129362,0.0507,6.577745295,
0.05072,-4.324129362,0.05072,6.577745295,
0.05074,-1.400687009,0.05074,6.577745295,
0.05076,-1.400687009,0.05076,6.943175589,
0.05078,-1.766117303,0.05078,6.212315001,
0.0508,0.4264644619,0.0508,6.943175589,
0.05082,1.888185639,0.05082,6.577745295,
0.05084,2.984476521,0.05084,6.212315001,
0.05086,3.349906815,0.05086,6.577745295,
0.05088,1.888185639,0.05088,6.943175589,
0.0509,5.54248858,0.0509,6.212315001,
0.05092,6.273349169,0.05092,7.674036178,
0.05094,5.907918874,0.05094,6.943175589,
0.05096,6.638779463,0.05096,6.943175589,
0.05098,5.907918874,0.05098,6.943175589,
0.051,7.004209757,0.051,6.577745295,
0.05102,7.004209757,0.05102,5.846884707,
0.05104,6.638779463,0.05104,7.674036178,
0.05106,8.10050064,0.05106,6.943175589,
0.05108,7.369640051,0.05108,6.943175589,
0.0511,6.638779463,0.0511,6.577745295,
0.05112,3.715337109,0.05112,6.577745295,
0.05114,5.177058286,0.05114,6.577745295,
0.05116,4.446197698,0.05116,6.577745295,
0.05118,4.446197698,0.05118,6.212315001,
0.0512,3.349906815,0.0512,7.674036178,
0.05122,1.522755344,0.05122,6.943175589,
0.05124,1.522755344,0.05124,6.212315001,
0.05126,0.7918947561,0.05126,7.308605883,
0.05128,-1.400687009,0.05128,6.577745295,
0.0513,-2.862408186,0.0513,6.577745295,
0.05132,-3.593268774,0.05132,6.943175589,
0.05134,-3.22783848,0.05134,8.039466472,
0.05136,-4.324129362,0.05136,6.212315001,
0.05138,-5.054989951,0.05138,6.943175589,
0.0514,-6.151280833,0.0514,6.212315001,
0.05142,-6.882141422,0.05142,6.212315001,
0.05144,-6.882141422,0.05144,7.308605883,
0.05146,-7.61300201,0.05146,6.577745295,
0.05148,-7.247571716,0.05148,6.943175589,
0.0515,-7.247571716,0.0515,6.943175589,
0.05152,-7.247571716,0.05152,6.943175589,
0.05154,-7.247571716,0.05154,6.212315001,
0.05156,-6.516711127,0.05156,7.308605883,
0.05158,-6.882141422,0.05158,6.577745295,
0.0516,-5.785850539,0.0516,6.943175589,
0.05162,-5.054989951,0.05162,7.308605883,
0.05164,-4.324129362,0.05164,8.404896766,
0.05166,-1.400687009,0.05166,6.577745295,
0.05168,-2.496977891,0.05168,7.308605883,
0.0517,-1.400687009,0.0517,6.577745295,
0.05172,-0.6698264206,0.05172,6.212315001,
0.05174,-0.6698264206,0.05174,5.481454413,
0.05176,-0.3043961264,0.05176,6.577745295,
0.05178,0.4264644619,0.05178,6.577745295,
0.0518,2.619046227,0.0518,7.308605883,
0.05182,3.715337109,0.05182,6.577745295,
0.05184,4.446197698,0.05184,5.846884707,
0.05186,6.638779463,0.05186,7.308605883,
0.05188,6.273349169,0.05188,6.577745295,
0.0519,6.638779463,0.0519,6.212315001,
0.05192,6.638779463,0.05192,6.943175589,
0.05194,6.638779463,0.05194,6.943175589,
0.05196,5.907918874,0.05196,6.577745295,
0.05198,7.369640051,0.05198,7.308605883,
0.052,7.004209757,0.052,6.577745295,
0.05202,6.638779463,0.05202,6.212315001,
0.05204,8.10050064,0.05204,6.943175589,
0.05206,6.638779463,0.05206,6.577745295,
0.05208,5.54248858,0.05208,5.846884707,
0.0521,4.446197698,0.0521,7.308605883,
0.05212,4.080767404,0.05212,6.577745295,
0.05214,2.984476521,0.05214,7.674036178,
0.05216,1.888185639,0.05216,7.308605883,
0.05218,1.15732505,0.05218,6.943175589,
0.0522,-0.6698264206,0.0522,6.212315001,
0.05222,-1.766117303,0.05222,6.943175589,
0.05224,-1.035256715,0.05224,6.943175589,
0.05226,-3.958699068,0.05226,6.577745295,
0.05228,-3.22783848,0.05228,6.943175589,
0.0523,-5.785850539,0.0523,6.577745295,
0.05232,-5.785850539,0.05232,6.577745295,
0.05234,-7.247571716,0.05234,6.212315001,
0.05236,-6.882141422,0.05236,6.943175589,
0.05238,-7.247571716,0.05238,6.943175589,
0.0524,-7.978432304,0.0524,7.308605883,
0.05242,-7.61300201,0.05242,6.943175589,
0.05244,-7.61300201,0.05244,6.577745295,
0.05246,-6.882141422,0.05246,7.674036178,
0.05248,-7.61300201,0.05248,6.577745295,
0.0525,-6.516711127,0.0525,6.577745295,
0.05252,-6.882141422,0.05252,7.308605883,
0.05254,-6.151280833,0.05254,7.308605883,
0.05256,-5.420420245,0.05256,6.943175589,
0.05258,-3.958699068,0.05258,7.674036178,
0.0526,-2.862408186,0.0526,6.943175589,
0.05262,-1.035256715,0.05262,6.577745295,
0.05264,0.06103416773,0.05264,6.577745295,
0.05266,0.7918947561,0.05266,6.577745295,
0.05268,2.619046227,0.05268,6.577745295,
0.0527,2.253615933,0.0527,7.308605883,
0.05272,3.349906815,0.05272,6.943175589,
0.05274,2.619046227,0.05274,6.577745295,
0.05276,6.273349169,0.05276,6.943175589,
0.05278,4.446197698,0.05278,6.577745295,
0.0528,4.811627992,0.0528,7.308605883,
0.05282,6.273349169,0.05282,6.943175589,
0.05284,5.907918874,0.05284,6.577745295,
0.05286,5.907918874,0.05286,6.577745295,
0.05288,7.735070345,0.05288,6.943175589,
0.0529,7.735070345,0.0529,6.943175589,
0.05292,7.004209757,0.05292,6.943175589,
0.05294,8.465930934,0.05294,6.943175589,
0.05296,7.735070345,0.05296,7.308605883,
0.05298,7.004209757,0.05298,7.674036178,
0.053,5.54248858,0.053,6.943175589,
0.05302,6.273349169,0.05302,6.577745295,
0.05304,3.715337109,0.05304,6.943175589,
0.05306,1.888185639,0.05306,6.943175589,
0.05308,3.715337109,0.05308,6.577745295,
0.0531,1.888185639,0.0531,6.943175589,
0.05312,0.4264644619,0.05312,6.943175589,
0.05314,0.06103416773,0.05314,6.577745295,
0.05316,-2.131547597,0.05316,6.943175589,
0.05318,-2.862408186,0.05318,6.943175589,
0.0532,-3.593268774,0.0532,6.577745295,
0.05322,-3.593268774,0.05322,6.943175589,
0.05324,-6.516711127,0.05324,6.212315001,
0.05326,-6.882141422,0.05326,6.943175589,
0.05328,-5.420420245,0.05328,6.943175589,
0.0533,-6.882141422,0.0533,6.577745295,
0.05332,-7.247571716,0.05332,6.577745295,
0.05334,-9.074723187,0.05334,6.943175589,
0.05336,-7.61300201,0.05336,6.943175589,
0.05338,-6.882141422,0.05338,7.308605883,
0.0534,-5.785850539,0.0534,7.308605883,
0.05342,-7.247571716,0.05342,7.308605883,
0.05344,-6.151280833,0.05344,6.577745295,
0.05346,-4.689559656,0.05346,6.577745295,
0.05348,-2.862408186,0.05348,6.212315001,
0.0535,-6.516711127,0.0535,6.577745295,
0.05352,-3.593268774,0.05352,6.577745295,
0.05354,-2.496977891,0.05354,6.943175589,
0.05356,-2.862408186,0.05356,6.943175589,
0.05358,-1.035256715,0.05358,6.212315001,
0.0536,0.06103416773,0.0536,6.943175589,
0.05362,1.15732505,0.05362,6.943175589,
0.05364,1.15732505,0.05364,6.577745295,
0.05366,3.715337109,0.05366,6.212315001,
0.05368,4.080767404,0.05368,6.577745295,
0.0537,5.177058286,0.0537,6.943175589,
0.05372,6.273349169,0.05372,6.943175589,
0.05374,5.907918874,0.05374,6.577745295,
0.05376,8.465930934,0.05376,6.577745295,
0.05378,6.638779463,0.05378,6.943175589,
0.0538,7.004209757,0.0538,6.943175589,
0.05382,7.735070345,0.05382,6.943175589,
0.05384,7.369640051,0.05384,7.308605883,
0.05386,7.004209757,0.05386,6.577745295,
0.05388,7.735070345,0.05388,6.577745295,
0.0539,6.638779463,0.0539,7.308605883,
0.05392,6.273349169,0.05392,6.943175589,
0.05394,5.177058286,0.05394,6.577745295,
0.05396,4.811627992,0.05396,7.308605883,
0.05398,2.984476521,0.05398,6.577745295,
0.054,2.984476521,0.054,6.577745295,
0.05402,1.522755344,0.05402,7.308605883,
0.05404,0.7918947561,0.05404,7.308605883,
0.05406,1.15732505,0.05406,6.577745295,
0.05408,-1.035256715,0.05408,6.943175589,
0.0541,-1.400687009,0.0541,6.577745295,
0.05412,-3.22783848,0.05412,6.212315001,
0.05414,-2.862408186,0.05414,6.943175589,
0.05416,-5.054989951,0.05416,6.577745295,
0.05418,-5.054989951,0.05418,6.943175589,
0.0542,-5.785850539,0.0542,7.674036178,
0.05422,-5.785850539,0.05422,6.943175589,
0.05424,-7.247571716,0.05424,6.212315001,
0.05426,-7.247571716,0.05426,7.674036178,
0.05428,-6.882141422,0.05428,7.308605883,
0.0543,-6.516711127,0.0543,6.212315001,
0.05432,-6.882141422,0.05432,7.308605883,
0.05434,-9.440153481,0.05434,6.943175589,
0.05436,-7.978432304,0.05436,6.212315001,
0.05438,-3.22783848,0.05438,7.308605883,
0.0544,-6.151280833,0.0544,6.577745295,
0.05442,-4.689559656,0.05442,6.577745295,
0.05444,-4.324129362,0.05444,6.577745295,
0.05446,-2.862408186,0.05446,6.212315001,
0.05448,-2.496977891,0.05448,6.212315001,
0.0545,-0.3043961264,0.0545,6.943175589,
0.05452,-0.3043961264,0.05452,6.577745295,
0.05454,-0.3043961264,0.05454,6.577745295,
0.05456,0.06103416773,0.05456,8.039466472,
0.05458,1.522755344,0.05458,6.577745295,
0.0546,3.715337109,0.0546,6.577745295,
0.05462,4.446197698,0.05462,6.943175589,
0.05464,5.177058286,0.05464,6.577745295,
0.05466,5.54248858,0.05466,6.943175589,
0.05468,8.10050064,0.05468,7.308605883,
0.0547,7.369640051,0.0547,6.943175589,
0.05472,8.465930934,0.05472,6.577745295,
0.05474,7.004209757,0.05474,7.308605883,
0.05476,6.638779463,0.05476,6.212315001,
0.05478,7.004209757,0.05478,6.577745295,
0.0548,7.369640051,0.0548,6.943175589,
0.05482,8.465930934,0.05482,6.943175589,
0.05484,7.004209757,0.05484,6.577745295,
0.05486,8.465930934,0.05486,8.039466472,
0.05488,6.273349169,0.05488,6.577745295,
0.0549,4.080767404,0.0549,6.577745295,
0.05492,3.715337109,0.05492,7.308605883,
0.05494,1.888185639,0.05494,6.577745295,
0.05496,1.888185639,0.05496,7.674036178,
0.05498,0.7918947561,0.05498,6.943175589,
0.055,-1.035256715,0.055,6.212315001,
0.05502,-1.035256715,0.05502,6.943175589,
0.05504,-3.22783848,0.05504,6.943175589,
0.05506,-3.958699068,0.05506,6.577745295,
0.05508,-3.958699068,0.05508,6.943175589,
0.0551,-3.593268774,0.0551,7.308605883,
0.05512,-5.054989951,0.05512,6.577745295,
0.05514,-7.61300201,0.05514,6.212315001,
0.05516,-5.420420245,0.05516,6.212315001,
0.05518,-8.709292892,0.05518,6.577745295,
0.0552,-7.61300201,0.0552,6.577745295,
0.05522,-7.247571716,0.05522,6.943175589,
0.05524,-7.978432304,0.05524,6.577745295,
0.05526,-7.61300201,0.05526,6.943175589,
0.05528,-6.151280833,0.05528,7.308605883,
0.0553,-6.882141422,0.0553,6.577745295,
0.05532,-5.785850539,0.05532,6.212315001,
0.05534,-4.324129362,0.05534,6.943175589,
0.05536,-6.516711127,0.05536,5.846884707,
0.05538,-6.151280833,0.05538,6.212315001,
0.0554,-2.862408186,0.0554,6.943175589,
0.05542,-2.131547597,0.05542,6.943175589,
0.05544,-2.496977891,0.05544,6.577745295,
0.05546,-0.6698264206,0.05546,7.308605883,
0.05548,-0.3043961264,0.05548,6.943175589,
0.0555,1.888185639,0.0555,6.577745295,
0.05552,3.715337109,0.05552,7.308605883,
0.05554,4.080767404,0.05554,6.943175589,
0.05556,4.446197698,0.05556,6.943175589,
0.05558,7.735070345,0.05558,6.943175589,
0.0556,5.177058286,0.0556,6.943175589,
0.05562,6.638779463,0.05562,6.577745295,
0.05564,6.638779463,0.05564,7.308605883,
0.05566,6.638779463,0.05566,6.212315001,
0.05568,8.10050064,0.05568,6.212315001,
0.0557,7.735070345,0.0557,6.577745295,
0.05572,7.004209757,0.05572,6.943175589,
0.05574,6.273349169,0.05574,6.577745295,
0.05576,7.369640051,0.05576,6.577745295,
0.05578,4.811627992,0.05578,6.943175589,
0.0558,5.54248858,0.0558,6.577745295,
0.05582,4.811627992,0.05582,6.943175589,
0.05584,3.349906815,0.05584,7.308605883,
0.05586,4.080767404,0.05586,6.577745295,
0.05588,0.4264644619,0.05588,6.943175589,
0.0559,0.7918947561,0.0559,6.943175589,
0.05592,0.4264644619,0.05592,6.943175589,
0.05594,0.06103416773,0.05594,7.308605883,
0.05596,-1.035256715,0.05596,6.943175589,
0.05598,-3.593268774,0.05598,6.943175589,
0.056,-3.593268774,0.056,7.308605883,
0.05602,-5.785850539,0.05602,7.308605883,
0.05604,-5.054989951,0.05604,6.577745295,
0.05606,-5.420420245,0.05606,7.674036178,
0.05608,-5.420420245,0.05608,6.943175589,
0.0561,-7.247571716,0.0561,6.943175589,
0.05612,-6.882141422,0.05612,6.212315001,
0.05614,-9.074723187,0.05614,7.308605883,
0.05616,-6.882141422,0.05616,6.577745295,
0.05618,-7.978432304,0.05618,6.943175589,
0.0562,-8.709292892,0.0562,6.943175589,
0.05622,-6.882141422,0.05622,6.577745295,
0.05624,-5.054989951,0.05624,7.308605883,
0.05626,-6.151280833,0.05626,7.308605883,
0.05628,-4.324129362,0.05628,6.943175589,
0.0563,-3.593268774,0.0563,6.943175589,
0.05632,-3.958699068,0.05632,6.943175589,
0.05634,-2.131547597,0.05634,6.577745295,
0.05636,-3.22783848,0.05636,6.943175589,
0.05638,-1.766117303,0.05638,6.943175589,
0.0564,0.06103416773,0.0564,6.577745295,
0.05642,1.888185639,0.05642,6.577745295,
0.05644,1.888185639,0.05644,6.943175589,
0.05646,4.446197698,0.05646,6.577745295,
0.05648,2.984476521,0.05648,6.943175589,
0.0565,4.446197698,0.0565,6.943175589,
0.05652,5.907918874,0.05652,6.943175589,
0.05654,4.446197698,0.05654,6.943175589,
0.05656,6.638779463,0.05656,6.943175589,
0.05658,6.638779463,0.05658,7.308605883,
0.0566,8.10050064,0.0566,7.308605883,
0.05662,6.273349169,0.05662,6.943175589,
0.05664,7.369640051,0.05664,6.943175589,
0.05666,6.273349169,0.05666,6.943175589,
0.05668,7.735070345,0.05668,6.943175589,
0.0567,7.735070345,0.0567,6.577745295,
0.05672,6.638779463,0.05672,6.943175589,
0.05674,7.369640051,0.05674,6.943175589,
0.05676,5.177058286,0.05676,6.577745295,
0.05678,4.811627992,0.05678,6.577745295,
0.0568,2.619046227,0.0568,7.308605883,
0.05682,2.253615933,0.05682,6.577745295,
0.05684,1.15732505,0.05684,7.308605883,
0.05686,0.06103416773,0.05686,6.943175589,
0.05688,-2.131547597,0.05688,6.943175589,
0.0569,-1.400687009,0.0569,7.308605883,
0.05692,-2.496977891,0.05692,6.943175589,
0.05694,-4.689559656,0.05694,6.943175589,
0.05696,-4.324129362,0.05696,7.308605883,
0.05698,-5.054989951,0.05698,6.943175589,
0.057,-4.689559656,0.057,6.943175589,
0.05702,-6.151280833,0.05702,7.308605883,
0.05704,-6.882141422,0.05704,6.943175589,
0.05706,-6.516711127,0.05706,6.943175589,
0.05708,-7.247571716,0.05708,7.308605883,
0.0571,-7.61300201,0.0571,6.943175589,
0.05712,-6.516711127,0.05712,6.943175589,
0.05714,-6.516711127,0.05714,7.308605883,
0.05716,-6.882141422,0.05716,6.943175589,
0.05718,-6.516711127,0.05718,6.577745295,
0.0572,-5.785850539,0.0572,7.308605883,
0.05722,-5.054989951,0.05722,6.943175589,
0.05724,-4.324129362,0.05724,6.577745295,
0.05726,-2.862408186,0.05726,6.943175589,
0.05728,-1.766117303,0.05728,6.943175589,
0.0573,-0.6698264206,0.0573,6.943175589,
0.05732,0.06103416773,0.05732,7.308605883,
0.05734,0.4264644619,0.05734,6.943175589,
0.05736,2.984476521,0.05736,6.577745295,
0.05738,2.984476521,0.05738,7.308605883,
0.0574,3.349906815,0.0574,6.943175589,
0.05742,4.080767404,0.05742,6.577745295,
0.05744,2.984476521,0.05744,6.943175589,
0.05746,3.715337109,0.05746,6.943175589,
0.05748,9.562221816,0.05748,6.943175589,
0.0575,7.004209757,0.0575,6.943175589,
0.05752,7.369640051,0.05752,6.943175589,
0.05754,7.004209757,0.05754,6.943175589,
0.05756,8.10050064,0.05756,7.308605883,
0.05758,5.177058286,0.05758,6.943175589,
0.0576,7.735070345,0.0576,6.943175589,
0.05762,8.10050064,0.05762,6.577745295,
0.05764,6.638779463,0.05764,6.577745295,
0.05766,6.273349169,0.05766,6.577745295,
0.05768,5.177058286,0.05768,6.943175589,
0.0577,3.715337109,0.0577,6.943175589,
0.05772,4.080767404,0.05772,6.943175589,
0.05774,2.619046227,0.05774,6.212315001,
0.05776,2.619046227,0.05776,6.943175589,
0.05778,2.619046227,0.05778,6.577745295,
0.0578,-1.400687009,0.0578,6.212315001,
0.05782,-1.766117303,0.05782,6.577745295,
0.05784,-2.131547597,0.05784,6.212315001,
0.05786,-3.22783848,0.05786,6.577745295,
0.05788,-2.862408186,0.05788,6.577745295,
0.0579,-4.689559656,0.0579,6.577745295,
0.05792,-5.054989951,0.05792,6.212315001,
0.05794,-5.420420245,0.05794,6.577745295,
0.05796,-6.516711127,0.05796,6.577745295,
0.05798,-8.343862598,0.05798,6.577745295,
0.058,-7.247571716,0.058,6.577745295,
0.05802,-7.247571716,0.05802,6.943175589,
0.05804,-6.882141422,0.05804,6.212315001,
0.05806,-7.247571716,0.05806,6.577745295,
0.05808,-6.882141422,0.05808,6.577745295,
0.0581,-6.151280833,0.0581,6.212315001,
0.05812,-6.151280833,0.05812,6.943175589,
0.05814,-6.151280833,0.05814,6.577745295,
0.05816,-4.324129362,0.05816,6.212315001,
0.05818,-2.496977891,0.05818,6.577745295,
0.0582,-1.766117303,0.0582,6.943175589,
0.05822,-1.400687009,0.05822,6.212315001,
0.05824,-1.400687009,0.05824,6.943175589,
0.05826,0.06103416773,0.05826,6.577745295,
0.05828,1.15732505,0.05828,6.577745295,
0.0583,4.080767404,0.0583,6.943175589,
0.05832,3.349906815,0.05832,6.577745295,
0.05834,3.349906815,0.05834,6.212315001,
0.05836,5.177058286,0.05836,6.577745295,
0.05838,5.54248858,0.05838,5.116024118,
0.0584,5.907918874,0.0584,6.577745295,
0.05842,6.273349169,0.05842,6.577745295,
