"A0_accX_x","A0_accX_y","A1_rmsX_x","A1_rmsX_y"
0,-2.613813265,0,4.019733236,
2e-05,-1.882952677,2e-05,4.750593824,
4e-05,-1.152092088,4e-05,4.38516353,
6e-05,-0.05580120592,6e-05,4.019733236,
8e-05,-1.517522383,8e-05,4.750593824,
0.0001,-0.05580120592,0.0001,4.38516353,
0.00012,-0.7866617943,0.00012,4.38516353,
0.00014,1.040489677,0.00014,4.750593824,
0.00016,0.6750593824,0.00016,4.38516353,
0.00018,1.405919971,0.00018,4.38516353,
0.0002,3.233071442,0.0002,4.750593824,
0.00022,2.502210853,0.00022,4.38516353,
0.00024,1.771350265,0.00024,4.019733236,
0.00026,2.502210853,0.00026,4.750593824,
0.00028,3.233071442,0.00028,4.750593824,
0.0003,3.96393203,0.0003,4.019733236,
0.00032,3.233071442,0.00032,4.750593824,
0.00034,2.867641147,0.00034,4.019733236,
0.00036,3.96393203,0.00036,4.019733236,
0.00038,1.040489677,0.00038,4.750593824,
0.0004,2.867641147,0.0004,4.38516353,
0.00042,3.233071442,0.00042,4.019733236,
0.00044,2.867641147,0.00044,5.116024118,
0.00046,1.771350265,0.00046,4.38516353,
0.00048,1.771350265,0.00048,4.019733236,
0.0005,1.405919971,0.0005,4.750593824,
0.00052,-0.05580120592,0.00052,4.38516353,
0.00054,-0.05580120592,0.00054,3.288872648,
0.00056,-0.4212315001,0.00056,4.750593824,
0.00058,-1.152092088,0.00058,4.750593824,
0.0006,-2.248382971,0.0006,4.38516353,
0.00062,-1.882952677,0.00062,4.750593824,
0.00064,-3.344673853,0.00064,4.019733236,
0.00066,-1.882952677,0.00066,4.750593824,
0.00068,-2.248382971,0.00068,2.923442353,
0.0007,-4.075534442,0.0007,4.019733236,
0.00072,-3.344673853,0.00072,4.750593824,
0.00074,-2.979243559,0.00074,4.38516353,
0.00076,-1.517522383,0.00076,4.38516353,
0.00078,-4.075534442,0.00078,5.846884707,
0.0008,-4.075534442,0.0008,4.750593824,
0.00082,-3.710104148,0.00082,4.38516353,
0.00084,-3.710104148,0.00084,4.38516353,
0.00086,-2.979243559,0.00086,4.38516353,
0.00088,-2.248382971,0.00088,2.558012059,
0.0009,-3.344673853,0.0009,4.38516353,
0.00092,-2.613813265,0.00092,4.750593824,
0.00094,-2.979243559,0.00094,4.38516353,
0.00096,-2.248382971,0.00096,4.38516353,
0.00098,-1.152092088,0.00098,5.846884707,
0.001,-0.7866617943,0.001,4.750593824,
0.00102,0.3096290883,0.00102,4.38516353,
0.00104,0.3096290883,0.00104,3.654302942,
0.00106,1.040489677,0.00106,4.750593824,
0.00108,0.3096290883,0.00108,3.654302942,
0.0011,2.867641147,0.0011,4.750593824,
0.00112,2.867641147,0.00112,4.750593824,
0.00114,2.502210853,0.00114,4.38516353,
0.00116,2.867641147,0.00116,4.750593824,
0.00118,3.598501736,0.00118,5.116024118,
0.0012,2.867641147,0.0012,4.38516353,
0.00122,2.502210853,0.00122,4.38516353,
0.00124,2.136780559,0.00124,4.38516353,
0.00126,3.233071442,0.00126,4.38516353,
0.00128,4.694792618,0.00128,3.654302942,
0.0013,3.233071442,0.0013,4.38516353,
0.00132,3.233071442,0.00132,4.38516353,
0.00134,4.329362324,0.00134,4.38516353,
0.00136,3.598501736,0.00136,5.116024118,
0.00138,1.405919971,0.00138,4.750593824,
0.0014,3.96393203,0.0014,4.38516353,
0.00142,1.040489677,0.00142,4.750593824,
0.00144,0.6750593824,0.00144,4.38516353,
0.00146,1.040489677,0.00146,4.38516353,
0.00148,1.405919971,0.00148,4.019733236,
0.0015,-0.7866617943,0.0015,4.38516353,
0.00152,-0.7866617943,0.00152,4.38516353,
0.00154,-1.152092088,0.00154,4.38516353,
0.00156,-1.517522383,0.00156,4.750593824,
0.00158,-1.882952677,0.00158,4.38516353,
0.0016,-0.05580120592,0.0016,4.750593824,
0.00162,-4.075534442,0.00162,4.38516353,
0.00164,-1.882952677,0.00164,4.38516353,
0.00166,-4.440964736,0.00166,4.750593824,
0.00168,-4.440964736,0.00168,4.38516353,
0.0017,-2.979243559,0.0017,4.019733236,
0.00172,-2.613813265,0.00172,4.38516353,
0.00174,-2.979243559,0.00174,4.750593824,
0.00176,-3.344673853,0.00176,4.38516353,
0.00178,-3.710104148,0.00178,4.38516353,
0.0018,-2.613813265,0.0018,4.38516353,
0.00182,-2.613813265,0.00182,4.38516353,
0.00184,-1.517522383,0.00184,4.750593824,
0.00186,-1.517522383,0.00186,4.38516353,
0.00188,-0.4212315001,0.00188,4.750593824,
0.0019,-1.882952677,0.0019,4.750593824,
0.00192,-1.882952677,0.00192,4.019733236,
0.00194,-1.152092088,0.00194,4.38516353,
0.00196,-0.05580120592,0.00196,5.116024118,
0.00198,0.6750593824,0.00198,4.019733236,
0.002,-1.517522383,0.002,4.38516353,
0.00202,1.405919971,0.00202,4.38516353,
0.00204,-0.05580120592,0.00204,4.38516353,
0.00206,2.502210853,0.00206,4.38516353,
0.00208,2.867641147,0.00208,4.750593824,
0.0021,2.867641147,0.0021,4.38516353,
0.00212,3.233071442,0.00212,4.38516353,
0.00214,4.694792618,0.00214,4.750593824,
0.00216,2.502210853,0.00216,4.750593824,
0.00218,4.694792618,0.00218,4.019733236,
0.0022,3.96393203,0.0022,4.750593824,
0.00222,1.040489677,0.00222,4.38516353,
0.00224,3.598501736,0.00224,4.019733236,
0.00226,2.867641147,0.00226,4.38516353,
0.00228,2.136780559,0.00228,4.750593824,
0.0023,2.136780559,0.0023,4.019733236,
0.00232,1.405919971,0.00232,4.750593824,
0.00234,1.405919971,0.00234,4.38516353,
0.00236,1.040489677,0.00236,4.38516353,
0.00238,1.405919971,0.00238,4.38516353,
0.0024,0.6750593824,0.0024,4.750593824,
0.00242,0.3096290883,0.00242,4.38516353,
0.00244,-0.4212315001,0.00244,4.38516353,
0.00246,-1.882952677,0.00246,4.750593824,
0.00248,-0.4212315001,0.00248,4.38516353,
0.0025,-0.7866617943,0.0025,4.38516353,
0.00252,-1.152092088,0.00252,4.38516353,
0.00254,-1.517522383,0.00254,4.019733236,
0.00256,-2.613813265,0.00256,4.750593824,
0.00258,-3.344673853,0.00258,4.38516353,
0.0026,-3.710104148,0.0026,4.019733236,
0.00262,-2.979243559,0.00262,4.38516353,
0.00264,-4.075534442,0.00264,4.750593824,
0.00266,-4.440964736,0.00266,4.38516353,
0.00268,-5.902685913,0.00268,4.38516353,
0.0027,-2.613813265,0.0027,4.750593824,
0.00272,-2.248382971,0.00272,4.38516353,
0.00274,-2.979243559,0.00274,4.019733236,
0.00276,-2.979243559,0.00276,4.750593824,
0.00278,-2.248382971,0.00278,4.38516353,
0.0028,-1.517522383,0.0028,4.019733236,
0.00282,-2.613813265,0.00282,4.38516353,
0.00284,-1.882952677,0.00284,4.38516353,
0.00286,0.3096290883,0.00286,4.750593824,
0.00288,-0.4212315001,0.00288,4.750593824,
0.0029,0.3096290883,0.0029,5.116024118,
0.00292,0.6750593824,0.00292,4.750593824,
0.00294,0.6750593824,0.00294,4.38516353,
0.00296,1.771350265,0.00296,4.750593824,
0.00298,2.867641147,0.00298,4.750593824,
0.003,1.040489677,0.003,4.019733236,
0.00302,2.867641147,0.00302,4.019733236,
0.00304,-0.05580120592,0.00304,4.750593824,
0.00306,3.96393203,0.00306,4.019733236,
0.00308,2.502210853,0.00308,4.38516353,
0.0031,3.598501736,0.0031,4.750593824,
0.00312,3.96393203,0.00312,4.750593824,
0.00314,3.96393203,0.00314,4.019733236,
0.00316,4.694792618,0.00316,4.38516353,
0.00318,2.867641147,0.00318,4.750593824,
0.0032,3.598501736,0.0032,4.750593824,
0.00322,3.233071442,0.00322,4.750593824,
0.00324,3.96393203,0.00324,4.750593824,
0.00326,1.771350265,0.00326,4.38516353,
0.00328,1.405919971,0.00328,4.38516353,
0.0033,1.405919971,0.0033,4.38516353,
0.00332,0.6750593824,0.00332,4.38516353,
0.00334,0.6750593824,0.00334,4.38516353,
0.00336,-1.882952677,0.00336,4.38516353,
0.00338,-2.613813265,0.00338,4.38516353,
0.0034,-0.7866617943,0.0034,5.116024118,
0.00342,-1.882952677,0.00342,4.750593824,
0.00344,-2.613813265,0.00344,4.019733236,
0.00346,-2.979243559,0.00346,4.38516353,
0.00348,-2.979243559,0.00348,4.38516353,
0.0035,-2.613813265,0.0035,3.654302942,
0.00352,-5.171825324,0.00352,4.38516353,
0.00354,-3.710104148,0.00354,4.019733236,
0.00356,-2.979243559,0.00356,4.019733236,
0.00358,-1.517522383,0.00358,4.750593824,
0.0036,-4.075534442,0.0036,5.116024118,
0.00362,-1.882952677,0.00362,4.019733236,
0.00364,-2.979243559,0.00364,4.750593824,
0.00366,-3.344673853,0.00366,4.38516353,
0.00368,-2.979243559,0.00368,4.38516353,
0.0037,-3.710104148,0.0037,4.019733236,
0.00372,-4.075534442,0.00372,4.750593824,
0.00374,-1.882952677,0.00374,4.38516353,
0.00376,-0.7866617943,0.00376,4.750593824,
0.00378,-1.152092088,0.00378,4.019733236,
0.0038,-0.7866617943,0.0038,4.750593824,
0.00382,1.405919971,0.00382,4.38516353,
0.00384,0.6750593824,0.00384,4.019733236,
0.00386,1.040489677,0.00386,4.750593824,
0.00388,1.771350265,0.00388,4.38516353,
0.0039,1.771350265,0.0039,3.654302942,
0.00392,2.136780559,0.00392,4.38516353,
0.00394,3.233071442,0.00394,4.38516353,
0.00396,3.598501736,0.00396,3.654302942,
0.00398,3.96393203,0.00398,4.019733236,
0.004,3.96393203,0.004,4.019733236,
0.00402,4.694792618,0.00402,3.654302942,
0.00404,4.329362324,0.00404,4.38516353,
0.00406,3.96393203,0.00406,4.019733236,
0.00408,2.136780559,0.00408,4.019733236,
0.0041,3.96393203,0.0041,4.019733236,
0.00412,1.771350265,0.00412,4.38516353,
0.00414,2.136780559,0.00414,4.019733236,
0.00416,3.598501736,0.00416,4.38516353,
0.00418,2.136780559,0.00418,4.750593824,
0.0042,1.040489677,0.0042,4.019733236,
0.00422,3.233071442,0.00422,4.38516353,
0.00424,0.6750593824,0.00424,4.750593824,
0.00426,0.3096290883,0.00426,4.019733236,
0.00428,-0.05580120592,0.00428,4.38516353,
0.0043,0.3096290883,0.0043,4.019733236,
0.00432,0.3096290883,0.00432,4.38516353,
0.00434,-3.710104148,0.00434,4.38516353,
0.00436,-1.517522383,0.00436,4.019733236,
0.00438,-2.979243559,0.00438,4.019733236,
0.0044,-1.152092088,0.0044,4.750593824,
0.00442,-3.344673853,0.00442,4.019733236,
0.00444,-3.344673853,0.00444,4.019733236,
0.00446,-3.344673853,0.00446,4.38516353,
0.00448,-2.613813265,0.00448,4.019733236,
0.0045,-2.613813265,0.0045,3.654302942,
0.00452,-2.979243559,0.00452,4.019733236,
0.00454,-2.979243559,0.00454,3.654302942,
0.00456,-4.075534442,0.00456,3.654302942,
0.00458,-3.710104148,0.00458,4.38516353,
0.0046,-2.979243559,0.0046,4.38516353,
0.00462,-2.248382971,0.00462,4.019733236,
0.00464,-1.152092088,0.00464,4.38516353,
0.00466,-1.882952677,0.00466,4.019733236,
0.00468,-1.882952677,0.00468,4.019733236,
0.0047,-1.152092088,0.0047,4.38516353,
0.00472,0.6750593824,0.00472,4.38516353,
0.00474,-0.4212315001,0.00474,3.654302942,
0.00476,0.3096290883,0.00476,4.38516353,
0.00478,1.040489677,0.00478,4.38516353,
0.0048,1.040489677,0.0048,3.654302942,
0.00482,1.040489677,0.00482,3.288872648,
0.00484,2.136780559,0.00484,4.019733236,
0.00486,2.136780559,0.00486,4.750593824,
0.00488,2.867641147,0.00488,4.019733236,
0.0049,3.96393203,0.0049,4.019733236,
0.00492,2.867641147,0.00492,3.654302942,
0.00494,3.233071442,0.00494,4.019733236,
0.00496,5.060222912,0.00496,4.38516353,
0.00498,3.598501736,0.00498,4.019733236,
0.005,3.598501736,0.005,4.38516353,
0.00502,3.96393203,0.00502,4.38516353,
0.00504,2.502210853,0.00504,3.654302942,
0.00506,1.771350265,0.00506,4.38516353,
0.00508,2.867641147,0.00508,4.38516353,
0.0051,2.502210853,0.0051,3.654302942,
0.00512,1.771350265,0.00512,4.019733236,
0.00514,1.771350265,0.00514,4.38516353,
0.00516,1.040489677,0.00516,4.019733236,
0.00518,0.3096290883,0.00518,4.38516353,
0.0052,1.040489677,0.0052,4.38516353,
0.00522,-0.7866617943,0.00522,4.38516353,
0.00524,-0.7866617943,0.00524,4.38516353,
0.00526,-0.7866617943,0.00526,4.38516353,
0.00528,-1.517522383,0.00528,4.019733236,
0.0053,-1.152092088,0.0053,4.38516353,
0.00532,-1.517522383,0.00532,3.654302942,
0.00534,-3.344673853,0.00534,4.019733236,
0.00536,-2.979243559,0.00536,4.38516353,
0.00538,-2.979243559,0.00538,4.38516353,
0.0054,-3.344673853,0.0054,3.654302942,
0.00542,-2.979243559,0.00542,5.116024118,
0.00544,-3.344673853,0.00544,4.019733236,
0.00546,-3.710104148,0.00546,3.654302942,
0.00548,-2.979243559,0.00548,4.38516353,
0.0055,-2.613813265,0.0055,4.38516353,
0.00552,-4.075534442,0.00552,3.288872648,
0.00554,-2.613813265,0.00554,4.019733236,
0.00556,-0.7866617943,0.00556,3.654302942,
0.00558,-1.882952677,0.00558,3.654302942,
0.0056,-1.152092088,0.0056,4.019733236,
0.00562,-1.152092088,0.00562,5.846884707,
0.00564,-1.882952677,0.00564,4.019733236,
0.00566,0.3096290883,0.00566,4.750593824,
0.00568,-0.4212315001,0.00568,4.38516353,
0.0057,-0.05580120592,0.0057,5.116024118,
0.00572,2.502210853,0.00572,2.558012059,
0.00574,1.040489677,0.00574,4.019733236,
0.00576,0.3096290883,0.00576,4.019733236,
0.00578,2.867641147,0.00578,3.654302942,
0.0058,1.405919971,0.0058,3.654302942,
0.00582,2.136780559,0.00582,5.846884707,
0.00584,3.598501736,0.00584,4.019733236,
0.00586,2.867641147,0.00586,4.019733236,
0.00588,3.598501736,0.00588,4.019733236,
0.0059,3.233071442,0.0059,4.019733236,
0.00592,3.598501736,0.00592,2.923442353,
0.00594,3.233071442,0.00594,4.38516353,
0.00596,3.598501736,0.00596,4.38516353,
0.00598,2.867641147,0.00598,4.019733236,
0.006,3.96393203,0.006,4.38516353,
0.00602,2.867641147,0.00602,5.116024118,
0.00604,2.867641147,0.00604,4.38516353,
0.00606,2.136780559,0.00606,4.019733236,
0.00608,1.405919971,0.00608,4.38516353,
0.0061,1.040489677,0.0061,4.750593824,
0.00612,0.3096290883,0.00612,5.846884707,
0.00614,-0.05580120592,0.00614,4.38516353,
0.00616,0.3096290883,0.00616,4.38516353,
0.00618,-1.152092088,0.00618,4.38516353,
0.0062,-0.4212315001,0.0062,4.38516353,
0.00622,-0.7866617943,0.00622,3.654302942,
0.00624,-1.517522383,0.00624,4.38516353,
0.00626,-2.248382971,0.00626,4.019733236,
0.00628,-3.344673853,0.00628,4.38516353,
0.0063,-3.710104148,0.0063,4.38516353,
0.00632,-3.344673853,0.00632,5.116024118,
0.00634,-3.710104148,0.00634,4.38516353,
0.00636,-4.440964736,0.00636,4.38516353,
0.00638,-3.344673853,0.00638,4.750593824,
0.0064,-3.344673853,0.0064,4.750593824,
0.00642,-1.152092088,0.00642,4.38516353,
0.00644,-3.710104148,0.00644,4.38516353,
0.00646,-3.344673853,0.00646,4.019733236,
0.00648,-2.613813265,0.00648,4.750593824,
0.0065,-1.882952677,0.0065,4.38516353,
0.00652,-2.248382971,0.00652,4.38516353,
0.00654,-2.613813265,0.00654,4.750593824,
0.00656,-1.517522383,0.00656,4.019733236,
0.00658,-0.4212315001,0.00658,5.116024118,
0.0066,-1.152092088,0.0066,4.38516353,
0.00662,-0.05580120592,0.00662,4.019733236,
0.00664,0.3096290883,0.00664,4.750593824,
0.00666,1.771350265,0.00666,4.38516353,
0.00668,1.771350265,0.00668,4.019733236,
0.0067,2.136780559,0.0067,4.019733236,
0.00672,2.136780559,0.00672,3.654302942,
0.00674,3.233071442,0.00674,4.38516353,
0.00676,3.598501736,0.00676,4.019733236,
0.00678,2.502210853,0.00678,4.019733236,
0.0068,4.329362324,0.0068,4.38516353,
0.00682,5.060222912,0.00682,4.019733236,
0.00684,3.598501736,0.00684,3.654302942,
0.00686,0.6750593824,0.00686,4.38516353,
0.00688,2.867641147,0.00688,4.38516353,
0.0069,2.502210853,0.0069,4.019733236,
0.00692,2.867641147,0.00692,4.019733236,
0.00694,3.96393203,0.00694,4.019733236,
0.00696,2.867641147,0.00696,3.654302942,
0.00698,2.136780559,0.00698,4.38516353,
0.007,4.694792618,0.007,4.38516353,
0.00702,2.136780559,0.00702,3.654302942,
0.00704,1.405919971,0.00704,4.38516353,
0.00706,1.405919971,0.00706,4.750593824,
0.00708,-2.248382971,0.00708,4.019733236,
0.0071,-0.4212315001,0.0071,4.750593824,
0.00712,-0.4212315001,0.00712,4.019733236,
0.00714,-1.882952677,0.00714,3.654302942,
0.00716,-0.05580120592,0.00716,4.750593824,
0.00718,-2.613813265,0.00718,4.38516353,
0.0072,-2.979243559,0.0072,3.654302942,
0.00722,-1.517522383,0.00722,4.019733236,
0.00724,-2.613813265,0.00724,4.019733236,
0.00726,-2.979243559,0.00726,3.288872648,
0.00728,-2.613813265,0.00728,4.38516353,
0.0073,-2.979243559,0.0073,4.38516353,
0.00732,-3.344673853,0.00732,4.38516353,
0.00734,-3.344673853,0.00734,4.38516353,
0.00736,-4.440964736,0.00736,4.019733236,
0.00738,-3.710104148,0.00738,3.654302942,
0.0074,-0.7866617943,0.0074,3.654302942,
0.00742,-2.248382971,0.00742,4.38516353,
0.00744,-3.344673853,0.00744,3.654302942,
0.00746,-2.248382971,0.00746,4.38516353,
0.00748,-0.7866617943,0.00748,4.38516353,
0.0075,-1.517522383,0.0075,4.019733236,
0.00752,-0.05580120592,0.00752,4.38516353,
0.00754,-0.4212315001,0.00754,4.38516353,
0.00756,-1.882952677,0.00756,4.019733236,
0.00758,2.136780559,0.00758,4.38516353,
0.0076,1.771350265,0.0076,4.38516353,
0.00762,-0.05580120592,0.00762,4.019733236,
0.00764,2.136780559,0.00764,4.38516353,
0.00766,3.598501736,0.00766,4.38516353,
0.00768,2.502210853,0.00768,4.019733236,
0.0077,3.233071442,0.0077,4.38516353,
0.00772,4.694792618,0.00772,4.38516353,
0.00774,3.233071442,0.00774,4.750593824,
0.00776,4.329362324,0.00776,3.654302942,
0.00778,3.233071442,0.00778,4.38516353,
0.0078,2.502210853,0.0078,4.019733236,
0.00782,3.598501736,0.00782,4.019733236,
0.00784,2.867641147,0.00784,2.923442353,
0.00786,3.233071442,0.00786,4.019733236,
0.00788,2.502210853,0.00788,4.38516353,
0.0079,3.233071442,0.0079,4.019733236,
0.00792,2.136780559,0.00792,4.019733236,
0.00794,1.040489677,0.00794,4.38516353,
0.00796,1.040489677,0.00796,4.019733236,
0.00798,1.040489677,0.00798,4.019733236,
0.008,1.771350265,0.008,4.019733236,
0.00802,2.867641147,0.00802,4.019733236,
0.00804,-0.05580120592,0.00804,3.654302942,
0.00806,-1.152092088,0.00806,4.019733236,
0.00808,-0.4212315001,0.00808,4.019733236,
0.0081,-1.882952677,0.0081,4.019733236,
0.00812,-2.979243559,0.00812,4.019733236,
0.00814,-1.882952677,0.00814,4.019733236,
0.00816,-3.710104148,0.00816,3.654302942,
0.00818,-2.613813265,0.00818,4.38516353,
0.0082,-4.075534442,0.0082,4.019733236,
0.00822,-3.344673853,0.00822,4.019733236,
0.00824,-4.440964736,0.00824,5.116024118,
0.00826,-3.344673853,0.00826,4.019733236,
0.00828,-5.902685913,0.00828,3.654302942,
0.0083,-2.248382971,0.0083,5.116024118,
0.00832,-2.613813265,0.00832,4.019733236,
0.00834,-3.710104148,0.00834,3.288872648,
0.00836,-3.344673853,0.00836,4.38516353,
0.00838,-2.613813265,0.00838,4.38516353,
0.0084,-2.248382971,0.0084,3.654302942,
0.00842,-1.152092088,0.00842,4.019733236,
0.00844,-0.4212315001,0.00844,4.750593824,
0.00846,0.3096290883,0.00846,4.019733236,
0.00848,-0.4212315001,0.00848,4.019733236,
0.0085,0.3096290883,0.0085,4.019733236,
0.00852,0.3096290883,0.00852,3.654302942,
0.00854,0.3096290883,0.00854,4.38516353,
0.00856,0.6750593824,0.00856,4.38516353,
0.00858,1.405919971,0.00858,4.019733236,
0.0086,2.136780559,0.0086,4.38516353,
0.00862,2.502210853,0.00862,4.750593824,
0.00864,3.598501736,0.00864,4.019733236,
0.00866,3.233071442,0.00866,5.116024118,
0.00868,3.233071442,0.00868,4.019733236,
0.0087,2.502210853,0.0087,3.654302942,
0.00872,2.867641147,0.00872,4.38516353,
0.00874,3.233071442,0.00874,4.38516353,
0.00876,2.502210853,0.00876,4.019733236,
0.00878,3.233071442,0.00878,4.750593824,
0.0088,4.694792618,0.0088,4.38516353,
0.00882,2.502210853,0.00882,4.019733236,
0.00884,3.96393203,0.00884,4.750593824,
0.00886,2.867641147,0.00886,4.38516353,
0.00888,1.405919971,0.00888,4.38516353,
0.0089,1.771350265,0.0089,4.750593824,
0.00892,0.3096290883,0.00892,4.019733236,
0.00894,-0.05580120592,0.00894,4.019733236,
0.00896,-2.979243559,0.00896,4.750593824,
0.00898,-2.248382971,0.00898,4.38516353,
0.009,-1.882952677,0.009,4.019733236,
0.00902,-2.613813265,0.00902,5.116024118,
0.00904,-1.517522383,0.00904,4.38516353,
0.00906,-1.517522383,0.00906,4.019733236,
0.00908,-2.613813265,0.00908,5.116024118,
0.0091,-4.440964736,0.0091,4.38516353,
0.00912,-3.710104148,0.00912,4.019733236,
0.00914,-2.979243559,0.00914,4.750593824,
0.00916,-2.248382971,0.00916,4.38516353,
0.00918,-2.979243559,0.00918,4.38516353,
0.0092,-3.710104148,0.0092,4.750593824,
0.00922,-4.80639503,0.00922,4.019733236,
0.00924,-3.344673853,0.00924,3.654302942,
0.00926,-5.171825324,0.00926,4.750593824,
0.00928,-3.344673853,0.00928,4.38516353,
0.0093,-4.075534442,0.0093,4.019733236,
0.00932,-2.613813265,0.00932,4.750593824,
0.00934,-1.882952677,0.00934,4.38516353,
0.00936,-1.517522383,0.00936,4.38516353,
0.00938,-0.7866617943,0.00938,4.750593824,
0.0094,-1.152092088,0.0094,4.019733236,
0.00942,-1.882952677,0.00942,4.019733236,
0.00944,0.6750593824,0.00944,4.38516353,
0.00946,1.405919971,0.00946,4.019733236,
0.00948,1.405919971,0.00948,4.38516353,
0.0095,2.136780559,0.0095,4.38516353,
0.00952,1.405919971,0.00952,4.38516353,
0.00954,2.867641147,0.00954,4.38516353,
0.00956,3.598501736,0.00956,4.750593824,
0.00958,2.867641147,0.00958,4.38516353,
0.0096,5.425653207,0.0096,4.019733236,
0.00962,4.329362324,0.00962,5.116024118,
0.00964,3.598501736,0.00964,4.019733236,
0.00966,3.598501736,0.00966,4.38516353,
0.00968,3.96393203,0.00968,5.116024118,
0.0097,2.867641147,0.0097,4.019733236,
0.00972,3.233071442,0.00972,4.38516353,
0.00974,2.867641147,0.00974,5.116024118,
0.00976,1.771350265,0.00976,4.019733236,
0.00978,2.502210853,0.00978,4.019733236,
0.0098,2.867641147,0.0098,5.116024118,
0.00982,1.771350265,0.00982,4.019733236,
0.00984,3.233071442,0.00984,4.38516353,
0.00986,-0.05580120592,0.00986,5.116024118,
0.00988,-0.05580120592,0.00988,4.019733236,
0.0099,-0.4212315001,0.0099,4.019733236,
0.00992,-1.882952677,0.00992,5.116024118,
0.00994,-1.517522383,0.00994,4.750593824,
0.00996,-0.7866617943,0.00996,4.019733236,
0.00998,-0.05580120592,0.00998,4.750593824,
0.01,-3.710104148,0.01,4.38516353,
0.01002,-2.979243559,0.01002,4.019733236,
0.01004,-1.517522383,0.01004,4.750593824,
0.01006,-2.613813265,0.01006,4.019733236,
0.01008,-3.344673853,0.01008,4.019733236,
0.0101,-4.075534442,0.0101,4.750593824,
0.01012,-3.710104148,0.01012,4.38516353,
0.01014,-3.344673853,0.01014,3.654302942,
0.01016,-3.344673853,0.01016,5.481454413,
0.01018,-3.344673853,0.01018,4.38516353,
0.0102,-2.248382971,0.0102,4.019733236,
0.01022,-2.248382971,0.01022,5.116024118,
0.01024,-2.613813265,0.01024,4.019733236,
0.01026,-3.710104148,0.01026,4.019733236,
0.01028,-1.517522383,0.01028,4.750593824,
0.0103,-2.979243559,0.0103,4.38516353,
0.01032,-0.7866617943,0.01032,4.019733236,
0.01034,0.3096290883,0.01034,4.750593824,
0.01036,-0.05580120592,0.01036,4.38516353,
0.01038,0.3096290883,0.01038,4.019733236,
0.0104,3.598501736,0.0104,4.750593824,
0.01042,0.6750593824,0.01042,4.38516353,
0.01044,2.867641147,0.01044,4.019733236,
0.01046,2.867641147,0.01046,5.116024118,
0.01048,2.136780559,0.01048,4.019733236,
0.0105,3.598501736,0.0105,4.750593824,
0.01052,3.598501736,0.01052,4.38516353,
0.01054,4.329362324,0.01054,4.38516353,
0.01056,3.598501736,0.01056,4.750593824,
0.01058,2.867641147,0.01058,4.38516353,
0.0106,3.233071442,0.0106,4.019733236,
0.01062,3.598501736,0.01062,4.750593824,
0.01064,2.867641147,0.01064,4.38516353,
0.01066,4.329362324,0.01066,2.923442353,
0.01068,3.233071442,0.01068,4.750593824,
0.0107,2.136780559,0.0107,4.750593824,
0.01072,2.136780559,0.01072,4.019733236,
0.01074,1.040489677,0.01074,4.750593824,
0.01076,0.3096290883,0.01076,5.116024118,
0.01078,2.502210853,0.01078,4.38516353,
0.0108,-0.05580120592,0.0108,4.38516353,
0.01082,-0.05580120592,0.01082,4.750593824,
0.01084,-0.7866617943,0.01084,4.38516353,
0.01086,-4.440964736,0.01086,5.846884707,
0.01088,-2.613813265,0.01088,4.750593824,
0.0109,-2.979243559,0.0109,4.38516353,
0.01092,-1.882952677,0.01092,4.38516353,
0.01094,-2.248382971,0.01094,4.38516353,
0.01096,-2.613813265,0.01096,3.288872648,
0.01098,-4.80639503,0.01098,4.38516353,
0.011,-3.344673853,0.011,4.38516353,
0.01102,-1.517522383,0.01102,4.750593824,
0.01104,-3.344673853,0.01104,4.019733236,
0.01106,-2.979243559,0.01106,5.116024118,
0.01108,-4.440964736,0.01108,4.750593824,
0.0111,-3.344673853,0.0111,4.38516353,
0.01112,-4.440964736,0.01112,4.750593824,
0.01114,-3.344673853,0.01114,4.019733236,
0.01116,-2.248382971,0.01116,4.019733236,
0.01118,-2.613813265,0.01118,4.38516353,
0.0112,-2.248382971,0.0112,3.654302942,
0.01122,-1.882952677,0.01122,4.019733236,
0.01124,0.6750593824,0.01124,4.019733236,
0.01126,-0.05580120592,0.01126,4.750593824,
0.01128,-1.152092088,0.01128,4.019733236,
0.0113,0.6750593824,0.0113,4.750593824,
0.01132,1.040489677,0.01132,4.750593824,
0.01134,0.6750593824,0.01134,4.750593824,
0.01136,2.136780559,0.01136,4.38516353,
0.01138,1.405919971,0.01138,5.116024118,
0.0114,1.771350265,0.0114,5.116024118,
0.01142,4.329362324,0.01142,4.38516353,
0.01144,2.502210853,0.01144,4.38516353,
0.01146,3.233071442,0.01146,3.654302942,
0.01148,3.96393203,0.01148,4.750593824,
0.0115,6.887374383,0.0115,4.38516353,
0.01152,3.96393203,0.01152,4.38516353,
0.01154,2.867641147,0.01154,4.750593824,
0.01156,3.598501736,0.01156,4.750593824,
0.01158,3.233071442,0.01158,4.38516353,
0.0116,3.96393203,0.0116,4.38516353,
0.01162,2.867641147,0.01162,4.38516353,
0.01164,2.502210853,0.01164,4.019733236,
0.01166,1.771350265,0.01166,4.750593824,
0.01168,1.771350265,0.01168,4.750593824,
0.0117,0.3096290883,0.0117,4.019733236,
0.01172,-0.7866617943,0.01172,5.116024118,
0.01174,-0.05580120592,0.01174,4.38516353,
0.01176,-0.4212315001,0.01176,4.019733236,
0.01178,-2.248382971,0.01178,4.750593824,
0.0118,-2.979243559,0.0118,4.38516353,
0.01182,-1.882952677,0.01182,4.38516353,
0.01184,-1.882952677,0.01184,5.116024118,
0.01186,-2.613813265,0.01186,4.38516353,
0.01188,-2.248382971,0.01188,4.019733236,
0.0119,-3.344673853,0.0119,4.38516353,
0.01192,-5.537255618,0.01192,4.750593824,
0.01194,-4.075534442,0.01194,3.654302942,
0.01196,-3.344673853,0.01196,4.38516353,
0.01198,-1.882952677,0.01198,4.38516353,
0.012,-4.075534442,0.012,4.38516353,
0.01202,-2.979243559,0.01202,4.750593824,
0.01204,-3.344673853,0.01204,4.019733236,
0.01206,-2.979243559,0.01206,3.654302942,
0.01208,-3.710104148,0.01208,4.750593824,
0.0121,-3.710104148,0.0121,4.750593824,
0.01212,-2.248382971,0.01212,4.38516353,
0.01214,-1.517522383,0.01214,5.116024118,
0.01216,-1.152092088,0.01216,4.750593824,
0.01218,0.3096290883,0.01218,4.019733236,
0.0122,-1.152092088,0.0122,4.750593824,
0.01222,-1.517522383,0.01222,4.38516353,
0.01224,0.3096290883,0.01224,4.019733236,
0.01226,3.233071442,0.01226,5.116024118,
0.01228,1.405919971,0.01228,4.38516353,
0.0123,1.771350265,0.0123,4.38516353,
0.01232,2.502210853,0.01232,4.750593824,
0.01234,2.867641147,0.01234,4.750593824,
0.01236,1.771350265,0.01236,4.38516353,
0.01238,2.502210853,0.01238,4.750593824,
0.0124,5.060222912,0.0124,4.750593824,
0.01242,4.329362324,0.01242,3.654302942,
0.01244,2.867641147,0.01244,4.750593824,
0.01246,3.598501736,0.01246,5.116024118,
0.01248,3.96393203,0.01248,3.654302942,
0.0125,2.502210853,0.0125,5.481454413,
0.01252,3.233071442,0.01252,4.019733236,
0.01254,3.233071442,0.01254,4.019733236,
0.01256,3.598501736,0.01256,5.116024118,
0.01258,1.771350265,0.01258,4.38516353,
0.0126,0.6750593824,0.0126,4.019733236,
0.01262,1.040489677,0.01262,4.750593824,
0.01264,-1.517522383,0.01264,4.019733236,
0.01266,0.6750593824,0.01266,4.019733236,
0.01268,-0.7866617943,0.01268,4.38516353,
0.0127,-0.7866617943,0.0127,4.38516353,
0.01272,-0.7866617943,0.01272,4.019733236,
0.01274,-1.882952677,0.01274,4.38516353,
0.01276,-2.248382971,0.01276,4.38516353,
0.01278,-2.613813265,0.01278,4.750593824,
0.0128,-1.882952677,0.0128,4.750593824,
0.01282,-2.613813265,0.01282,4.019733236,
0.01284,-3.344673853,0.01284,4.38516353,
0.01286,-2.613813265,0.01286,5.116024118,
0.01288,-3.710104148,0.01288,3.654302942,
0.0129,-4.440964736,0.0129,4.019733236,
0.01292,-3.344673853,0.01292,4.750593824,
0.01294,-4.075534442,0.01294,4.38516353,
0.01296,-2.979243559,0.01296,4.38516353,
0.01298,-0.7866617943,0.01298,5.846884707,
0.013,-2.979243559,0.013,4.019733236,
0.01302,-2.248382971,0.01302,4.38516353,
0.01304,-2.248382971,0.01304,4.750593824,
0.01306,-3.344673853,0.01306,4.38516353,
0.01308,-1.517522383,0.01308,3.288872648,
0.0131,-0.7866617943,0.0131,4.750593824,
0.01312,-1.517522383,0.01312,4.38516353,
0.01314,-0.7866617943,0.01314,4.38516353,
0.01316,0.3096290883,0.01316,4.750593824,
0.01318,0.6750593824,0.01318,5.116024118,
0.0132,1.771350265,0.0132,4.019733236,
0.01322,-0.05580120592,0.01322,4.750593824,
0.01324,1.771350265,0.01324,4.38516353,
0.01326,1.771350265,0.01326,4.019733236,
0.01328,2.867641147,0.01328,4.38516353,
0.0133,2.867641147,0.0133,4.019733236,
0.01332,3.96393203,0.01332,4.750593824,
0.01334,5.060222912,0.01334,4.750593824,
0.01336,3.598501736,0.01336,4.019733236,
0.01338,3.598501736,0.01338,4.019733236,
0.0134,3.96393203,0.0134,4.750593824,
0.01342,3.598501736,0.01342,4.38516353,
0.01344,5.791083501,0.01344,4.019733236,
0.01346,1.771350265,0.01346,4.750593824,
0.01348,1.771350265,0.01348,4.750593824,
0.0135,3.233071442,0.0135,4.38516353,
0.01352,1.405919971,0.01352,4.38516353,
0.01354,0.6750593824,0.01354,4.38516353,
0.01356,-0.05580120592,0.01356,4.019733236,
0.01358,1.405919971,0.01358,4.019733236,
0.0136,-1.152092088,0.0136,4.750593824,
0.01362,-0.05580120592,0.01362,4.019733236,
0.01364,-1.152092088,0.01364,4.750593824,
0.01366,-0.7866617943,0.01366,4.38516353,
0.01368,-2.248382971,0.01368,5.116024118,
0.0137,-0.4212315001,0.0137,4.750593824,
0.01372,-1.882952677,0.01372,4.019733236,
0.01374,-2.613813265,0.01374,4.38516353,
0.01376,-2.248382971,0.01376,5.116024118,
0.01378,-4.440964736,0.01378,4.019733236,
0.0138,-2.248382971,0.0138,4.019733236,
0.01382,-3.710104148,0.01382,4.38516353,
0.01384,-4.075534442,0.01384,4.38516353,
0.01386,-3.710104148,0.01386,4.019733236,
0.01388,-1.152092088,0.01388,4.019733236,
0.0139,-7.729837384,0.0139,4.750593824,
0.01392,-3.344673853,0.01392,4.019733236,
0.01394,-2.979243559,0.01394,4.38516353,
0.01396,-4.075534442,0.01396,4.38516353,
0.01398,-1.882952677,0.01398,4.750593824,
0.014,-1.517522383,0.014,4.750593824,
0.01402,-1.517522383,0.01402,4.38516353,
0.01404,-0.05580120592,0.01404,4.38516353,
0.01406,-0.05580120592,0.01406,4.750593824,
0.01408,-0.05580120592,0.01408,4.38516353,
0.0141,0.6750593824,0.0141,4.38516353,
0.01412,1.040489677,0.01412,4.38516353,
0.01414,-0.05580120592,0.01414,4.38516353,
0.01416,1.040489677,0.01416,4.019733236,
0.01418,2.502210853,0.01418,4.38516353,
0.0142,1.405919971,0.0142,4.38516353,
0.01422,2.502210853,0.01422,4.019733236,
0.01424,1.771350265,0.01424,4.750593824,
0.01426,4.694792618,0.01426,4.38516353,
0.01428,3.598501736,0.01428,4.38516353,
0.0143,5.791083501,0.0143,5.116024118,
0.01432,3.233071442,0.01432,4.38516353,
0.01434,3.96393203,0.01434,4.38516353,
0.01436,5.791083501,0.01436,4.750593824,
0.01438,3.233071442,0.01438,4.019733236,
0.0144,2.867641147,0.0144,4.750593824,
0.01442,3.233071442,0.01442,4.750593824,
0.01444,2.136780559,0.01444,4.38516353,
0.01446,2.867641147,0.01446,4.38516353,
0.01448,2.136780559,0.01448,4.38516353,
0.0145,2.136780559,0.0145,4.750593824,
0.01452,0.3096290883,0.01452,4.38516353,
0.01454,-0.05580120592,0.01454,5.116024118,
0.01456,-1.517522383,0.01456,4.38516353,
0.01458,-0.05580120592,0.01458,4.38516353,
0.0146,-2.248382971,0.0146,5.116024118,
0.01462,-2.613813265,0.01462,4.750593824,
0.01464,-1.517522383,0.01464,4.38516353,
0.01466,-2.979243559,0.01466,4.750593824,
0.01468,-2.979243559,0.01468,4.750593824,
0.0147,-3.710104148,0.0147,4.38516353,
0.01472,-2.248382971,0.01472,4.750593824,
0.01474,-4.075534442,0.01474,4.750593824,
0.01476,-2.979243559,0.01476,4.38516353,
0.01478,-4.440964736,0.01478,4.750593824,
0.0148,-3.710104148,0.0148,4.38516353,
0.01482,-6.268116207,0.01482,4.38516353,
0.01484,-2.613813265,0.01484,5.116024118,
0.01486,-3.710104148,0.01486,4.38516353,
0.01488,-3.344673853,0.01488,4.38516353,
0.0149,-1.152092088,0.0149,4.750593824,
0.01492,-2.613813265,0.01492,4.019733236,
0.01494,-0.4212315001,0.01494,4.38516353,
0.01496,-2.248382971,0.01496,4.750593824,
0.01498,-1.517522383,0.01498,4.38516353,
0.015,-3.710104148,0.015,4.019733236,
0.01502,0.3096290883,0.01502,4.38516353,
0.01504,0.6750593824,0.01504,4.750593824,
0.01506,1.040489677,0.01506,4.38516353,
0.01508,2.867641147,0.01508,4.750593824,
0.0151,1.405919971,0.0151,4.38516353,
0.01512,3.233071442,0.01512,4.38516353,
0.01514,2.502210853,0.01514,4.750593824,
0.01516,1.771350265,0.01516,4.750593824,
0.01518,5.060222912,0.01518,4.38516353,
0.0152,4.329362324,0.0152,4.38516353,
0.01522,5.060222912,0.01522,3.654302942,
0.01524,3.233071442,0.01524,4.019733236,
0.01526,3.598501736,0.01526,4.019733236,
0.01528,3.598501736,0.01528,4.38516353,
0.0153,3.96393203,0.0153,3.654302942,
0.01532,2.136780559,0.01532,4.38516353,
0.01534,2.502210853,0.01534,4.38516353,
0.01536,5.060222912,0.01536,4.38516353,
0.01538,3.233071442,0.01538,3.654302942,
0.0154,1.040489677,0.0154,4.38516353,
0.01542,2.136780559,0.01542,4.38516353,
0.01544,-0.4212315001,0.01544,4.38516353,
0.01546,1.405919971,0.01546,4.38516353,
0.01548,-0.05580120592,0.01548,4.38516353,
0.0155,-0.4212315001,0.0155,3.654302942,
0.01552,-0.4212315001,0.01552,4.38516353,
0.01554,-1.152092088,0.01554,4.38516353,
0.01556,-1.882952677,0.01556,4.019733236,
0.01558,-1.152092088,0.01558,4.38516353,
0.0156,-2.248382971,0.0156,5.481454413,
0.01562,-2.979243559,0.01562,4.019733236,
0.01564,-1.882952677,0.01564,4.019733236,
0.01566,-2.613813265,0.01566,4.019733236,
0.01568,-4.075534442,0.01568,3.654302942,
0.0157,-3.710104148,0.0157,4.019733236,
0.01572,-2.248382971,0.01572,4.38516353,
0.01574,-3.344673853,0.01574,3.654302942,
0.01576,-4.075534442,0.01576,4.38516353,
0.01578,-2.979243559,0.01578,4.38516353,
0.0158,-2.979243559,0.0158,4.019733236,
0.01582,-2.613813265,0.01582,4.019733236,
0.01584,-2.979243559,0.01584,3.654302942,
0.01586,-3.710104148,0.01586,3.654302942,
0.01588,-1.882952677,0.01588,4.38516353,
0.0159,-0.7866617943,0.0159,3.654302942,
0.01592,-0.7866617943,0.01592,4.019733236,
0.01594,-0.05580120592,0.01594,4.750593824,
0.01596,1.040489677,0.01596,4.38516353,
0.01598,-0.7866617943,0.01598,4.019733236,
0.016,1.771350265,0.016,4.750593824,
0.01602,1.771350265,0.01602,4.38516353,
0.01604,2.502210853,0.01604,4.38516353,
0.01606,2.867641147,0.01606,5.116024118,
0.01608,3.233071442,0.01608,4.750593824,
0.0161,2.502210853,0.0161,4.019733236,
0.01612,2.867641147,0.01612,4.38516353,
0.01614,5.425653207,0.01614,4.38516353,
0.01616,3.96393203,0.01616,4.019733236,
0.01618,4.329362324,0.01618,4.38516353,
0.0162,3.233071442,0.0162,4.019733236,
0.01622,5.791083501,0.01622,4.38516353,
0.01624,3.598501736,0.01624,4.750593824,
0.01626,3.598501736,0.01626,4.750593824,
0.01628,2.502210853,0.01628,4.019733236,
0.0163,3.233071442,0.0163,5.116024118,
0.01632,0.6750593824,0.01632,4.38516353,
0.01634,1.771350265,0.01634,4.750593824,
0.01636,1.040489677,0.01636,4.750593824,
0.01638,-0.7866617943,0.01638,4.750593824,
0.0164,-0.4212315001,0.0164,4.38516353,
0.01642,-1.517522383,0.01642,4.750593824,
0.01644,-0.05580120592,0.01644,4.750593824,
0.01646,-0.4212315001,0.01646,4.750593824,
0.01648,-2.248382971,0.01648,4.38516353,
0.0165,-2.613813265,0.0165,3.654302942,
0.01652,-1.152092088,0.01652,4.38516353,
0.01654,-1.517522383,0.01654,4.750593824,
0.01656,-2.979243559,0.01656,4.38516353,
0.01658,-0.7866617943,0.01658,4.019733236,
0.0166,-4.075534442,0.0166,5.116024118,
0.01662,-2.613813265,0.01662,4.38516353,
0.01664,-3.710104148,0.01664,4.38516353,
0.01666,-4.440964736,0.01666,4.750593824,
0.01668,-2.613813265,0.01668,4.019733236,
0.0167,-2.248382971,0.0167,4.019733236,
0.01672,-6.268116207,0.01672,4.38516353,
0.01674,-1.882952677,0.01674,4.019733236,
0.01676,-2.613813265,0.01676,4.38516353,
0.01678,-2.248382971,0.01678,4.750593824,
0.0168,-1.517522383,0.0168,4.750593824,
0.01682,-0.05580120592,0.01682,4.38516353,
0.01684,-1.882952677,0.01684,4.750593824,
0.01686,0.3096290883,0.01686,4.019733236,
0.01688,0.6750593824,0.01688,4.38516353,
0.0169,-1.152092088,0.0169,4.750593824,
0.01692,-0.7866617943,0.01692,4.38516353,
0.01694,1.040489677,0.01694,4.38516353,
0.01696,1.405919971,0.01696,4.750593824,
0.01698,2.502210853,0.01698,4.38516353,
0.017,2.867641147,0.017,5.116024118,
0.01702,2.867641147,0.01702,4.019733236,
0.01704,5.060222912,0.01704,4.38516353,
0.01706,3.233071442,0.01706,4.38516353,
0.01708,0.3096290883,0.01708,4.38516353,
0.0171,5.060222912,0.0171,4.750593824,
0.01712,3.233071442,0.01712,4.750593824,
0.01714,1.405919971,0.01714,4.38516353,
0.01716,3.598501736,0.01716,4.38516353,
0.01718,3.598501736,0.01718,4.750593824,
0.0172,3.233071442,0.0172,4.38516353,
0.01722,2.502210853,0.01722,4.38516353,
0.01724,2.867641147,0.01724,4.38516353,
0.01726,0.6750593824,0.01726,4.750593824,
0.01728,1.040489677,0.01728,4.38516353,
0.0173,1.040489677,0.0173,5.116024118,
0.01732,0.3096290883,0.01732,4.38516353,
0.01734,1.405919971,0.01734,4.019733236,
0.01736,-0.4212315001,0.01736,4.38516353,
0.01738,-1.152092088,0.01738,4.750593824,
0.0174,-1.882952677,0.0174,4.38516353,
0.01742,-1.152092088,0.01742,4.750593824,
0.01744,-1.882952677,0.01744,4.38516353,
0.01746,-1.517522383,0.01746,4.019733236,
0.01748,-2.979243559,0.01748,4.38516353,
0.0175,-4.075534442,0.0175,4.38516353,
0.01752,-3.344673853,0.01752,4.019733236,
0.01754,-3.344673853,0.01754,4.750593824,
0.01756,-3.710104148,0.01756,4.019733236,
0.01758,-4.075534442,0.01758,3.654302942,
0.0176,-2.979243559,0.0176,4.750593824,
0.01762,-4.440964736,0.01762,4.019733236,
0.01764,-5.537255618,0.01764,4.38516353,
0.01766,-2.979243559,0.01766,4.38516353,
0.01768,-4.075534442,0.01768,4.019733236,
0.0177,-2.613813265,0.0177,4.019733236,
0.01772,-1.152092088,0.01772,4.750593824,
0.01774,-2.248382971,0.01774,4.750593824,
0.01776,-0.05580120592,0.01776,4.38516353,
0.01778,0.6750593824,0.01778,4.019733236,
0.0178,-0.4212315001,0.0178,4.750593824,
0.01782,0.6750593824,0.01782,4.750593824,
0.01784,1.040489677,0.01784,4.750593824,
0.01786,-0.4212315001,0.01786,4.38516353,
0.01788,2.136780559,0.01788,4.38516353,
0.0179,2.502210853,0.0179,4.38516353,
0.01792,2.136780559,0.01792,4.750593824,
0.01794,3.233071442,0.01794,4.38516353,
0.01796,2.136780559,0.01796,4.38516353,
0.01798,3.96393203,0.01798,4.38516353,
0.018,1.771350265,0.018,4.38516353,
0.01802,3.598501736,0.01802,4.38516353,
0.01804,3.233071442,0.01804,4.38516353,
0.01806,3.233071442,0.01806,4.38516353,
0.01808,3.96393203,0.01808,4.38516353,
0.0181,2.867641147,0.0181,4.019733236,
0.01812,3.96393203,0.01812,3.654302942,
0.01814,1.771350265,0.01814,4.38516353,
0.01816,3.96393203,0.01816,4.019733236,
0.01818,2.502210853,0.01818,4.019733236,
0.0182,2.136780559,0.0182,4.019733236,
0.01822,0.6750593824,0.01822,3.654302942,
0.01824,0.3096290883,0.01824,4.019733236,
0.01826,-0.05580120592,0.01826,4.38516353,
0.01828,-0.4212315001,0.01828,4.019733236,
0.0183,-0.05580120592,0.0183,4.38516353,
0.01832,-1.152092088,0.01832,3.654302942,
0.01834,-1.882952677,0.01834,4.019733236,
0.01836,-1.882952677,0.01836,4.750593824,
0.01838,-2.613813265,0.01838,4.38516353,
0.0184,-2.979243559,0.0184,4.019733236,
0.01842,-3.710104148,0.01842,3.288872648,
0.01844,-5.537255618,0.01844,4.019733236,
0.01846,-3.344673853,0.01846,4.019733236,
0.01848,-2.979243559,0.01848,4.750593824,
0.0185,-2.979243559,0.0185,4.38516353,
0.01852,-3.710104148,0.01852,4.019733236,
0.01854,-4.075534442,0.01854,4.38516353,
0.01856,-3.344673853,0.01856,4.019733236,
0.01858,-3.344673853,0.01858,3.654302942,
0.0186,-1.152092088,0.0186,4.38516353,
0.01862,-1.882952677,0.01862,3.654302942,
0.01864,-2.979243559,0.01864,4.019733236,
0.01866,-1.152092088,0.01866,4.750593824,
0.01868,-1.152092088,0.01868,4.38516353,
0.0187,3.233071442,0.0187,3.654302942,
0.01872,-0.4212315001,0.01872,5.481454413,
0.01874,0.3096290883,0.01874,4.019733236,
0.01876,0.3096290883,0.01876,3.654302942,
0.01878,0.3096290883,0.01878,4.019733236,
0.0188,2.136780559,0.0188,4.38516353,
0.01882,2.502210853,0.01882,4.38516353,
0.01884,2.867641147,0.01884,4.38516353,
0.01886,3.233071442,0.01886,4.019733236,
0.01888,2.867641147,0.01888,4.019733236,
0.0189,4.694792618,0.0189,4.38516353,
0.01892,2.867641147,0.01892,4.750593824,
0.01894,2.136780559,0.01894,3.654302942,
0.01896,3.96393203,0.01896,4.38516353,
0.01898,4.694792618,0.01898,4.38516353,
0.019,3.598501736,0.019,4.019733236,
0.01902,4.694792618,0.01902,4.750593824,
0.01904,3.96393203,0.01904,4.019733236,
0.01906,3.96393203,0.01906,4.019733236,
0.01908,3.598501736,0.01908,4.38516353,
0.0191,4.694792618,0.0191,4.38516353,
0.01912,2.502210853,0.01912,3.654302942,
0.01914,1.771350265,0.01914,4.019733236,
0.01916,1.405919971,0.01916,4.38516353,
0.01918,0.3096290883,0.01918,4.019733236,
0.0192,0.6750593824,0.0192,4.38516353,
0.01922,-0.4212315001,0.01922,4.38516353,
0.01924,-2.613813265,0.01924,4.019733236,
0.01926,-2.248382971,0.01926,4.019733236,
0.01928,-0.05580120592,0.01928,4.019733236,
0.0193,-1.517522383,0.0193,4.019733236,
0.01932,-1.882952677,0.01932,4.019733236,
0.01934,-2.979243559,0.01934,4.019733236,
0.01936,-2.979243559,0.01936,4.019733236,
0.01938,-2.979243559,0.01938,4.38516353,
0.0194,-2.248382971,0.0194,4.38516353,
0.01942,-4.80639503,0.01942,4.019733236,
0.01944,0.3096290883,0.01944,4.019733236,
0.01946,-2.979243559,0.01946,4.750593824,
0.01948,-3.710104148,0.01948,4.019733236,
0.0195,-3.344673853,0.0195,4.38516353,
0.01952,-2.979243559,0.01952,4.38516353,
0.01954,-3.710104148,0.01954,4.019733236,
0.01956,-2.979243559,0.01956,4.38516353,
0.01958,-1.882952677,0.01958,4.019733236,
0.0196,-2.979243559,0.0196,4.019733236,
0.01962,-0.7866617943,0.01962,4.019733236,
0.01964,-2.979243559,0.01964,4.38516353,
0.01966,-0.4212315001,0.01966,4.019733236,
0.01968,1.040489677,0.01968,4.38516353,
0.0197,1.040489677,0.0197,3.654302942,
0.01972,1.405919971,0.01972,3.654302942,
0.01974,0.3096290883,0.01974,4.38516353,
0.01976,2.502210853,0.01976,4.38516353,
0.01978,2.502210853,0.01978,3.654302942,
0.0198,2.502210853,0.0198,4.019733236,
0.01982,2.502210853,0.01982,4.38516353,
0.01984,1.771350265,0.01984,4.019733236,
0.01986,3.598501736,0.01986,4.019733236,
0.01988,2.867641147,0.01988,4.750593824,
0.0199,2.502210853,0.0199,4.019733236,
0.01992,3.96393203,0.01992,4.019733236,
0.01994,3.598501736,0.01994,4.38516353,
0.01996,3.233071442,0.01996,3.654302942,
0.01998,2.867641147,0.01998,4.38516353,
0.02,3.598501736,0.02,4.38516353,
0.02002,2.502210853,0.02002,4.750593824,
0.02004,1.771350265,0.02004,4.38516353,
0.02006,2.867641147,0.02006,4.38516353,
0.02008,-0.4212315001,0.02008,4.750593824,
0.0201,1.405919971,0.0201,4.019733236,
0.02012,0.3096290883,0.02012,4.38516353,
0.02014,0.6750593824,0.02014,4.38516353,
0.02016,-3.710104148,0.02016,4.019733236,
0.02018,-1.152092088,0.02018,4.38516353,
0.0202,-1.517522383,0.0202,4.750593824,
0.02022,-2.248382971,0.02022,4.38516353,
0.02024,-3.710104148,0.02024,4.019733236,
0.02026,-3.344673853,0.02026,5.116024118,
0.02028,-3.710104148,0.02028,4.38516353,
0.0203,-2.613813265,0.0203,4.019733236,
0.02032,-2.979243559,0.02032,4.750593824,
0.02034,-3.344673853,0.02034,4.019733236,
0.02036,-3.710104148,0.02036,4.019733236,
0.02038,-2.979243559,0.02038,5.116024118,
0.0204,-4.075534442,0.0204,4.38516353,
0.02042,-4.075534442,0.02042,4.38516353,
0.02044,-2.979243559,0.02044,4.750593824,
0.02046,-4.440964736,0.02046,4.019733236,
0.02048,-2.979243559,0.02048,4.019733236,
0.0205,-3.344673853,0.0205,4.750593824,
0.02052,-2.248382971,0.02052,4.019733236,
0.02054,-2.979243559,0.02054,4.019733236,
0.02056,-1.882952677,0.02056,5.116024118,
0.02058,-2.248382971,0.02058,4.38516353,
0.0206,-0.4212315001,0.0206,4.019733236,
0.02062,0.3096290883,0.02062,4.750593824,
0.02064,0.3096290883,0.02064,3.654302942,
0.02066,0.6750593824,0.02066,4.019733236,
0.02068,1.405919971,0.02068,4.38516353,
0.0207,1.771350265,0.0207,4.019733236,
0.02072,2.502210853,0.02072,4.019733236,
0.02074,4.694792618,0.02074,5.481454413,
0.02076,2.136780559,0.02076,4.750593824,
0.02078,3.233071442,0.02078,4.38516353,
0.0208,3.96393203,0.0208,4.750593824,
0.02082,3.96393203,0.02082,4.38516353,
0.02084,4.329362324,0.02084,2.558012059,
0.02086,4.329362324,0.02086,5.116024118,
0.02088,4.694792618,0.02088,4.38516353,
0.0209,5.791083501,0.0209,4.38516353,
0.02092,3.598501736,0.02092,4.750593824,
0.02094,3.233071442,0.02094,6.212315001,
0.02096,3.598501736,0.02096,4.38516353,
0.02098,2.867641147,0.02098,4.38516353,
0.021,-0.4212315001,0.021,4.38516353,
0.02102,1.040489677,0.02102,4.38516353,
0.02104,1.040489677,0.02104,3.288872648,
0.02106,-1.517522383,0.02106,4.019733236,
0.02108,-0.4212315001,0.02108,4.38516353,
0.0211,0.3096290883,0.0211,5.116024118,
0.02112,-0.4212315001,0.02112,4.019733236,
0.02114,-1.882952677,0.02114,5.481454413,
0.02116,-2.979243559,0.02116,4.019733236,
0.02118,-3.710104148,0.02118,4.38516353,
0.0212,-2.248382971,0.0212,4.38516353,
0.02122,-2.613813265,0.02122,4.750593824,
0.02124,-3.344673853,0.02124,2.923442353,
0.02126,-3.710104148,0.02126,4.38516353,
0.02128,-3.344673853,0.02128,4.38516353,
0.0213,-2.979243559,0.0213,4.019733236,
0.02132,-3.710104148,0.02132,4.750593824,
0.02134,-4.80639503,0.02134,5.846884707,
0.02136,-2.979243559,0.02136,4.38516353,
0.02138,-2.979243559,0.02138,4.38516353,
0.0214,-2.979243559,0.0214,3.288872648,
0.02142,-2.979243559,0.02142,4.38516353,
0.02144,-2.248382971,0.02144,2.923442353,
0.02146,-1.517522383,0.02146,4.38516353,
0.02148,-1.882952677,0.02148,4.750593824,
0.0215,-0.4212315001,0.0215,4.019733236,
0.02152,-0.4212315001,0.02152,4.38516353,
0.02154,-1.152092088,0.02154,5.116024118,
0.02156,-0.05580120592,0.02156,4.019733236,
0.02158,0.3096290883,0.02158,4.38516353,
0.0216,0.6750593824,0.0216,4.750593824,
0.02162,2.136780559,0.02162,4.38516353,
0.02164,2.136780559,0.02164,4.019733236,
0.02166,2.867641147,0.02166,4.38516353,
0.02168,3.233071442,0.02168,4.38516353,
0.0217,2.867641147,0.0217,4.750593824,
0.02172,3.598501736,0.02172,4.019733236,
0.02174,3.598501736,0.02174,4.38516353,
0.02176,4.694792618,0.02176,4.750593824,
0.02178,2.502210853,0.02178,4.38516353,
0.0218,4.329362324,0.0218,4.019733236,
0.02182,4.694792618,0.02182,4.750593824,
0.02184,2.502210853,0.02184,4.750593824,
0.02186,2.867641147,0.02186,4.38516353,
0.02188,2.867641147,0.02188,4.38516353,
0.0219,2.136780559,0.0219,4.38516353,
0.02192,2.136780559,0.02192,4.38516353,
0.02194,1.405919971,0.02194,4.750593824,
0.02196,1.771350265,0.02196,4.38516353,
0.02198,1.040489677,0.02198,4.019733236,
0.022,-0.05580120592,0.022,4.38516353,
0.02202,1.405919971,0.02202,4.750593824,
0.02204,-1.152092088,0.02204,4.38516353,
0.02206,-1.517522383,0.02206,4.750593824,
0.02208,-2.248382971,0.02208,4.750593824,
0.0221,-1.882952677,0.0221,4.019733236,
0.02212,-1.882952677,0.02212,4.750593824,
0.02214,-3.344673853,0.02214,4.750593824,
0.02216,-2.613813265,0.02216,4.38516353,
0.02218,-4.075534442,0.02218,4.750593824,
0.0222,-3.344673853,0.0222,4.38516353,
0.02222,-4.80639503,0.02222,4.38516353,
0.02224,-3.344673853,0.02224,4.750593824,
0.02226,-3.344673853,0.02226,4.750593824,
0.02228,-4.075534442,0.02228,4.38516353,
0.0223,-3.344673853,0.0223,4.019733236,
0.02232,-2.613813265,0.02232,4.38516353,
0.02234,-2.613813265,0.02234,4.38516353,
0.02236,-2.248382971,0.02236,4.38516353,
0.02238,-2.248382971,0.02238,4.750593824,
0.0224,-1.517522383,0.0224,4.38516353,
0.02242,-0.4212315001,0.02242,4.38516353,
0.02244,-0.7866617943,0.02244,4.750593824,
0.02246,-0.4212315001,0.02246,4.38516353,
0.02248,0.6750593824,0.02248,4.019733236,
0.0225,1.771350265,0.0225,4.38516353,
0.02252,2.867641147,0.02252,4.750593824,
0.02254,1.771350265,0.02254,4.019733236,
0.02256,1.405919971,0.02256,4.38516353,
0.02258,2.502210853,0.02258,4.38516353,
0.0226,2.136780559,0.0226,4.38516353,
0.02262,3.233071442,0.02262,4.38516353,
0.02264,3.233071442,0.02264,6.212315001,
0.02266,3.96393203,0.02266,4.38516353,
0.02268,3.233071442,0.02268,5.116024118,
0.0227,3.233071442,0.0227,4.38516353,
0.02272,3.598501736,0.02272,4.38516353,
0.02274,3.598501736,0.02274,4.38516353,
0.02276,3.598501736,0.02276,4.38516353,
0.02278,3.598501736,0.02278,4.38516353,
0.0228,2.867641147,0.0228,4.38516353,
0.02282,4.329362324,0.02282,4.38516353,
0.02284,2.867641147,0.02284,4.019733236,
0.02286,0.6750593824,0.02286,4.019733236,
0.02288,1.040489677,0.02288,4.019733236,
0.0229,1.771350265,0.0229,4.750593824,
0.02292,-1.152092088,0.02292,4.750593824,
0.02294,-0.7866617943,0.02294,4.019733236,
0.02296,0.3096290883,0.02296,5.481454413,
0.02298,-1.517522383,0.02298,4.38516353,
0.023,-1.517522383,0.023,4.019733236,
0.02302,-1.882952677,0.02302,4.750593824,
0.02304,-1.882952677,0.02304,4.750593824,
0.02306,-2.979243559,0.02306,3.288872648,
0.02308,-2.613813265,0.02308,4.750593824,
0.0231,-3.710104148,0.0231,4.38516353,
0.02312,-3.710104148,0.02312,4.019733236,
0.02314,-2.248382971,0.02314,4.750593824,
0.02316,-2.979243559,0.02316,5.846884707,
0.02318,-5.902685913,0.02318,4.019733236,
0.0232,-3.710104148,0.0232,4.750593824,
0.02322,-6.268116207,0.02322,4.38516353,
0.02324,-3.344673853,0.02324,4.019733236,
0.02326,-4.075534442,0.02326,3.654302942,
0.02328,-6.268116207,0.02328,4.38516353,
0.0233,-2.248382971,0.0233,4.019733236,
0.02332,-2.613813265,0.02332,5.116024118,
0.02334,-2.613813265,0.02334,4.38516353,
0.02336,-2.248382971,0.02336,3.288872648,
0.02338,-0.7866617943,0.02338,4.750593824,
0.0234,-0.05580120592,0.0234,4.019733236,
0.02342,-0.05580120592,0.02342,4.38516353,
0.02344,1.040489677,0.02344,5.116024118,
0.02346,1.040489677,0.02346,5.116024118,
0.02348,1.771350265,0.02348,4.019733236,
0.0235,1.040489677,0.0235,4.750593824,
0.02352,1.040489677,0.02352,4.38516353,
0.02354,3.233071442,0.02354,3.654302942,
0.02356,3.598501736,0.02356,5.116024118,
0.02358,2.867641147,0.02358,4.750593824,
0.0236,2.867641147,0.0236,4.019733236,
0.02362,3.96393203,0.02362,4.750593824,
0.02364,3.233071442,0.02364,4.019733236,
0.02366,3.96393203,0.02366,3.288872648,
0.02368,3.233071442,0.02368,4.750593824,
0.0237,0.6750593824,0.0237,4.019733236,
0.02372,3.233071442,0.02372,3.654302942,
0.02374,2.867641147,0.02374,4.38516353,
0.02376,1.771350265,0.02376,4.38516353,
0.02378,1.405919971,0.02378,3.288872648,
0.0238,0.6750593824,0.0238,4.750593824,
0.02382,2.136780559,0.02382,4.38516353,
0.02384,1.040489677,0.02384,4.019733236,
0.02386,-0.4212315001,0.02386,4.750593824,
0.02388,-1.152092088,0.02388,4.38516353,
0.0239,-1.152092088,0.0239,4.38516353,
0.02392,-1.152092088,0.02392,4.38516353,
0.02394,-3.344673853,0.02394,4.019733236,
0.02396,-1.152092088,0.02396,2.923442353,
0.02398,-3.344673853,0.02398,4.750593824,
0.024,-2.979243559,0.024,4.750593824,
0.02402,-2.613813265,0.02402,4.019733236,
0.02404,-2.613813265,0.02404,5.116024118,
0.02406,-1.882952677,0.02406,4.750593824,
0.02408,-3.710104148,0.02408,4.38516353,
0.0241,-3.344673853,0.0241,4.38516353,
0.02412,-6.998976795,0.02412,4.019733236,
0.02414,-3.710104148,0.02414,4.019733236,
0.02416,-3.344673853,0.02416,4.019733236,
0.02418,-2.248382971,0.02418,4.38516353,
0.0242,-2.248382971,0.0242,4.019733236,
0.02422,-2.248382971,0.02422,4.38516353,
0.02424,-3.344673853,0.02424,4.38516353,
0.02426,-2.248382971,0.02426,3.654302942,
0.02428,-4.075534442,0.02428,4.38516353,
0.0243,-1.152092088,0.0243,4.38516353,
0.02432,-1.882952677,0.02432,4.38516353,
0.02434,-0.4212315001,0.02434,5.116024118,
0.02436,0.3096290883,0.02436,4.750593824,
0.02438,2.502210853,0.02438,4.019733236,
0.0244,1.405919971,0.0244,4.750593824,
0.02442,1.040489677,0.02442,4.38516353,
0.02444,2.502210853,0.02444,4.019733236,
0.02446,2.502210853,0.02446,4.38516353,
0.02448,3.96393203,0.02448,4.019733236,
0.0245,3.233071442,0.0245,4.019733236,
0.02452,1.771350265,0.02452,5.116024118,
0.02454,2.867641147,0.02454,4.019733236,
0.02456,4.329362324,0.02456,4.019733236,
0.02458,2.136780559,0.02458,4.750593824,
0.0246,2.136780559,0.0246,4.019733236,
0.02462,2.867641147,0.02462,3.654302942,
0.02464,2.867641147,0.02464,4.750593824,
0.02466,2.867641147,0.02466,4.38516353,
0.02468,1.405919971,0.02468,4.019733236,
0.0247,2.502210853,0.0247,5.116024118,
0.02472,1.405919971,0.02472,4.750593824,
0.02474,2.867641147,0.02474,4.38516353,
0.02476,3.233071442,0.02476,4.38516353,
0.02478,2.502210853,0.02478,4.38516353,
0.0248,0.3096290883,0.0248,4.019733236,
0.02482,-0.05580120592,0.02482,4.750593824,
0.02484,-3.710104148,0.02484,4.750593824,
0.02486,-0.7866617943,0.02486,4.38516353,
0.02488,-1.517522383,0.02488,4.750593824,
0.0249,-1.882952677,0.0249,4.38516353,
0.02492,-0.7866617943,0.02492,4.38516353,
0.02494,-2.979243559,0.02494,4.38516353,
0.02496,-2.979243559,0.02496,4.750593824,
0.02498,-2.613813265,0.02498,4.38516353,
0.025,-5.171825324,0.025,4.38516353,
0.02502,-4.440964736,0.02502,4.750593824,
0.02504,-3.710104148,0.02504,4.019733236,
0.02506,-2.979243559,0.02506,4.750593824,
0.02508,-5.902685913,0.02508,4.38516353,
0.0251,-4.440964736,0.0251,4.38516353,
0.02512,-4.440964736,0.02512,4.38516353,
0.02514,-3.710104148,0.02514,4.750593824,
0.02516,-1.882952677,0.02516,4.38516353,
0.02518,-1.882952677,0.02518,4.38516353,
0.0252,-0.4212315001,0.0252,4.750593824,
0.02522,-1.152092088,0.02522,3.288872648,
0.02524,-0.05580120592,0.02524,4.750593824,
0.02526,-0.7866617943,0.02526,4.38516353,
0.02528,1.405919971,0.02528,4.750593824,
0.0253,0.6750593824,0.0253,4.750593824,
0.02532,-0.4212315001,0.02532,4.38516353,
0.02534,2.136780559,0.02534,4.019733236,
0.02536,0.3096290883,0.02536,4.750593824,
0.02538,4.329362324,0.02538,4.750593824,
0.0254,3.233071442,0.0254,4.019733236,
0.02542,3.96393203,0.02542,5.481454413,
0.02544,2.136780559,0.02544,4.38516353,
0.02546,2.867641147,0.02546,4.38516353,
0.02548,3.96393203,0.02548,4.750593824,
0.0255,5.060222912,0.0255,4.38516353,
0.02552,3.233071442,0.02552,4.38516353,
0.02554,3.96393203,0.02554,4.750593824,
0.02556,3.598501736,0.02556,4.38516353,
0.02558,3.233071442,0.02558,4.38516353,
0.0256,2.867641147,0.0256,4.750593824,
0.02562,1.405919971,0.02562,4.38516353,
0.02564,2.867641147,0.02564,4.38516353,
0.02566,2.867641147,0.02566,4.750593824,
0.02568,1.040489677,0.02568,4.38516353,
0.0257,1.040489677,0.0257,4.019733236,
0.02572,0.6750593824,0.02572,4.38516353,
0.02574,-0.05580120592,0.02574,4.019733236,
0.02576,0.3096290883,0.02576,4.019733236,
0.02578,-0.4212315001,0.02578,4.38516353,
0.0258,-1.152092088,0.0258,4.750593824,
0.02582,-2.248382971,0.02582,4.38516353,
0.02584,-2.248382971,0.02584,4.38516353,
0.02586,-2.613813265,0.02586,4.750593824,
0.02588,0.6750593824,0.02588,3.654302942,
0.0259,-3.344673853,0.0259,5.116024118,
0.02592,-4.075534442,0.02592,4.38516353,
0.02594,-3.344673853,0.02594,4.019733236,
0.02596,-3.710104148,0.02596,4.38516353,
0.02598,-5.171825324,0.02598,5.116024118,
0.026,-3.344673853,0.026,4.38516353,
0.02602,-2.979243559,0.02602,4.38516353,
0.02604,-5.171825324,0.02604,4.38516353,
0.02606,-2.979243559,0.02606,4.38516353,
0.02608,1.040489677,0.02608,4.750593824,
0.0261,-3.344673853,0.0261,4.38516353,
0.02612,-1.517522383,0.02612,4.750593824,
0.02614,-1.882952677,0.02614,4.750593824,
0.02616,-1.517522383,0.02616,4.38516353,
0.02618,-0.4212315001,0.02618,3.654302942,
0.0262,-1.152092088,0.0262,4.750593824,
0.02622,-0.05580120592,0.02622,4.38516353,
0.02624,1.040489677,0.02624,4.38516353,
0.02626,0.3096290883,0.02626,4.019733236,
0.02628,1.771350265,0.02628,5.116024118,
0.0263,2.502210853,0.0263,4.019733236,
0.02632,2.502210853,0.02632,4.019733236,
0.02634,3.233071442,0.02634,4.38516353,
0.02636,3.96393203,0.02636,4.38516353,
0.02638,4.329362324,0.02638,3.288872648,
0.0264,3.96393203,0.0264,4.38516353,
0.02642,2.136780559,0.02642,4.38516353,
0.02644,2.502210853,0.02644,4.38516353,
0.02646,3.598501736,0.02646,4.38516353,
0.02648,3.598501736,0.02648,4.750593824,
0.0265,4.694792618,0.0265,4.019733236,
0.02652,3.233071442,0.02652,4.38516353,
0.02654,1.405919971,0.02654,4.38516353,
0.02656,2.502210853,0.02656,4.38516353,
0.02658,3.233071442,0.02658,6.212315001,
0.0266,1.405919971,0.0266,4.38516353,
0.02662,2.136780559,0.02662,4.38516353,
0.02664,1.771350265,0.02664,4.750593824,
0.02666,0.6750593824,0.02666,4.019733236,
0.02668,0.6750593824,0.02668,2.923442353,
0.0267,0.3096290883,0.0267,4.019733236,
0.02672,-0.7866617943,0.02672,4.019733236,
0.02674,-1.152092088,0.02674,4.38516353,
0.02676,-1.152092088,0.02676,4.38516353,
0.02678,-2.248382971,0.02678,5.116024118,
0.0268,-1.882952677,0.0268,4.38516353,
0.02682,-2.613813265,0.02682,4.38516353,
0.02684,-2.979243559,0.02684,4.019733236,
0.02686,-2.979243559,0.02686,4.019733236,
0.02688,-3.710104148,0.02688,4.750593824,
0.0269,-4.440964736,0.0269,4.38516353,
0.02692,-2.613813265,0.02692,4.019733236,
0.02694,-2.979243559,0.02694,4.019733236,
0.02696,-3.710104148,0.02696,3.654302942,
0.02698,-3.710104148,0.02698,3.288872648,
0.027,-2.979243559,0.027,4.38516353,
0.02702,-2.248382971,0.02702,4.019733236,
0.02704,-1.152092088,0.02704,4.019733236,
0.02706,-0.4212315001,0.02706,4.019733236,
0.02708,-1.517522383,0.02708,3.654302942,
0.0271,-1.152092088,0.0271,4.38516353,
0.02712,-0.4212315001,0.02712,4.38516353,
0.02714,-0.05580120592,0.02714,4.019733236,
0.02716,-0.05580120592,0.02716,4.750593824,
0.02718,0.3096290883,0.02718,5.116024118,
0.0272,0.6750593824,0.0272,4.38516353,
0.02722,1.405919971,0.02722,4.38516353,
0.02724,2.502210853,0.02724,4.019733236,
0.02726,2.867641147,0.02726,3.654302942,
0.02728,5.060222912,0.02728,3.654302942,
0.0273,4.329362324,0.0273,4.38516353,
0.02732,3.96393203,0.02732,3.288872648,
0.02734,3.233071442,0.02734,4.750593824,
0.02736,3.598501736,0.02736,4.38516353,
0.02738,5.060222912,0.02738,4.38516353,
0.0274,5.425653207,0.0274,4.019733236,
0.02742,4.329362324,0.02742,4.38516353,
0.02744,4.694792618,0.02744,3.654302942,
0.02746,4.694792618,0.02746,4.750593824,
0.02748,3.598501736,0.02748,5.116024118,
0.0275,0.3096290883,0.0275,3.654302942,
0.02752,2.136780559,0.02752,4.38516353,
0.02754,2.136780559,0.02754,4.38516353,
0.02756,0.6750593824,0.02756,4.019733236,
0.02758,0.6750593824,0.02758,3.654302942,
0.0276,1.405919971,0.0276,4.38516353,
0.02762,-0.7866617943,0.02762,3.654302942,
0.02764,-0.7866617943,0.02764,4.38516353,
0.02766,-1.882952677,0.02766,4.38516353,
0.02768,-1.152092088,0.02768,4.38516353,
0.0277,-1.882952677,0.0277,2.923442353,
0.02772,-2.248382971,0.02772,4.38516353,
0.02774,-2.613813265,0.02774,4.38516353,
0.02776,-2.248382971,0.02776,3.654302942,
0.02778,-2.613813265,0.02778,4.38516353,
0.0278,-3.344673853,0.0278,3.654302942,
0.02782,-3.344673853,0.02782,4.38516353,
0.02784,-1.882952677,0.02784,4.750593824,
0.02786,-3.710104148,0.02786,4.019733236,
0.02788,-2.613813265,0.02788,4.38516353,
0.0279,-2.979243559,0.0279,4.38516353,
0.02792,-4.075534442,0.02792,4.019733236,
0.02794,-2.613813265,0.02794,4.38516353,
0.02796,-1.882952677,0.02796,4.750593824,
0.02798,-3.710104148,0.02798,4.019733236,
0.028,-0.4212315001,0.028,4.38516353,
0.02802,-0.4212315001,0.02802,4.750593824,
0.02804,-0.05580120592,0.02804,3.654302942,
0.02806,0.6750593824,0.02806,4.019733236,
0.02808,0.6750593824,0.02808,4.750593824,
0.0281,-0.05580120592,0.0281,4.38516353,
0.02812,2.136780559,0.02812,4.019733236,
0.02814,1.771350265,0.02814,4.019733236,
0.02816,2.136780559,0.02816,3.654302942,
0.02818,3.96393203,0.02818,4.750593824,
0.0282,3.598501736,0.0282,4.019733236,
0.02822,2.502210853,0.02822,4.019733236,
0.02824,3.96393203,0.02824,4.750593824,
0.02826,4.329362324,0.02826,4.38516353,
0.02828,2.502210853,0.02828,4.019733236,
0.0283,3.598501736,0.0283,4.019733236,
0.02832,4.329362324,0.02832,4.38516353,
0.02834,3.598501736,0.02834,3.654302942,
0.02836,3.96393203,0.02836,4.38516353,
0.02838,3.598501736,0.02838,4.019733236,
0.0284,3.96393203,0.0284,4.019733236,
0.02842,3.233071442,0.02842,4.019733236,
0.02844,3.96393203,0.02844,4.38516353,
0.02846,2.136780559,0.02846,4.019733236,
0.02848,1.405919971,0.02848,4.750593824,
0.0285,1.405919971,0.0285,4.38516353,
0.02852,-0.05580120592,0.02852,3.654302942,
0.02854,0.3096290883,0.02854,4.38516353,
0.02856,-0.7866617943,0.02856,4.750593824,
0.02858,-0.7866617943,0.02858,4.38516353,
0.0286,0.6750593824,0.0286,4.38516353,
0.02862,-2.613813265,0.02862,4.019733236,
0.02864,-2.613813265,0.02864,4.019733236,
0.02866,-2.613813265,0.02866,4.750593824,
0.02868,-2.979243559,0.02868,3.654302942,
0.0287,-2.979243559,0.0287,4.019733236,
0.02872,-2.979243559,0.02872,4.750593824,
0.02874,-3.710104148,0.02874,4.38516353,
0.02876,-3.710104148,0.02876,3.654302942,
0.02878,-5.902685913,0.02878,4.38516353,
0.0288,-2.248382971,0.0288,4.019733236,
0.02882,-3.344673853,0.02882,4.38516353,
0.02884,-4.440964736,0.02884,4.750593824,
0.02886,-3.344673853,0.02886,4.019733236,
0.02888,-3.344673853,0.02888,4.019733236,
0.0289,-1.882952677,0.0289,4.019733236,
0.02892,-1.517522383,0.02892,4.38516353,
0.02894,-1.882952677,0.02894,4.38516353,
0.02896,-1.152092088,0.02896,4.38516353,
0.02898,0.3096290883,0.02898,4.019733236,
0.029,0.3096290883,0.029,4.019733236,
0.02902,3.233071442,0.02902,5.116024118,
0.02904,-0.05580120592,0.02904,4.38516353,
0.02906,1.040489677,0.02906,4.019733236,
0.02908,1.771350265,0.02908,5.116024118,
0.0291,1.771350265,0.0291,5.116024118,
0.02912,2.136780559,0.02912,4.38516353,
0.02914,2.867641147,0.02914,5.116024118,
0.02916,3.233071442,0.02916,4.38516353,
0.02918,2.867641147,0.02918,4.019733236,
0.0292,3.598501736,0.0292,4.019733236,
0.02922,2.867641147,0.02922,4.38516353,
0.02924,3.233071442,0.02924,3.654302942,
0.02926,3.233071442,0.02926,4.750593824,
0.02928,2.136780559,0.02928,4.38516353,
0.0293,3.598501736,0.0293,5.116024118,
0.02932,3.598501736,0.02932,4.750593824,
0.02934,2.502210853,0.02934,4.750593824,
0.02936,2.136780559,0.02936,4.38516353,
0.02938,2.502210853,0.02938,5.481454413,
0.0294,1.771350265,0.0294,4.38516353,
0.02942,0.6750593824,0.02942,4.38516353,
0.02944,0.3096290883,0.02944,4.38516353,
0.02946,0.6750593824,0.02946,4.019733236,
0.02948,-0.4212315001,0.02948,4.019733236,
0.0295,-0.4212315001,0.0295,4.019733236,
0.02952,-2.248382971,0.02952,3.654302942,
0.02954,-1.882952677,0.02954,4.019733236,
0.02956,0.3096290883,0.02956,5.116024118,
0.02958,-3.710104148,0.02958,4.38516353,
0.0296,-2.979243559,0.0296,5.116024118,
0.02962,-2.248382971,0.02962,4.38516353,
0.02964,-4.440964736,0.02964,4.38516353,
0.02966,-3.344673853,0.02966,4.38516353,
0.02968,-1.517522383,0.02968,5.116024118,
0.0297,-3.710104148,0.0297,3.288872648,
0.02972,-3.710104148,0.02972,4.019733236,
0.02974,-3.344673853,0.02974,4.750593824,
0.02976,-3.710104148,0.02976,4.019733236,
0.02978,-3.710104148,0.02978,5.116024118,
0.0298,-0.05580120592,0.0298,5.116024118,
0.02982,-3.710104148,0.02982,4.38516353,
0.02984,-1.882952677,0.02984,4.38516353,
0.02986,-0.7866617943,0.02986,4.750593824,
0.02988,-1.882952677,0.02988,4.38516353,
0.0299,-0.7866617943,0.0299,5.116024118,
0.02992,2.867641147,0.02992,4.750593824,
0.02994,-0.7866617943,0.02994,4.019733236,
0.02996,-0.4212315001,0.02996,4.019733236,
0.02998,1.040489677,0.02998,4.750593824,
0.03,1.771350265,0.03,4.019733236,
0.03002,1.771350265,0.03002,4.38516353,
0.03004,-0.05580120592,0.03004,4.750593824,
0.03006,2.502210853,0.03006,4.019733236,
0.03008,2.867641147,0.03008,4.019733236,
0.0301,2.136780559,0.0301,4.750593824,
0.03012,0.6750593824,0.03012,4.38516353,
0.03014,3.233071442,0.03014,4.38516353,
0.03016,1.040489677,0.03016,4.750593824,
0.03018,2.867641147,0.03018,4.019733236,
0.0302,2.136780559,0.0302,4.38516353,
0.03022,3.233071442,0.03022,4.750593824,
0.03024,2.502210853,0.03024,4.38516353,
0.03026,2.502210853,0.03026,4.38516353,
0.03028,2.867641147,0.03028,4.750593824,
0.0303,1.771350265,0.0303,4.38516353,
0.03032,2.136780559,0.03032,4.38516353,
0.03034,2.136780559,0.03034,4.750593824,
0.03036,2.136780559,0.03036,4.019733236,
0.03038,0.3096290883,0.03038,4.019733236,
0.0304,-0.05580120592,0.0304,4.38516353,
0.03042,-1.882952677,0.03042,4.019733236,
0.03044,-0.7866617943,0.03044,4.019733236,
0.03046,-1.517522383,0.03046,4.750593824,
0.03048,-1.152092088,0.03048,4.38516353,
0.0305,-1.882952677,0.0305,4.750593824,
0.03052,-1.152092088,0.03052,4.38516353,
0.03054,-1.882952677,0.03054,4.38516353,
0.03056,-2.613813265,0.03056,4.750593824,
0.03058,-4.80639503,0.03058,4.38516353,
0.0306,-2.613813265,0.0306,4.019733236,
0.03062,-4.075534442,0.03062,4.750593824,
0.03064,-1.152092088,0.03064,4.38516353,
0.03066,-3.344673853,0.03066,4.38516353,
0.03068,-3.344673853,0.03068,4.750593824,
0.0307,-3.344673853,0.0307,4.38516353,
0.03072,-4.440964736,0.03072,4.38516353,
0.03074,-2.248382971,0.03074,4.750593824,
0.03076,-2.979243559,0.03076,4.750593824,
0.03078,-3.710104148,0.03078,4.38516353,
0.0308,-1.882952677,0.0308,4.750593824,
0.03082,-2.979243559,0.03082,4.38516353,
0.03084,0.3096290883,0.03084,4.019733236,
0.03086,-0.05580120592,0.03086,4.750593824,
0.03088,0.3096290883,0.03088,4.750593824,
0.0309,1.040489677,0.0309,4.38516353,
0.03092,2.867641147,0.03092,4.019733236,
0.03094,1.405919971,0.03094,4.750593824,
0.03096,2.867641147,0.03096,4.38516353,
0.03098,2.502210853,0.03098,4.38516353,
0.031,2.867641147,0.031,4.38516353,
0.03102,3.96393203,0.03102,4.38516353,
0.03104,4.694792618,0.03104,4.38516353,
0.03106,3.233071442,0.03106,4.750593824,
0.03108,3.598501736,0.03108,4.38516353,
0.0311,3.598501736,0.0311,4.750593824,
0.03112,3.598501736,0.03112,4.750593824,
0.03114,2.867641147,0.03114,4.38516353,
0.03116,3.96393203,0.03116,4.019733236,
0.03118,2.867641147,0.03118,4.38516353,
0.0312,2.502210853,0.0312,4.38516353,
0.03122,1.771350265,0.03122,4.750593824,
0.03124,4.694792618,0.03124,4.750593824,
0.03126,2.136780559,0.03126,4.38516353,
0.03128,1.405919971,0.03128,4.38516353,
0.0313,-1.152092088,0.0313,4.750593824,
0.03132,0.6750593824,0.03132,4.38516353,
0.03134,1.771350265,0.03134,4.750593824,
0.03136,-0.7866617943,0.03136,4.019733236,
0.03138,-0.4212315001,0.03138,4.38516353,
0.0314,-1.152092088,0.0314,4.750593824,
0.03142,-0.7866617943,0.03142,4.38516353,
0.03144,-2.248382971,0.03144,4.38516353,
0.03146,-1.152092088,0.03146,4.750593824,
0.03148,-1.517522383,0.03148,4.38516353,
0.0315,-2.248382971,0.0315,4.750593824,
0.03152,-3.344673853,0.03152,4.38516353,
0.03154,-3.710104148,0.03154,4.38516353,
0.03156,-3.344673853,0.03156,2.923442353,
0.03158,-4.80639503,0.03158,4.38516353,
0.0316,-3.710104148,0.0316,4.750593824,
0.03162,-3.710104148,0.03162,4.019733236,
0.03164,-2.613813265,0.03164,4.750593824,
0.03166,-2.248382971,0.03166,4.019733236,
0.03168,-1.882952677,0.03168,4.38516353,
0.0317,-2.248382971,0.0317,4.750593824,
0.03172,-2.248382971,0.03172,4.750593824,
0.03174,0.3096290883,0.03174,4.019733236,
0.03176,-1.517522383,0.03176,4.38516353,
0.03178,-0.4212315001,0.03178,4.750593824,
0.0318,-0.05580120592,0.0318,4.38516353,
0.03182,-0.7866617943,0.03182,4.019733236,
0.03184,1.405919971,0.03184,4.750593824,
0.03186,0.6750593824,0.03186,4.750593824,
0.03188,1.405919971,0.03188,4.019733236,
0.0319,3.233071442,0.0319,5.116024118,
0.03192,3.233071442,0.03192,4.019733236,
0.03194,2.867641147,0.03194,4.38516353,
0.03196,3.96393203,0.03196,4.750593824,
0.03198,5.060222912,0.03198,4.38516353,
0.032,2.867641147,0.032,4.019733236,
0.03202,3.233071442,0.03202,5.116024118,
0.03204,2.136780559,0.03204,4.38516353,
0.03206,2.136780559,0.03206,4.38516353,
0.03208,3.233071442,0.03208,4.750593824,
0.0321,2.867641147,0.0321,4.38516353,
0.03212,3.233071442,0.03212,3.654302942,
0.03214,1.771350265,0.03214,4.750593824,
0.03216,2.136780559,0.03216,4.38516353,
0.03218,1.771350265,0.03218,4.019733236,
0.0322,2.136780559,0.0322,4.750593824,
0.03222,2.136780559,0.03222,5.116024118,
0.03224,1.040489677,0.03224,4.019733236,
0.03226,0.3096290883,0.03226,4.750593824,
0.03228,-0.4212315001,0.03228,4.019733236,
0.0323,-2.979243559,0.0323,4.019733236,
0.03232,-2.248382971,0.03232,3.288872648,
0.03234,-1.517522383,0.03234,4.38516353,
0.03236,-2.248382971,0.03236,4.38516353,
0.03238,-2.613813265,0.03238,4.750593824,
0.0324,-2.979243559,0.0324,4.750593824,
0.03242,-4.075534442,0.03242,5.846884707,
0.03244,-2.613813265,0.03244,5.116024118,
0.03246,-4.075534442,0.03246,4.38516353,
0.03248,-3.710104148,0.03248,4.019733236,
0.0325,-2.979243559,0.0325,5.116024118,
0.03252,-1.882952677,0.03252,2.558012059,
0.03254,-4.440964736,0.03254,4.019733236,
0.03256,-4.075534442,0.03256,4.38516353,
0.03258,-4.075534442,0.03258,4.38516353,
0.0326,1.405919971,0.0326,4.38516353,
0.03262,-1.882952677,0.03262,5.846884707,
0.03264,-1.882952677,0.03264,4.019733236,
0.03266,-1.882952677,0.03266,4.019733236,
0.03268,0.6750593824,0.03268,5.116024118,
0.0327,-0.7866617943,0.0327,4.38516353,
0.03272,-2.613813265,0.03272,3.654302942,
0.03274,-0.4212315001,0.03274,4.019733236,
0.03276,-0.05580120592,0.03276,4.38516353,
0.03278,0.3096290883,0.03278,4.019733236,
0.0328,0.3096290883,0.0328,5.116024118,
0.03282,0.6750593824,0.03282,4.019733236,
0.03284,2.867641147,0.03284,4.019733236,
0.03286,3.233071442,0.03286,4.750593824,
0.03288,1.771350265,0.03288,4.38516353,
0.0329,2.867641147,0.0329,4.019733236,
0.03292,2.867641147,0.03292,5.481454413,
0.03294,3.233071442,0.03294,4.750593824,
0.03296,4.694792618,0.03296,4.019733236,
0.03298,3.598501736,0.03298,4.750593824,
0.033,3.598501736,0.033,4.750593824,
0.03302,2.867641147,0.03302,2.923442353,
0.03304,3.598501736,0.03304,4.750593824,
0.03306,2.136780559,0.03306,4.38516353,
0.03308,2.867641147,0.03308,4.019733236,
0.0331,2.136780559,0.0331,4.38516353,
0.03312,2.136780559,0.03312,5.116024118,
0.03314,0.3096290883,0.03314,4.38516353,
0.03316,1.405919971,0.03316,4.750593824,
0.03318,-0.05580120592,0.03318,4.38516353,
0.0332,0.3096290883,0.0332,4.38516353,
0.03322,-0.7866617943,0.03322,5.116024118,
0.03324,-2.613813265,0.03324,4.38516353,
0.03326,-1.517522383,0.03326,4.38516353,
0.03328,-1.882952677,0.03328,4.750593824,
0.0333,-2.613813265,0.0333,4.019733236,
0.03332,-1.517522383,0.03332,4.38516353,
0.03334,-1.517522383,0.03334,5.116024118,
0.03336,-3.344673853,0.03336,4.019733236,
0.03338,-1.882952677,0.03338,5.116024118,
0.0334,-3.710104148,0.0334,4.38516353,
0.03342,-3.710104148,0.03342,4.750593824,
0.03344,-4.075534442,0.03344,4.38516353,
0.03346,-2.613813265,0.03346,4.750593824,
0.03348,-4.075534442,0.03348,4.38516353,
0.0335,-2.613813265,0.0335,4.38516353,
0.03352,-5.171825324,0.03352,4.750593824,
0.03354,-2.979243559,0.03354,4.38516353,
0.03356,-2.613813265,0.03356,4.38516353,
0.03358,-1.882952677,0.03358,4.750593824,
0.0336,-1.882952677,0.0336,4.38516353,
0.03362,-0.7866617943,0.03362,4.750593824,
0.03364,-0.4212315001,0.03364,4.750593824,
0.03366,-1.517522383,0.03366,4.750593824,
0.03368,0.3096290883,0.03368,4.38516353,
0.0337,1.040489677,0.0337,4.750593824,
0.03372,1.040489677,0.03372,4.019733236,
0.03374,1.405919971,0.03374,4.750593824,
0.03376,2.502210853,0.03376,4.38516353,
0.03378,1.771350265,0.03378,4.750593824,
0.0338,3.233071442,0.0338,4.38516353,
0.03382,2.136780559,0.03382,5.116024118,
0.03384,3.233071442,0.03384,4.38516353,
0.03386,4.329362324,0.03386,4.019733236,
0.03388,4.694792618,0.03388,4.750593824,
0.0339,3.598501736,0.0339,4.750593824,
0.03392,4.329362324,0.03392,4.019733236,
0.03394,3.96393203,0.03394,4.750593824,
0.03396,3.233071442,0.03396,4.750593824,
0.03398,3.96393203,0.03398,4.38516353,
0.034,2.867641147,0.034,4.750593824,
0.03402,3.233071442,0.03402,4.38516353,
0.03404,2.502210853,0.03404,4.019733236,
0.03406,2.136780559,0.03406,4.750593824,
0.03408,0.6750593824,0.03408,5.116024118,
0.0341,-0.7866617943,0.0341,4.38516353,
0.03412,-0.05580120592,0.03412,4.38516353,
0.03414,-0.4212315001,0.03414,4.38516353,
0.03416,0.6750593824,0.03416,4.38516353,
0.03418,-1.152092088,0.03418,4.750593824,
0.0342,-1.882952677,0.0342,4.019733236,
0.03422,0.3096290883,0.03422,4.38516353,
0.03424,-1.517522383,0.03424,4.38516353,
0.03426,-2.248382971,0.03426,4.38516353,
0.03428,-2.613813265,0.03428,4.019733236,
0.0343,-3.344673853,0.0343,4.38516353,
0.03432,-5.537255618,0.03432,4.019733236,
0.03434,-2.248382971,0.03434,4.38516353,
0.03436,-4.075534442,0.03436,4.750593824,
0.03438,-2.979243559,0.03438,4.750593824,
0.0344,-2.613813265,0.0344,4.38516353,
0.03442,-3.344673853,0.03442,4.750593824,
0.03444,-3.710104148,0.03444,5.116024118,
0.03446,-2.248382971,0.03446,4.750593824,
0.03448,-2.979243559,0.03448,4.750593824,
0.0345,-2.979243559,0.0345,4.38516353,
0.03452,-1.517522383,0.03452,4.019733236,
0.03454,-1.882952677,0.03454,4.019733236,
0.03456,-1.517522383,0.03456,4.750593824,
0.03458,-0.4212315001,0.03458,4.019733236,
0.0346,-1.152092088,0.0346,4.38516353,
0.03462,0.3096290883,0.03462,4.38516353,
0.03464,1.040489677,0.03464,5.116024118,
0.03466,1.040489677,0.03466,5.116024118,
0.03468,1.405919971,0.03468,4.38516353,
0.0347,2.502210853,0.0347,4.019733236,
0.03472,3.233071442,0.03472,4.750593824,
0.03474,2.502210853,0.03474,3.654302942,
0.03476,3.233071442,0.03476,4.38516353,
0.03478,3.233071442,0.03478,4.750593824,
0.0348,3.233071442,0.0348,4.750593824,
0.03482,3.96393203,0.03482,4.019733236,
0.03484,3.233071442,0.03484,4.38516353,
0.03486,3.233071442,0.03486,4.019733236,
0.03488,3.598501736,0.03488,4.019733236,
0.0349,4.329362324,0.0349,5.116024118,
0.03492,2.502210853,0.03492,4.38516353,
0.03494,0.6750593824,0.03494,4.750593824,
0.03496,2.136780559,0.03496,4.750593824,
0.03498,2.502210853,0.03498,4.38516353,
0.035,2.136780559,0.035,4.38516353,
0.03502,1.405919971,0.03502,4.38516353,
0.03504,-0.05580120592,0.03504,3.288872648,
0.03506,-0.05580120592,0.03506,4.38516353,
0.03508,-1.882952677,0.03508,4.750593824,
0.0351,-1.152092088,0.0351,4.750593824,
0.03512,-1.152092088,0.03512,4.38516353,
0.03514,-1.152092088,0.03514,5.481454413,
0.03516,-2.248382971,0.03516,4.750593824,
0.03518,-1.882952677,0.03518,4.38516353,
0.0352,-2.979243559,0.0352,5.116024118,
0.03522,-2.979243559,0.03522,4.38516353,
0.03524,-2.248382971,0.03524,4.38516353,
0.03526,-3.710104148,0.03526,4.38516353,
0.03528,-3.344673853,0.03528,4.019733236,
0.0353,-4.440964736,0.0353,4.38516353,
0.03532,-3.344673853,0.03532,4.019733236,
0.03534,-3.344673853,0.03534,4.019733236,
0.03536,-4.440964736,0.03536,4.019733236,
0.03538,-3.344673853,0.03538,4.019733236,
0.0354,-1.882952677,0.0354,4.019733236,
0.03542,-2.248382971,0.03542,4.019733236,
0.03544,-3.710104148,0.03544,4.38516353,
0.03546,0.6750593824,0.03546,4.38516353,
0.03548,-1.517522383,0.03548,4.019733236,
0.0355,-2.248382971,0.0355,4.019733236,
0.03552,-0.05580120592,0.03552,4.38516353,
0.03554,0.6750593824,0.03554,4.019733236,
0.03556,1.771350265,0.03556,4.019733236,
0.03558,1.771350265,0.03558,4.38516353,
0.0356,1.771350265,0.0356,4.38516353,
0.03562,2.136780559,0.03562,3.654302942,
0.03564,1.771350265,0.03564,4.38516353,
0.03566,0.6750593824,0.03566,4.38516353,
0.03568,2.502210853,0.03568,4.019733236,
0.0357,3.96393203,0.0357,4.019733236,
0.03572,3.96393203,0.03572,4.019733236,
0.03574,2.867641147,0.03574,4.38516353,
0.03576,5.791083501,0.03576,4.38516353,
0.03578,4.329362324,0.03578,4.38516353,
0.0358,3.96393203,0.0358,4.019733236,
0.03582,3.598501736,0.03582,4.38516353,
0.03584,3.96393203,0.03584,4.019733236,
0.03586,0.3096290883,0.03586,4.019733236,
0.03588,2.136780559,0.03588,4.38516353,
0.0359,2.502210853,0.0359,4.019733236,
0.03592,1.040489677,0.03592,4.019733236,
0.03594,2.867641147,0.03594,4.019733236,
0.03596,1.405919971,0.03596,4.019733236,
0.03598,0.3096290883,0.03598,3.654302942,
0.036,0.3096290883,0.036,4.019733236,
0.03602,-0.4212315001,0.03602,4.019733236,
0.03604,-1.882952677,0.03604,3.654302942,
0.03606,0.3096290883,0.03606,4.38516353,
0.03608,-1.882952677,0.03608,4.38516353,
0.0361,-1.517522383,0.0361,4.019733236,
0.03612,-2.613813265,0.03612,4.38516353,
0.03614,-1.152092088,0.03614,4.019733236,
0.03616,-4.075534442,0.03616,4.019733236,
0.03618,-2.613813265,0.03618,4.38516353,
0.0362,-2.979243559,0.0362,4.38516353,
0.03622,-3.344673853,0.03622,4.019733236,
0.03624,-2.613813265,0.03624,4.019733236,
0.03626,-6.633546501,0.03626,4.38516353,
0.03628,-2.979243559,0.03628,4.019733236,
0.0363,-2.613813265,0.0363,4.38516353,
0.03632,-2.979243559,0.03632,3.654302942,
0.03634,-3.344673853,0.03634,4.019733236,
0.03636,-2.248382971,0.03636,4.38516353,
0.03638,-0.05580120592,0.03638,4.019733236,
0.0364,-1.517522383,0.0364,4.019733236,
0.03642,-0.7866617943,0.03642,4.019733236,
0.03644,-0.7866617943,0.03644,4.019733236,
0.03646,1.040489677,0.03646,4.019733236,
0.03648,0.3096290883,0.03648,4.750593824,
0.0365,1.040489677,0.0365,4.38516353,
0.03652,1.405919971,0.03652,5.116024118,
0.03654,2.502210853,0.03654,4.750593824,
0.03656,3.233071442,0.03656,4.750593824,
0.03658,2.136780559,0.03658,4.38516353,
0.0366,1.405919971,0.0366,4.38516353,
0.03662,-0.05580120592,0.03662,4.750593824,
0.03664,3.598501736,0.03664,4.38516353,
0.03666,2.136780559,0.03666,4.750593824,
0.03668,4.329362324,0.03668,4.38516353,
0.0367,3.598501736,0.0367,4.019733236,
0.03672,4.694792618,0.03672,4.38516353,
0.03674,2.502210853,0.03674,4.38516353,
0.03676,2.867641147,0.03676,4.38516353,
0.03678,3.233071442,0.03678,4.750593824,
0.0368,2.136780559,0.0368,4.019733236,
0.03682,2.867641147,0.03682,4.750593824,
0.03684,1.771350265,0.03684,4.38516353,
0.03686,1.405919971,0.03686,4.019733236,
0.03688,1.405919971,0.03688,4.750593824,
0.0369,-0.4212315001,0.0369,4.38516353,
0.03692,-0.4212315001,0.03692,4.38516353,
0.03694,0.6750593824,0.03694,4.750593824,
0.03696,-0.4212315001,0.03696,4.019733236,
0.03698,-1.882952677,0.03698,4.38516353,
0.037,-2.613813265,0.037,4.750593824,
0.03702,-2.248382971,0.03702,4.38516353,
0.03704,-2.979243559,0.03704,4.019733236,
0.03706,-2.248382971,0.03706,4.38516353,
0.03708,-1.882952677,0.03708,4.38516353,
0.0371,-3.344673853,0.0371,4.019733236,
0.03712,-4.440964736,0.03712,3.654302942,
0.03714,-4.440964736,0.03714,4.019733236,
0.03716,-4.075534442,0.03716,4.38516353,
0.03718,-2.979243559,0.03718,4.38516353,
0.0372,-3.344673853,0.0372,4.019733236,
0.03722,-3.710104148,0.03722,4.750593824,
0.03724,-2.613813265,0.03724,4.019733236,
0.03726,-3.344673853,0.03726,4.019733236,
0.03728,-2.613813265,0.03728,4.750593824,
0.0373,-2.248382971,0.0373,4.38516353,
0.03732,-2.248382971,0.03732,4.019733236,
0.03734,-1.152092088,0.03734,4.38516353,
0.03736,-2.248382971,0.03736,4.019733236,
0.03738,-1.517522383,0.03738,4.38516353,
0.0374,0.3096290883,0.0374,4.750593824,
0.03742,1.771350265,0.03742,4.019733236,
0.03744,1.040489677,0.03744,4.38516353,
0.03746,2.502210853,0.03746,5.481454413,
0.03748,2.136780559,0.03748,4.38516353,
0.0375,2.136780559,0.0375,4.019733236,
0.03752,2.136780559,0.03752,4.750593824,
0.03754,3.233071442,0.03754,4.38516353,
0.03756,3.233071442,0.03756,3.654302942,
0.03758,3.598501736,0.03758,4.750593824,
0.0376,3.598501736,0.0376,4.019733236,
0.03762,1.040489677,0.03762,4.019733236,
0.03764,3.96393203,0.03764,4.750593824,
0.03766,1.771350265,0.03766,4.38516353,
0.03768,2.867641147,0.03768,4.019733236,
0.0377,3.96393203,0.0377,4.750593824,
0.03772,4.694792618,0.03772,4.019733236,
0.03774,1.771350265,0.03774,4.019733236,
0.03776,2.136780559,0.03776,4.38516353,
0.03778,1.771350265,0.03778,4.38516353,
0.0378,1.771350265,0.0378,4.019733236,
0.03782,-0.05580120592,0.03782,4.38516353,
0.03784,-0.05580120592,0.03784,3.654302942,
0.03786,1.405919971,0.03786,3.654302942,
0.03788,-0.4212315001,0.03788,4.750593824,
0.0379,-0.4212315001,0.0379,4.750593824,
0.03792,-1.882952677,0.03792,4.019733236,
0.03794,-1.882952677,0.03794,4.750593824,
0.03796,-1.882952677,0.03796,5.116024118,
0.03798,-2.248382971,0.03798,4.38516353,
0.038,-0.4212315001,0.038,4.750593824,
0.03802,-3.710104148,0.03802,4.019733236,
0.03804,-4.440964736,0.03804,4.019733236,
0.03806,-3.344673853,0.03806,3.288872648,
0.03808,-3.344673853,0.03808,4.38516353,
0.0381,-4.075534442,0.0381,4.019733236,
0.03812,-2.248382971,0.03812,4.38516353,
0.03814,-3.710104148,0.03814,4.38516353,
0.03816,-4.075534442,0.03816,3.654302942,
0.03818,-2.613813265,0.03818,4.38516353,
0.0382,-3.710104148,0.0382,4.38516353,
0.03822,-2.248382971,0.03822,4.38516353,
0.03824,-2.248382971,0.03824,4.38516353,
0.03826,-2.613813265,0.03826,4.750593824,
0.03828,-1.517522383,0.03828,4.019733236,
0.0383,-1.517522383,0.0383,5.116024118,
0.03832,-1.152092088,0.03832,4.38516353,
0.03834,-0.05580120592,0.03834,4.019733236,
0.03836,1.405919971,0.03836,6.212315001,
0.03838,1.771350265,0.03838,4.38516353,
0.0384,1.771350265,0.0384,4.019733236,
0.03842,1.405919971,0.03842,4.750593824,
0.03844,2.136780559,0.03844,4.38516353,
0.03846,3.96393203,0.03846,2.192581765,
0.03848,3.233071442,0.03848,4.750593824,
0.0385,2.867641147,0.0385,4.019733236,
0.03852,3.96393203,0.03852,4.019733236,
0.03854,3.598501736,0.03854,4.750593824,
0.03856,3.233071442,0.03856,5.116024118,
0.03858,3.233071442,0.03858,4.019733236,
0.0386,2.502210853,0.0386,5.116024118,
0.03862,2.502210853,0.03862,4.019733236,
0.03864,3.96393203,0.03864,4.019733236,
0.03866,2.502210853,0.03866,3.288872648,
0.03868,2.136780559,0.03868,4.38516353,
0.0387,1.040489677,0.0387,4.019733236,
0.03872,1.040489677,0.03872,4.750593824,
0.03874,0.6750593824,0.03874,4.38516353,
0.03876,0.6750593824,0.03876,4.750593824,
0.03878,1.405919971,0.03878,4.750593824,
0.0388,-0.7866617943,0.0388,4.38516353,
0.03882,-0.4212315001,0.03882,3.654302942,
0.03884,-0.7866617943,0.03884,5.116024118,
0.03886,-1.152092088,0.03886,4.750593824,
0.03888,-2.613813265,0.03888,3.288872648,
0.0389,-2.979243559,0.0389,4.750593824,
0.03892,-2.979243559,0.03892,4.019733236,
0.03894,-2.979243559,0.03894,4.019733236,
0.03896,-2.979243559,0.03896,4.38516353,
0.03898,-3.710104148,0.03898,4.019733236,
0.039,-3.710104148,0.039,4.019733236,
0.03902,-0.7866617943,0.03902,4.750593824,
0.03904,-4.440964736,0.03904,5.116024118,
0.03906,-3.710104148,0.03906,4.750593824,
0.03908,-3.344673853,0.03908,4.750593824,
0.0391,-2.979243559,0.0391,4.750593824,
0.03912,-2.613813265,0.03912,4.750593824,
0.03914,-4.075534442,0.03914,5.481454413,
0.03916,-2.248382971,0.03916,4.38516353,
0.03918,-2.248382971,0.03918,4.38516353,
0.0392,-1.882952677,0.0392,4.750593824,
0.03922,-1.517522383,0.03922,4.750593824,
0.03924,-0.05580120592,0.03924,4.38516353,
0.03926,2.502210853,0.03926,4.019733236,
0.03928,-0.05580120592,0.03928,4.750593824,
0.0393,1.040489677,0.0393,4.38516353,
0.03932,1.040489677,0.03932,4.750593824,
0.03934,0.3096290883,0.03934,4.38516353,
0.03936,2.136780559,0.03936,4.38516353,
0.03938,3.233071442,0.03938,4.38516353,
0.0394,2.502210853,0.0394,4.750593824,
0.03942,3.233071442,0.03942,4.019733236,
0.03944,3.598501736,0.03944,4.750593824,
0.03946,2.502210853,0.03946,4.019733236,
0.03948,2.867641147,0.03948,4.38516353,
0.0395,4.694792618,0.0395,4.38516353,
0.03952,4.329362324,0.03952,4.38516353,
0.03954,4.694792618,0.03954,4.38516353,
0.03956,3.598501736,0.03956,5.116024118,
0.03958,3.233071442,0.03958,4.750593824,
0.0396,3.233071442,0.0396,4.019733236,
0.03962,3.233071442,0.03962,4.750593824,
0.03964,1.405919971,0.03964,4.38516353,
0.03966,1.771350265,0.03966,4.38516353,
0.03968,2.136780559,0.03968,4.750593824,
0.0397,0.6750593824,0.0397,5.116024118,
0.03972,0.6750593824,0.03972,4.38516353,
0.03974,-0.4212315001,0.03974,4.750593824,
0.03976,-2.248382971,0.03976,5.116024118,
0.03978,-1.882952677,0.03978,4.38516353,
0.0398,-1.517522383,0.0398,4.750593824,
0.03982,-3.710104148,0.03982,4.38516353,
0.03984,-2.979243559,0.03984,4.019733236,
0.03986,-1.882952677,0.03986,5.116024118,
0.03988,-2.979243559,0.03988,4.38516353,
0.0399,-2.979243559,0.0399,4.38516353,
0.03992,-4.440964736,0.03992,4.38516353,
0.03994,-3.344673853,0.03994,5.116024118,
0.03996,-4.075534442,0.03996,4.38516353,
0.03998,-4.075534442,0.03998,4.750593824,
0.04,-3.344673853,0.04,4.750593824,
0.04002,-2.979243559,0.04002,4.019733236,
0.04004,-2.979243559,0.04004,4.38516353,
0.04006,-2.979243559,0.04006,4.38516353,
0.04008,-1.882952677,0.04008,4.38516353,
0.0401,-0.7866617943,0.0401,4.750593824,
0.04012,-4.440964736,0.04012,4.750593824,
0.04014,-1.152092088,0.04014,4.750593824,
0.04016,-0.4212315001,0.04016,4.750593824,
0.04018,-1.152092088,0.04018,4.750593824,
0.0402,0.3096290883,0.0402,4.38516353,
0.04022,1.405919971,0.04022,4.38516353,
0.04024,-0.05580120592,0.04024,4.750593824,
0.04026,1.771350265,0.04026,4.019733236,
0.04028,1.771350265,0.04028,4.750593824,
0.0403,-0.7866617943,0.0403,4.750593824,
0.04032,3.233071442,0.04032,4.38516353,
0.04034,2.867641147,0.04034,4.750593824,
0.04036,3.598501736,0.04036,5.116024118,
0.04038,2.867641147,0.04038,4.019733236,
0.0404,3.598501736,0.0404,5.116024118,
0.04042,3.233071442,0.04042,4.019733236,
0.04044,3.96393203,0.04044,4.38516353,
0.04046,4.329362324,0.04046,4.750593824,
0.04048,3.96393203,0.04048,4.38516353,
0.0405,3.598501736,0.0405,4.750593824,
0.04052,3.233071442,0.04052,4.750593824,
0.04054,0.3096290883,0.04054,4.750593824,
0.04056,2.136780559,0.04056,4.019733236,
0.04058,2.136780559,0.04058,5.116024118,
0.0406,1.771350265,0.0406,4.750593824,
0.04062,0.3096290883,0.04062,4.38516353,
0.04064,1.040489677,0.04064,4.750593824,
0.04066,-0.4212315001,0.04066,4.750593824,
0.04068,0.6750593824,0.04068,4.38516353,
0.0407,-0.4212315001,0.0407,4.750593824,
0.04072,-2.613813265,0.04072,4.38516353,
0.04074,-1.882952677,0.04074,4.019733236,
0.04076,-1.517522383,0.04076,4.750593824,
0.04078,-3.344673853,0.04078,4.750593824,
0.0408,-1.882952677,0.0408,4.38516353,
0.04082,-2.613813265,0.04082,4.38516353,
0.04084,-3.710104148,0.04084,4.38516353,
0.04086,-2.613813265,0.04086,4.38516353,
0.04088,-2.979243559,0.04088,5.116024118,
0.0409,-3.710104148,0.0409,5.116024118,
0.04092,-4.440964736,0.04092,4.38516353,
0.04094,-3.710104148,0.04094,4.019733236,
0.04096,-2.613813265,0.04096,4.750593824,
0.04098,-2.979243559,0.04098,2.923442353,
0.041,-2.613813265,0.041,3.654302942,
0.04102,-1.882952677,0.04102,4.750593824,
0.04104,-0.7866617943,0.04104,4.38516353,
0.04106,-2.979243559,0.04106,4.019733236,
0.04108,-1.152092088,0.04108,5.116024118,
0.0411,-0.7866617943,0.0411,4.38516353,
0.04112,-0.4212315001,0.04112,4.019733236,
0.04114,-1.152092088,0.04114,4.38516353,
0.04116,0.3096290883,0.04116,4.38516353,
0.04118,1.405919971,0.04118,2.558012059,
0.0412,2.136780559,0.0412,4.38516353,
0.04122,2.867641147,0.04122,4.019733236,
0.04124,3.598501736,0.04124,3.654302942,
0.04126,4.694792618,0.04126,4.38516353,
0.04128,3.233071442,0.04128,5.116024118,
0.0413,3.96393203,0.0413,4.019733236,
0.04132,4.329362324,0.04132,4.38516353,
0.04134,3.598501736,0.04134,4.019733236,
0.04136,2.867641147,0.04136,4.019733236,
0.04138,4.694792618,0.04138,3.288872648,
0.0414,2.502210853,0.0414,4.38516353,
0.04142,3.233071442,0.04142,4.019733236,
0.04144,3.233071442,0.04144,4.38516353,
0.04146,3.598501736,0.04146,4.38516353,
0.04148,3.233071442,0.04148,4.38516353,
0.0415,5.425653207,0.0415,4.38516353,
0.04152,1.405919971,0.04152,4.38516353,
0.04154,1.771350265,0.04154,3.654302942,
0.04156,1.405919971,0.04156,4.38516353,
0.04158,0.3096290883,0.04158,4.019733236,
0.0416,-0.7866617943,0.0416,4.750593824,
0.04162,-1.152092088,0.04162,4.750593824,
0.04164,-0.05580120592,0.04164,4.750593824,
0.04166,-0.7866617943,0.04166,4.38516353,
0.04168,-1.882952677,0.04168,5.481454413,
0.0417,-1.152092088,0.0417,4.38516353,
0.04172,-2.979243559,0.04172,4.38516353,
0.04174,-1.882952677,0.04174,4.38516353,
0.04176,-2.979243559,0.04176,4.019733236,
0.04178,-3.344673853,0.04178,4.019733236,
0.0418,-5.537255618,0.0418,4.38516353,
0.04182,-3.344673853,0.04182,4.750593824,
0.04184,-4.075534442,0.04184,4.019733236,
0.04186,-1.517522383,0.04186,4.750593824,
0.04188,-4.075534442,0.04188,4.38516353,
0.0419,-2.248382971,0.0419,4.019733236,
0.04192,-2.248382971,0.04192,4.38516353,
0.04194,-0.7866617943,0.04194,4.38516353,
0.04196,-2.979243559,0.04196,4.750593824,
0.04198,-2.248382971,0.04198,4.019733236,
0.042,-1.517522383,0.042,4.019733236,
0.04202,-0.4212315001,0.04202,4.750593824,
0.04204,-1.152092088,0.04204,4.019733236,
0.04206,-0.7866617943,0.04206,4.38516353,
0.04208,-0.4212315001,0.04208,4.38516353,
0.0421,-0.05580120592,0.0421,3.654302942,
0.04212,-0.05580120592,0.04212,4.38516353,
0.04214,2.502210853,0.04214,4.750593824,
0.04216,1.405919971,0.04216,4.019733236,
0.04218,2.867641147,0.04218,4.38516353,
0.0422,3.598501736,0.0422,4.38516353,
0.04222,2.136780559,0.04222,4.38516353,
0.04224,3.96393203,0.04224,4.750593824,
0.04226,3.598501736,0.04226,4.750593824,
0.04228,3.233071442,0.04228,4.38516353,
0.0423,2.502210853,0.0423,3.654302942,
0.04232,3.233071442,0.04232,4.750593824,
0.04234,3.598501736,0.04234,4.019733236,
0.04236,2.136780559,0.04236,4.38516353,
0.04238,3.233071442,0.04238,4.750593824,
0.0424,0.6750593824,0.0424,4.38516353,
0.04242,1.405919971,0.04242,4.019733236,
0.04244,4.694792618,0.04244,4.38516353,
0.04246,0.3096290883,0.04246,4.019733236,
0.04248,1.771350265,0.04248,4.019733236,
0.0425,-1.152092088,0.0425,4.750593824,
0.04252,-1.517522383,0.04252,4.38516353,
0.04254,-0.7866617943,0.04254,4.019733236,
0.04256,-1.517522383,0.04256,4.750593824,
0.04258,-0.7866617943,0.04258,4.38516353,
0.0426,-1.152092088,0.0426,4.019733236,
0.04262,-1.517522383,0.04262,4.750593824,
0.04264,-4.440964736,0.04264,4.019733236,
0.04266,-2.248382971,0.04266,4.019733236,
0.04268,-2.979243559,0.04268,5.116024118,
0.0427,-2.979243559,0.0427,4.38516353,
0.04272,-3.344673853,0.04272,4.019733236,
0.04274,-2.613813265,0.04274,4.750593824,
0.04276,-5.171825324,0.04276,4.019733236,
0.04278,-3.710104148,0.04278,4.019733236,
0.0428,-2.613813265,0.0428,4.750593824,
0.04282,-2.979243559,0.04282,4.38516353,
0.04284,-2.613813265,0.04284,4.750593824,
0.04286,-4.075534442,0.04286,4.019733236,
0.04288,-3.710104148,0.04288,4.019733236,
0.0429,-1.517522383,0.0429,5.116024118,
0.04292,-2.613813265,0.04292,4.019733236,
0.04294,-2.613813265,0.04294,4.750593824,
0.04296,-1.152092088,0.04296,4.750593824,
0.04298,-0.4212315001,0.04298,4.38516353,
0.043,-0.7866617943,0.043,4.019733236,
0.04302,1.040489677,0.04302,4.750593824,
0.04304,1.040489677,0.04304,4.38516353,
0.04306,1.771350265,0.04306,4.019733236,
0.04308,2.867641147,0.04308,4.750593824,
0.0431,2.502210853,0.0431,4.38516353,
0.04312,-1.517522383,0.04312,4.38516353,
0.04314,2.867641147,0.04314,5.116024118,
0.04316,2.867641147,0.04316,4.38516353,
0.04318,3.233071442,0.04318,4.019733236,
0.0432,2.502210853,0.0432,4.38516353,
0.04322,2.867641147,0.04322,4.38516353,
0.04324,1.771350265,0.04324,4.38516353,
0.04326,3.233071442,0.04326,4.750593824,
0.04328,2.867641147,0.04328,4.38516353,
0.0433,1.771350265,0.0433,2.923442353,
0.04332,3.233071442,0.04332,4.750593824,
0.04334,1.040489677,0.04334,4.38516353,
0.04336,1.405919971,0.04336,4.019733236,
0.04338,2.502210853,0.04338,4.38516353,
0.0434,2.136780559,0.0434,5.116024118,
0.04342,2.502210853,0.04342,4.019733236,
0.04344,1.040489677,0.04344,4.750593824,
0.04346,-0.05580120592,0.04346,4.38516353,
0.04348,-0.7866617943,0.04348,3.654302942,
0.0435,-0.4212315001,0.0435,4.38516353,
0.04352,-0.4212315001,0.04352,4.019733236,
0.04354,-2.979243559,0.04354,4.019733236,
0.04356,-1.882952677,0.04356,4.750593824,
0.04358,-2.613813265,0.04358,4.38516353,
0.0436,-4.440964736,0.0436,3.288872648,
0.04362,-2.248382971,0.04362,5.116024118,
0.04364,-4.075534442,0.04364,4.750593824,
0.04366,-3.344673853,0.04366,4.38516353,
0.04368,-2.248382971,0.04368,5.116024118,
0.0437,-2.248382971,0.0437,6.212315001,
0.04372,-4.075534442,0.04372,4.38516353,
0.04374,-3.710104148,0.04374,4.750593824,
0.04376,-4.440964736,0.04376,4.019733236,
0.04378,-3.710104148,0.04378,3.654302942,
0.0438,-2.248382971,0.0438,5.116024118,
0.04382,-2.613813265,0.04382,4.38516353,
0.04384,-2.248382971,0.04384,4.019733236,
0.04386,-1.517522383,0.04386,5.116024118,
0.04388,-1.152092088,0.04388,4.38516353,
0.0439,-0.4212315001,0.0439,2.192581765,
0.04392,0.6750593824,0.04392,4.38516353,
0.04394,0.3096290883,0.04394,4.38516353,
0.04396,0.3096290883,0.04396,4.019733236,
0.04398,1.405919971,0.04398,4.750593824,
0.044,0.3096290883,0.044,5.846884707,
0.04402,1.405919971,0.04402,4.38516353,
0.04404,2.867641147,0.04404,4.38516353,
0.04406,2.136780559,0.04406,4.38516353,
0.04408,2.867641147,0.04408,4.019733236,
0.0441,2.867641147,0.0441,3.654302942,
0.04412,2.867641147,0.04412,4.750593824,
0.04414,2.867641147,0.04414,4.38516353,
0.04416,3.598501736,0.04416,4.750593824,
0.04418,2.136780559,0.04418,4.750593824,
0.0442,3.233071442,0.0442,5.116024118,
0.04422,4.329362324,0.04422,5.116024118,
0.04424,2.867641147,0.04424,4.019733236,
0.04426,1.771350265,0.04426,4.38516353,
0.04428,5.060222912,0.04428,4.750593824,
0.0443,2.136780559,0.0443,5.481454413,
0.04432,-1.517522383,0.04432,4.019733236,
0.04434,1.771350265,0.04434,4.750593824,
0.04436,0.3096290883,0.04436,4.38516353,
0.04438,0.3096290883,0.04438,4.38516353,
0.0444,2.136780559,0.0444,3.654302942,
0.04442,-0.05580120592,0.04442,4.38516353,
0.04444,-2.248382971,0.04444,4.38516353,
0.04446,-2.979243559,0.04446,4.750593824,
0.04448,-1.517522383,0.04448,4.38516353,
0.0445,-2.979243559,0.0445,5.116024118,
0.04452,-2.979243559,0.04452,4.750593824,
0.04454,-3.710104148,0.04454,4.38516353,
0.04456,-2.613813265,0.04456,4.38516353,
0.04458,-4.075534442,0.04458,4.750593824,
0.0446,-3.344673853,0.0446,4.019733236,
0.04462,-4.075534442,0.04462,4.750593824,
0.04464,-2.979243559,0.04464,4.750593824,
0.04466,-5.171825324,0.04466,4.38516353,
0.04468,-3.710104148,0.04468,4.38516353,
0.0447,-2.979243559,0.0447,4.750593824,
0.04472,-3.344673853,0.04472,4.750593824,
0.04474,-2.613813265,0.04474,4.38516353,
0.04476,-1.517522383,0.04476,4.750593824,
0.04478,-1.517522383,0.04478,4.38516353,
0.0448,-1.882952677,0.0448,4.38516353,
0.04482,-1.152092088,0.04482,4.750593824,
0.04484,-0.7866617943,0.04484,4.750593824,
0.04486,2.136780559,0.04486,4.750593824,
0.04488,1.405919971,0.04488,4.750593824,
0.0449,0.3096290883,0.0449,4.38516353,
0.04492,2.136780559,0.04492,4.38516353,
0.04494,1.771350265,0.04494,4.750593824,
0.04496,2.136780559,0.04496,4.38516353,
0.04498,3.233071442,0.04498,4.019733236,
0.045,3.233071442,0.045,4.38516353,
0.04502,2.502210853,0.04502,4.38516353,
0.04504,3.96393203,0.04504,4.38516353,
0.04506,3.96393203,0.04506,4.38516353,
0.04508,2.867641147,0.04508,4.38516353,
0.0451,4.694792618,0.0451,4.38516353,
0.04512,3.598501736,0.04512,4.019733236,
0.04514,2.867641147,0.04514,4.38516353,
0.04516,3.233071442,0.04516,4.38516353,
0.04518,3.96393203,0.04518,4.750593824,
0.0452,1.040489677,0.0452,4.750593824,
0.04522,2.502210853,0.04522,4.38516353,
0.04524,2.502210853,0.04524,4.38516353,
0.04526,0.3096290883,0.04526,4.019733236,
0.04528,1.405919971,0.04528,4.38516353,
0.0453,1.040489677,0.0453,4.750593824,
0.04532,-0.05580120592,0.04532,4.019733236,
0.04534,-0.05580120592,0.04534,4.750593824,
0.04536,-2.248382971,0.04536,4.750593824,
0.04538,-0.7866617943,0.04538,4.750593824,
0.0454,-0.7866617943,0.0454,4.38516353,
0.04542,-2.248382971,0.04542,4.38516353,
0.04544,-2.613813265,0.04544,4.38516353,
0.04546,-2.613813265,0.04546,4.38516353,
0.04548,-2.248382971,0.04548,4.750593824,
0.0455,-2.613813265,0.0455,4.750593824,
0.04552,-3.710104148,0.04552,4.019733236,
0.04554,-3.344673853,0.04554,4.38516353,
0.04556,-2.979243559,0.04556,4.750593824,
0.04558,-2.613813265,0.04558,4.019733236,
0.0456,-3.344673853,0.0456,4.38516353,
0.04562,-3.710104148,0.04562,4.750593824,
0.04564,-2.613813265,0.04564,4.38516353,
0.04566,-2.613813265,0.04566,5.116024118,
0.04568,-4.440964736,0.04568,4.38516353,
0.0457,-2.613813265,0.0457,4.38516353,
0.04572,-1.882952677,0.04572,4.38516353,
0.04574,-1.152092088,0.04574,4.38516353,
0.04576,-0.4212315001,0.04576,3.654302942,
0.04578,-0.05580120592,0.04578,4.38516353,
0.0458,-0.4212315001,0.0458,4.38516353,
0.04582,1.405919971,0.04582,4.019733236,
0.04584,1.405919971,0.04584,4.38516353,
0.04586,1.405919971,0.04586,4.38516353,
0.04588,2.136780559,0.04588,4.38516353,
0.0459,2.502210853,0.0459,4.750593824,
0.04592,2.136780559,0.04592,4.019733236,
0.04594,5.791083501,0.04594,4.019733236,
0.04596,3.598501736,0.04596,4.750593824,
0.04598,3.598501736,0.04598,4.750593824,
0.046,4.329362324,0.046,4.38516353,
0.04602,5.060222912,0.04602,5.116024118,
0.04604,3.233071442,0.04604,4.38516353,
0.04606,3.233071442,0.04606,4.38516353,
0.04608,3.598501736,0.04608,4.38516353,
0.0461,2.136780559,0.0461,4.750593824,
0.04612,2.502210853,0.04612,4.019733236,
0.04614,3.598501736,0.04614,4.750593824,
0.04616,2.502210853,0.04616,4.38516353,
0.04618,2.136780559,0.04618,4.38516353,
0.0462,-0.7866617943,0.0462,4.750593824,
0.04622,0.6750593824,0.04622,4.750593824,
0.04624,-0.05580120592,0.04624,4.019733236,
0.04626,-1.152092088,0.04626,4.750593824,
0.04628,-1.152092088,0.04628,4.750593824,
0.0463,-0.7866617943,0.0463,4.019733236,
0.04632,-2.979243559,0.04632,4.019733236,
0.04634,-2.979243559,0.04634,4.750593824,
0.04636,-2.613813265,0.04636,4.019733236,
0.04638,-2.248382971,0.04638,4.750593824,
0.0464,-3.344673853,0.0464,4.38516353,
0.04642,-2.248382971,0.04642,4.750593824,
0.04644,-2.248382971,0.04644,4.750593824,
0.04646,-4.075534442,0.04646,4.750593824,
0.04648,-3.344673853,0.04648,4.38516353,
0.0465,-3.344673853,0.0465,4.750593824,
0.04652,-3.710104148,0.04652,3.288872648,
0.04654,-2.979243559,0.04654,4.38516353,
0.04656,-3.710104148,0.04656,4.38516353,
0.04658,-3.710104148,0.04658,4.38516353,
0.0466,-3.710104148,0.0466,4.019733236,
0.04662,-3.710104148,0.04662,4.019733236,
0.04664,-2.979243559,0.04664,4.019733236,
0.04666,-1.152092088,0.04666,4.750593824,
0.04668,-1.517522383,0.04668,4.019733236,
0.0467,1.405919971,0.0467,4.38516353,
0.04672,-0.05580120592,0.04672,4.750593824,
0.04674,2.502210853,0.04674,5.116024118,
0.04676,1.771350265,0.04676,3.654302942,
0.04678,2.136780559,0.04678,4.38516353,
0.0468,1.771350265,0.0468,4.38516353,
0.04682,2.502210853,0.04682,4.019733236,
0.04684,2.867641147,0.04684,4.38516353,
0.04686,2.867641147,0.04686,4.750593824,
0.04688,2.867641147,0.04688,4.38516353,
0.0469,4.329362324,0.0469,4.750593824,
0.04692,3.96393203,0.04692,4.750593824,
0.04694,2.502210853,0.04694,4.750593824,
0.04696,3.96393203,0.04696,4.38516353,
0.04698,3.233071442,0.04698,4.38516353,
0.047,4.329362324,0.047,4.38516353,
0.04702,3.233071442,0.04702,4.38516353,
0.04704,1.771350265,0.04704,3.654302942,
0.04706,2.867641147,0.04706,4.38516353,
0.04708,3.598501736,0.04708,4.750593824,
0.0471,2.502210853,0.0471,4.750593824,
0.04712,1.040489677,0.04712,5.116024118,
0.04714,2.867641147,0.04714,4.750593824,
0.04716,-1.152092088,0.04716,4.750593824,
0.04718,-0.05580120592,0.04718,4.750593824,
0.0472,0.3096290883,0.0472,4.38516353,
0.04722,-0.05580120592,0.04722,4.38516353,
0.04724,-1.517522383,0.04724,4.38516353,
0.04726,-2.248382971,0.04726,4.750593824,
0.04728,-0.05580120592,0.04728,4.38516353,
0.0473,-2.248382971,0.0473,4.750593824,
0.04732,-2.613813265,0.04732,4.38516353,
0.04734,-3.710104148,0.04734,4.750593824,
0.04736,-2.613813265,0.04736,4.38516353,
0.04738,-3.710104148,0.04738,4.38516353,
0.0474,-2.979243559,0.0474,4.38516353,
0.04742,-2.613813265,0.04742,4.750593824,
0.04744,-3.344673853,0.04744,4.38516353,
0.04746,-2.248382971,0.04746,4.019733236,
0.04748,-2.979243559,0.04748,4.750593824,
0.0475,-2.248382971,0.0475,4.019733236,
0.04752,-2.248382971,0.04752,4.019733236,
0.04754,-2.613813265,0.04754,4.750593824,
0.04756,-3.344673853,0.04756,4.38516353,
0.04758,-1.882952677,0.04758,4.38516353,
0.0476,-0.7866617943,0.0476,4.750593824,
0.04762,-0.7866617943,0.04762,4.38516353,
0.04764,-1.882952677,0.04764,4.38516353,
0.04766,-1.152092088,0.04766,5.481454413,
0.04768,2.502210853,0.04768,4.38516353,
0.0477,2.136780559,0.0477,4.38516353,
0.04772,1.040489677,0.04772,4.750593824,
0.04774,2.136780559,0.04774,4.38516353,
0.04776,1.771350265,0.04776,4.750593824,
0.04778,3.233071442,0.04778,4.38516353,
0.0478,3.233071442,0.0478,4.38516353,
0.04782,3.598501736,0.04782,4.750593824,
0.04784,2.502210853,0.04784,4.750593824,
0.04786,5.060222912,0.04786,4.019733236,
0.04788,3.233071442,0.04788,4.38516353,
0.0479,2.867641147,0.0479,4.38516353,
0.04792,4.329362324,0.04792,4.38516353,
0.04794,3.598501736,0.04794,4.38516353,
0.04796,2.867641147,0.04796,4.750593824,
0.04798,3.598501736,0.04798,5.481454413,
0.048,3.233071442,0.048,4.750593824,
0.04802,2.136780559,0.04802,4.750593824,
0.04804,2.136780559,0.04804,4.38516353,
0.04806,1.405919971,0.04806,4.38516353,
0.04808,1.405919971,0.04808,4.750593824,
0.0481,1.405919971,0.0481,4.38516353,
0.04812,-0.05580120592,0.04812,4.750593824,
0.04814,-0.7866617943,0.04814,4.38516353,
0.04816,0.3096290883,0.04816,4.019733236,
0.04818,-1.152092088,0.04818,4.750593824,
0.0482,-2.248382971,0.0482,4.38516353,
0.04822,-2.613813265,0.04822,4.019733236,
0.04824,-1.517522383,0.04824,4.750593824,
0.04826,-2.613813265,0.04826,4.750593824,
0.04828,-1.882952677,0.04828,4.019733236,
0.0483,-4.440964736,0.0483,4.750593824,
0.04832,-3.344673853,0.04832,4.750593824,
0.04834,-4.440964736,0.04834,4.38516353,
0.04836,-3.344673853,0.04836,4.750593824,
0.04838,-4.075534442,0.04838,4.38516353,
0.0484,-3.344673853,0.0484,4.38516353,
0.04842,-1.517522383,0.04842,4.750593824,
0.04844,-4.440964736,0.04844,5.116024118,
0.04846,-2.613813265,0.04846,4.38516353,
0.04848,-1.517522383,0.04848,4.750593824,
0.0485,-1.882952677,0.0485,4.750593824,
0.04852,-0.4212315001,0.04852,4.38516353,
0.04854,-0.4212315001,0.04854,4.019733236,
0.04856,0.3096290883,0.04856,4.750593824,
0.04858,-0.4212315001,0.04858,4.38516353,
0.0486,-0.4212315001,0.0486,4.38516353,
0.04862,-0.7866617943,0.04862,4.38516353,
0.04864,2.136780559,0.04864,5.481454413,
0.04866,1.771350265,0.04866,4.750593824,
0.04868,2.502210853,0.04868,4.750593824,
0.0487,2.867641147,0.0487,4.38516353,
0.04872,3.598501736,0.04872,4.38516353,
0.04874,1.405919971,0.04874,2.923442353,
0.04876,1.771350265,0.04876,4.38516353,
0.04878,3.233071442,0.04878,4.38516353,
0.0488,5.425653207,0.0488,4.750593824,
0.04882,3.96393203,0.04882,4.38516353,
0.04884,3.233071442,0.04884,6.212315001,
0.04886,2.502210853,0.04886,4.38516353,
0.04888,2.867641147,0.04888,3.654302942,
0.0489,4.329362324,0.0489,4.750593824,
0.04892,1.771350265,0.04892,4.019733236,
0.04894,3.96393203,0.04894,2.923442353,
0.04896,1.771350265,0.04896,4.750593824,
0.04898,2.502210853,0.04898,4.750593824,
0.049,1.771350265,0.049,4.019733236,
0.04902,2.502210853,0.04902,5.116024118,
0.04904,1.040489677,0.04904,4.38516353,
0.04906,1.040489677,0.04906,4.38516353,
0.04908,-2.613813265,0.04908,4.750593824,
0.0491,-0.05580120592,0.0491,4.38516353,
0.04912,-1.152092088,0.04912,4.38516353,
0.04914,-2.248382971,0.04914,5.481454413,
0.04916,-3.344673853,0.04916,4.38516353,
0.04918,-2.613813265,0.04918,4.019733236,
0.0492,-2.979243559,0.0492,4.38516353,
0.04922,-2.248382971,0.04922,4.750593824,
0.04924,-3.344673853,0.04924,3.288872648,
0.04926,-1.517522383,0.04926,5.116024118,
0.04928,-2.979243559,0.04928,5.481454413,
0.0493,-2.248382971,0.0493,4.019733236,
0.04932,-3.344673853,0.04932,4.750593824,
0.04934,-3.344673853,0.04934,5.846884707,
0.04936,-2.613813265,0.04936,4.019733236,
0.04938,-2.613813265,0.04938,4.750593824,
0.0494,-5.902685913,0.0494,4.750593824,
0.04942,-0.05580120592,0.04942,4.38516353,
0.04944,-1.882952677,0.04944,4.019733236,
0.04946,-2.248382971,0.04946,5.116024118,
0.04948,-0.05580120592,0.04948,4.38516353,
0.0495,-1.152092088,0.0495,4.019733236,
0.04952,-0.7866617943,0.04952,3.654302942,
0.04954,0.3096290883,0.04954,4.750593824,
0.04956,0.3096290883,0.04956,4.019733236,
0.04958,-0.05580120592,0.04958,4.019733236,
0.0496,2.136780559,0.0496,4.38516353,
0.04962,2.502210853,0.04962,4.019733236,
0.04964,2.867641147,0.04964,4.019733236,
0.04966,4.694792618,0.04966,4.38516353,
0.04968,2.867641147,0.04968,4.38516353,
0.0497,3.233071442,0.0497,4.019733236,
0.04972,3.96393203,0.04972,4.38516353,
0.04974,4.694792618,0.04974,3.288872648,
0.04976,3.96393203,0.04976,4.019733236,
0.04978,3.598501736,0.04978,4.38516353,
0.0498,3.598501736,0.0498,4.019733236,
0.04982,3.233071442,0.04982,3.654302942,
0.04984,2.867641147,0.04984,4.38516353,
0.04986,5.425653207,0.04986,4.38516353,
0.04988,2.502210853,0.04988,4.019733236,
0.0499,1.405919971,0.0499,4.019733236,
0.04992,1.771350265,0.04992,4.38516353,
0.04994,1.040489677,0.04994,4.019733236,
0.04996,0.6750593824,0.04996,4.38516353,
0.04998,0.6750593824,0.04998,4.38516353,
0.05,-0.05580120592,0.05,3.654302942,
0.05002,-0.7866617943,0.05002,4.38516353,
0.05004,1.771350265,0.05004,4.750593824,
0.05006,-1.882952677,0.05006,3.654302942,
0.05008,-3.344673853,0.05008,4.019733236,
0.0501,-2.248382971,0.0501,4.019733236,
0.05012,-0.7866617943,0.05012,4.019733236,
0.05014,-2.979243559,0.05014,4.019733236,
0.05016,-2.248382971,0.05016,4.019733236,
0.05018,-2.979243559,0.05018,4.019733236,
0.0502,-3.710104148,0.0502,4.38516353,
0.05022,-3.344673853,0.05022,4.38516353,
0.05024,-3.710104148,0.05024,4.019733236,
0.05026,-2.979243559,0.05026,4.38516353,
0.05028,-3.344673853,0.05028,4.019733236,
0.0503,-3.344673853,0.0503,4.019733236,
0.05032,-2.979243559,0.05032,4.019733236,
0.05034,-2.613813265,0.05034,4.38516353,
0.05036,-2.979243559,0.05036,4.019733236,
0.05038,-1.882952677,0.05038,4.38516353,
0.0504,-2.613813265,0.0504,4.38516353,
0.05042,1.040489677,0.05042,4.019733236,
0.05044,-0.4212315001,0.05044,4.38516353,
0.05046,1.040489677,0.05046,4.38516353,
0.05048,2.502210853,0.05048,4.019733236,
0.0505,1.405919971,0.0505,4.019733236,
0.05052,1.405919971,0.05052,4.019733236,
0.05054,2.136780559,0.05054,3.288872648,
0.05056,2.867641147,0.05056,4.38516353,
0.05058,1.405919971,0.05058,3.654302942,
0.0506,3.96393203,0.0506,4.019733236,
0.05062,3.96393203,0.05062,4.019733236,
0.05064,3.96393203,0.05064,4.019733236,
0.05066,3.233071442,0.05066,4.019733236,
0.05068,6.887374383,0.05068,4.38516353,
0.0507,3.96393203,0.0507,4.750593824,
0.05072,3.598501736,0.05072,3.654302942,
0.05074,3.598501736,0.05074,4.38516353,
0.05076,3.598501736,0.05076,4.750593824,
0.05078,3.233071442,0.05078,4.019733236,
0.0508,2.867641147,0.0508,4.38516353,
0.05082,2.136780559,0.05082,4.750593824,
0.05084,2.136780559,0.05084,3.654302942,
0.05086,3.96393203,0.05086,4.38516353,
0.05088,1.040489677,0.05088,4.750593824,
0.0509,1.405919971,0.0509,4.019733236,
0.05092,0.6750593824,0.05092,4.019733236,
0.05094,0.3096290883,0.05094,4.38516353,
0.05096,-1.152092088,0.05096,4.019733236,
0.05098,0.6750593824,0.05098,4.019733236,
0.051,-1.152092088,0.051,4.750593824,
0.05102,-2.613813265,0.05102,4.019733236,
0.05104,-2.248382971,0.05104,4.38516353,
0.05106,-3.344673853,0.05106,4.38516353,
0.05108,-2.248382971,0.05108,4.019733236,
0.0511,-2.979243559,0.0511,4.38516353,
0.05112,-3.344673853,0.05112,4.38516353,
0.05114,-4.440964736,0.05114,4.019733236,
0.05116,-2.979243559,0.05116,4.019733236,
0.05118,-3.344673853,0.05118,4.750593824,
0.0512,-3.344673853,0.0512,3.654302942,
0.05122,-3.344673853,0.05122,4.38516353,
0.05124,-2.979243559,0.05124,4.38516353,
0.05126,-3.344673853,0.05126,5.116024118,
0.05128,-2.248382971,0.05128,4.019733236,
0.0513,-1.882952677,0.0513,4.38516353,
0.05132,-1.882952677,0.05132,4.38516353,
0.05134,-1.882952677,0.05134,4.019733236,
0.05136,-0.7866617943,0.05136,3.288872648,
0.05138,-0.05580120592,0.05138,4.019733236,
0.0514,-1.517522383,0.0514,4.38516353,
0.05142,-0.05580120592,0.05142,4.38516353,
0.05144,0.6750593824,0.05144,4.750593824,
0.05146,1.040489677,0.05146,4.750593824,
0.05148,1.771350265,0.05148,4.38516353,
0.0515,2.867641147,0.0515,5.481454413,
0.05152,2.502210853,0.05152,4.38516353,
0.05154,3.598501736,0.05154,4.019733236,
0.05156,2.502210853,0.05156,5.846884707,
0.05158,2.867641147,0.05158,4.38516353,
0.0516,3.233071442,0.0516,4.019733236,
0.05162,5.425653207,0.05162,4.750593824,
0.05164,5.060222912,0.05164,4.38516353,
0.05166,3.598501736,0.05166,2.923442353,
0.05168,3.598501736,0.05168,4.750593824,
0.0517,2.136780559,0.0517,4.38516353,
0.05172,1.771350265,0.05172,4.38516353,
0.05174,2.136780559,0.05174,5.116024118,
0.05176,2.136780559,0.05176,5.481454413,
0.05178,1.771350265,0.05178,4.019733236,
0.0518,1.405919971,0.0518,4.750593824,
0.05182,-0.05580120592,0.05182,4.38516353,
0.05184,0.3096290883,0.05184,4.38516353,
0.05186,-0.05580120592,0.05186,3.654302942,
0.05188,-1.517522383,0.05188,4.38516353,
0.0519,-0.7866617943,0.0519,4.38516353,
0.05192,-1.152092088,0.05192,4.38516353,
0.05194,-2.248382971,0.05194,4.38516353,
0.05196,-2.613813265,0.05196,5.481454413,
0.05198,-1.517522383,0.05198,4.019733236,
0.052,-3.710104148,0.052,4.38516353,
0.05202,-2.248382971,0.05202,4.38516353,
0.05204,-1.882952677,0.05204,4.38516353,
0.05206,-3.344673853,0.05206,4.019733236,
0.05208,-2.979243559,0.05208,4.38516353,
0.0521,-3.710104148,0.0521,4.38516353,
0.05212,-2.613813265,0.05212,4.38516353,
0.05214,-3.344673853,0.05214,4.750593824,
0.05216,-3.710104148,0.05216,4.019733236,
0.05218,-6.633546501,0.05218,4.019733236,
0.0522,-3.344673853,0.0522,4.019733236,
0.05222,-1.152092088,0.05222,4.750593824,
0.05224,-2.613813265,0.05224,4.750593824,
0.05226,-0.7866617943,0.05226,4.750593824,
0.05228,0.3096290883,0.05228,4.750593824,
0.0523,-0.4212315001,0.0523,4.38516353,
0.05232,0.3096290883,0.05232,4.019733236,
0.05234,1.040489677,0.05234,4.750593824,
0.05236,2.502210853,0.05236,4.019733236,
0.05238,0.3096290883,0.05238,4.38516353,
0.0524,2.136780559,0.0524,4.38516353,
0.05242,2.136780559,0.05242,4.38516353,
0.05244,2.502210853,0.05244,4.019733236,
0.05246,2.502210853,0.05246,4.750593824,
0.05248,5.425653207,0.05248,4.38516353,
0.0525,3.598501736,0.0525,4.019733236,
0.05252,3.233071442,0.05252,4.750593824,
0.05254,3.598501736,0.05254,4.019733236,
0.05256,2.136780559,0.05256,4.38516353,
0.05258,5.060222912,0.05258,4.750593824,
0.0526,3.598501736,0.0526,4.750593824,
0.05262,4.694792618,0.05262,4.38516353,
0.05264,2.867641147,0.05264,4.38516353,
0.05266,2.867641147,0.05266,4.019733236,
0.05268,0.3096290883,0.05268,4.019733236,
0.0527,2.867641147,0.0527,5.116024118,
0.05272,1.405919971,0.05272,4.38516353,
0.05274,1.405919971,0.05274,4.38516353,
0.05276,1.040489677,0.05276,5.116024118,
0.05278,0.6750593824,0.05278,4.019733236,
0.0528,-1.517522383,0.0528,4.38516353,
0.05282,-1.882952677,0.05282,4.750593824,
0.05284,-1.882952677,0.05284,3.654302942,
0.05286,-1.517522383,0.05286,4.019733236,
0.05288,-0.4212315001,0.05288,4.750593824,
0.0529,-3.710104148,0.0529,4.019733236,
0.05292,-2.979243559,0.05292,4.019733236,
0.05294,-2.613813265,0.05294,4.38516353,
0.05296,-2.613813265,0.05296,4.38516353,
0.05298,-3.710104148,0.05298,4.38516353,
0.053,-4.075534442,0.053,4.750593824,
0.05302,-3.710104148,0.05302,4.38516353,
0.05304,-1.517522383,0.05304,4.38516353,
0.05306,-3.710104148,0.05306,4.750593824,
0.05308,-4.440964736,0.05308,5.481454413,
0.0531,-2.979243559,0.0531,3.654302942,
0.05312,-2.248382971,0.05312,5.116024118,
0.05314,-2.248382971,0.05314,3.654302942,
0.05316,-3.344673853,0.05316,4.019733236,
0.05318,-1.517522383,0.05318,4.750593824,
0.0532,-1.882952677,0.0532,4.750593824,
0.05322,-0.7866617943,0.05322,3.654302942,
0.05324,0.3096290883,0.05324,4.750593824,
0.05326,-0.05580120592,0.05326,4.38516353,
0.05328,1.040489677,0.05328,4.019733236,
0.0533,1.771350265,0.0533,4.750593824,
0.05332,1.040489677,0.05332,4.019733236,
0.05334,2.136780559,0.05334,4.38516353,
0.05336,1.771350265,0.05336,4.750593824,
0.05338,2.867641147,0.05338,4.019733236,
0.0534,4.694792618,0.0534,4.38516353,
0.05342,2.867641147,0.05342,4.750593824,
0.05344,3.598501736,0.05344,4.38516353,
0.05346,4.329362324,0.05346,4.750593824,
0.05348,3.598501736,0.05348,4.38516353,
0.0535,3.96393203,0.0535,4.019733236,
0.05352,3.96393203,0.05352,4.750593824,
0.05354,3.233071442,0.05354,4.38516353,
0.05356,3.96393203,0.05356,4.38516353,
0.05358,3.96393203,0.05358,4.750593824,
0.0536,1.771350265,0.0536,4.38516353,
0.05362,2.867641147,0.05362,4.019733236,
0.05364,3.598501736,0.05364,4.750593824,
0.05366,1.405919971,0.05366,4.019733236,
0.05368,1.040489677,0.05368,4.750593824,
0.0537,1.405919971,0.0537,4.750593824,
0.05372,0.3096290883,0.05372,4.38516353,
0.05374,-0.05580120592,0.05374,4.38516353,
0.05376,-0.7866617943,0.05376,4.750593824,
0.05378,-1.882952677,0.05378,4.019733236,
0.0538,-1.152092088,0.0538,4.750593824,
0.05382,-2.613813265,0.05382,4.750593824,
0.05384,-2.613813265,0.05384,4.019733236,
0.05386,-2.248382971,0.05386,4.38516353,
0.05388,-1.882952677,0.05388,5.846884707,
0.0539,-4.075534442,0.0539,4.38516353,
0.05392,-2.979243559,0.05392,4.019733236,
0.05394,-4.075534442,0.05394,4.38516353,
0.05396,-3.710104148,0.05396,4.750593824,
0.05398,-4.440964736,0.05398,2.558012059,
0.054,-3.710104148,0.054,4.750593824,
0.05402,-2.613813265,0.05402,4.750593824,
0.05404,-2.979243559,0.05404,4.38516353,
0.05406,-2.979243559,0.05406,4.38516353,
0.05408,-4.80639503,0.05408,6.577745295,
0.0541,-1.517522383,0.0541,4.750593824,
0.05412,-1.152092088,0.05412,4.750593824,
0.05414,-0.7866617943,0.05414,4.38516353,
0.05416,-0.4212315001,0.05416,4.38516353,
0.05418,-0.05580120592,0.05418,2.923442353,
0.0542,-2.613813265,0.0542,4.38516353,
0.05422,0.3096290883,0.05422,4.019733236,
0.05424,1.040489677,0.05424,4.750593824,
0.05426,1.405919971,0.05426,4.38516353,
0.05428,1.405919971,0.05428,5.481454413,
0.0543,1.771350265,0.0543,4.750593824,
0.05432,2.502210853,0.05432,4.38516353,
0.05434,2.502210853,0.05434,4.019733236,
0.05436,2.136780559,0.05436,3.288872648,
0.05438,3.233071442,0.05438,4.38516353,
0.0544,2.867641147,0.0544,4.38516353,
0.05442,3.598501736,0.05442,4.750593824,
0.05444,3.233071442,0.05444,4.38516353,
0.05446,3.233071442,0.05446,4.750593824,
0.05448,3.233071442,0.05448,4.38516353,
0.0545,3.233071442,0.0545,4.38516353,
0.05452,2.136780559,0.05452,4.38516353,
0.05454,2.136780559,0.05454,4.750593824,
0.05456,1.405919971,0.05456,4.38516353,
0.05458,2.136780559,0.05458,5.116024118,
0.0546,1.771350265,0.0546,4.38516353,
0.05462,0.6750593824,0.05462,4.38516353,
0.05464,1.405919971,0.05464,4.38516353,
0.05466,0.3096290883,0.05466,4.750593824,
0.05468,-0.7866617943,0.05468,4.019733236,
0.0547,0.3096290883,0.0547,4.38516353,
0.05472,-1.152092088,0.05472,4.750593824,
0.05474,-2.613813265,0.05474,4.750593824,
0.05476,-2.248382971,0.05476,4.38516353,
0.05478,-1.517522383,0.05478,5.116024118,
0.0548,-3.710104148,0.0548,4.750593824,
0.05482,-2.248382971,0.05482,4.38516353,
0.05484,-2.979243559,0.05484,5.116024118,
0.05486,-4.440964736,0.05486,4.38516353,
0.05488,-1.882952677,0.05488,4.38516353,
0.0549,-3.710104148,0.0549,4.750593824,
0.05492,-4.80639503,0.05492,4.38516353,
0.05494,-2.979243559,0.05494,4.750593824,
0.05496,-1.882952677,0.05496,4.38516353,
0.05498,-2.979243559,0.05498,4.38516353,
0.055,-1.152092088,0.055,4.38516353,
0.05502,-0.7866617943,0.05502,4.750593824,
0.05504,-2.613813265,0.05504,4.750593824,
0.05506,-1.152092088,0.05506,4.38516353,
0.05508,-0.05580120592,0.05508,4.750593824,
0.0551,-1.152092088,0.0551,4.750593824,
0.05512,0.3096290883,0.05512,4.38516353,
0.05514,1.405919971,0.05514,4.750593824,
0.05516,2.136780559,0.05516,4.38516353,
0.05518,1.771350265,0.05518,5.116024118,
0.0552,3.233071442,0.0552,4.38516353,
0.05522,2.136780559,0.05522,4.38516353,
0.05524,3.598501736,0.05524,4.38516353,
0.05526,3.233071442,0.05526,3.654302942,
0.05528,3.233071442,0.05528,4.38516353,
0.0553,3.598501736,0.0553,4.750593824,
0.05532,3.233071442,0.05532,3.288872648,
0.05534,3.598501736,0.05534,4.019733236,
0.05536,4.329362324,0.05536,4.38516353,
0.05538,3.233071442,0.05538,3.654302942,
0.0554,3.598501736,0.0554,4.38516353,
0.05542,2.867641147,0.05542,4.38516353,
0.05544,3.233071442,0.05544,3.654302942,
0.05546,3.598501736,0.05546,4.38516353,
0.05548,2.136780559,0.05548,4.38516353,
0.0555,1.405919971,0.0555,3.654302942,
0.05552,2.136780559,0.05552,4.38516353,
0.05554,1.771350265,0.05554,4.38516353,
0.05556,-0.05580120592,0.05556,3.654302942,
0.05558,1.040489677,0.05558,4.38516353,
0.0556,-0.4212315001,0.0556,4.750593824,
0.05562,-0.05580120592,0.05562,4.019733236,
0.05564,-0.4212315001,0.05564,5.116024118,
0.05566,-1.517522383,0.05566,4.38516353,
0.05568,-3.344673853,0.05568,3.654302942,
0.0557,-2.613813265,0.0557,4.38516353,
0.05572,-2.248382971,0.05572,4.38516353,
0.05574,-3.344673853,0.05574,3.654302942,
0.05576,-2.979243559,0.05576,4.38516353,
0.05578,-2.979243559,0.05578,4.38516353,
0.0558,-2.979243559,0.0558,3.654302942,
0.05582,-3.344673853,0.05582,4.019733236,
0.05584,-2.613813265,0.05584,4.38516353,
0.05586,-2.248382971,0.05586,4.019733236,
0.05588,-2.613813265,0.05588,4.019733236,
0.0559,-2.248382971,0.0559,4.019733236,
0.05592,-2.979243559,0.05592,3.654302942,
0.05594,-0.4212315001,0.05594,4.38516353,
0.05596,1.405919971,0.05596,4.38516353,
0.05598,-1.517522383,0.05598,4.019733236,
0.056,0.3096290883,0.056,4.019733236,
0.05602,-0.05580120592,0.05602,4.38516353,
0.05604,-0.4212315001,0.05604,3.654302942,
0.05606,0.6750593824,0.05606,4.38516353,
0.05608,0.3096290883,0.05608,4.38516353,
0.0561,0.6750593824,0.0561,4.019733236,
0.05612,3.233071442,0.05612,4.38516353,
0.05614,1.405919971,0.05614,4.750593824,
0.05616,2.502210853,0.05616,4.019733236,
0.05618,-0.05580120592,0.05618,4.019733236,
0.0562,3.598501736,0.0562,4.019733236,
0.05622,3.233071442,0.05622,4.019733236,
0.05624,3.96393203,0.05624,4.38516353,
0.05626,3.598501736,0.05626,4.019733236,
0.05628,4.329362324,0.05628,4.019733236,
0.0563,3.233071442,0.0563,4.019733236,
0.05632,3.96393203,0.05632,4.019733236,
0.05634,3.233071442,0.05634,4.38516353,
0.05636,3.96393203,0.05636,4.38516353,
0.05638,5.425653207,0.05638,4.019733236,
0.0564,2.502210853,0.0564,3.654302942,
0.05642,2.867641147,0.05642,4.750593824,
0.05644,3.233071442,0.05644,4.019733236,
0.05646,-0.7866617943,0.05646,4.019733236,
0.05648,2.502210853,0.05648,4.750593824,
0.0565,-0.4212315001,0.0565,4.750593824,
0.05652,0.3096290883,0.05652,3.654302942,
0.05654,0.3096290883,0.05654,4.019733236,
0.05656,-1.882952677,0.05656,4.019733236,
0.05658,-2.613813265,0.05658,3.654302942,
0.0566,-1.152092088,0.0566,3.654302942,
0.05662,-1.152092088,0.05662,4.38516353,
0.05664,-3.344673853,0.05664,4.019733236,
0.05666,-2.248382971,0.05666,4.019733236,
0.05668,-4.075534442,0.05668,4.750593824,
0.0567,-5.171825324,0.0567,5.116024118,
0.05672,-2.613813265,0.05672,4.019733236,
0.05674,-3.710104148,0.05674,4.38516353,
0.05676,-3.710104148,0.05676,3.654302942,
0.05678,-1.882952677,0.05678,4.750593824,
0.0568,-3.344673853,0.0568,3.654302942,
0.05682,-4.075534442,0.05682,3.654302942,
0.05684,-3.344673853,0.05684,4.38516353,
0.05686,-2.248382971,0.05686,4.38516353,
0.05688,-1.517522383,0.05688,4.019733236,
0.0569,-2.613813265,0.0569,4.019733236,
0.05692,-1.517522383,0.05692,4.38516353,
0.05694,-0.7866617943,0.05694,3.654302942,
0.05696,-1.152092088,0.05696,4.38516353,
0.05698,0.6750593824,0.05698,4.750593824,
0.057,0.6750593824,0.057,5.481454413,
0.05702,1.040489677,0.05702,4.38516353,
0.05704,1.771350265,0.05704,4.38516353,
0.05706,1.040489677,0.05706,4.019733236,
0.05708,3.233071442,0.05708,4.750593824,
0.0571,2.502210853,0.0571,4.750593824,
0.05712,2.502210853,0.05712,4.38516353,
0.05714,1.771350265,0.05714,4.38516353,
0.05716,3.233071442,0.05716,4.38516353,
0.05718,4.329362324,0.05718,4.38516353,
0.0572,2.136780559,0.0572,4.019733236,
0.05722,2.867641147,0.05722,4.38516353,
0.05724,3.96393203,0.05724,4.750593824,
0.05726,2.502210853,0.05726,4.019733236,
0.05728,2.867641147,0.05728,4.38516353,
0.0573,5.791083501,0.0573,5.481454413,
0.05732,2.502210853,0.05732,4.38516353,
0.05734,2.502210853,0.05734,4.750593824,
0.05736,1.771350265,0.05736,4.38516353,
0.05738,2.136780559,0.05738,4.750593824,
0.0574,2.502210853,0.0574,4.750593824,
0.05742,3.598501736,0.05742,4.38516353,
0.05744,-1.517522383,0.05744,4.38516353,
0.05746,0.3096290883,0.05746,4.019733236,
0.05748,-1.152092088,0.05748,4.750593824,
0.0575,-1.882952677,0.0575,4.019733236,
0.05752,-3.344673853,0.05752,4.38516353,
0.05754,-1.517522383,0.05754,4.750593824,
0.05756,-2.613813265,0.05756,4.38516353,
0.05758,-3.344673853,0.05758,4.38516353,
0.0576,-2.979243559,0.0576,5.116024118,
0.05762,-2.613813265,0.05762,4.38516353,
0.05764,-2.613813265,0.05764,3.654302942,
0.05766,-2.248382971,0.05766,4.750593824,
0.05768,-4.075534442,0.05768,4.38516353,
0.0577,-3.344673853,0.0577,4.019733236,
0.05772,-2.979243559,0.05772,4.750593824,
0.05774,-3.710104148,0.05774,4.38516353,
0.05776,-3.344673853,0.05776,4.750593824,
0.05778,-2.613813265,0.05778,4.750593824,
0.0578,-3.344673853,0.0578,4.019733236,
0.05782,-3.710104148,0.05782,4.019733236,
0.05784,-0.7866617943,0.05784,5.116024118,
0.05786,0.3096290883,0.05786,4.750593824,
0.05788,-1.882952677,0.05788,4.38516353,
0.0579,-0.7866617943,0.0579,5.116024118,
0.05792,1.405919971,0.05792,4.750593824,
0.05794,1.040489677,0.05794,4.750593824,
0.05796,1.405919971,0.05796,4.750593824,
0.05798,1.771350265,0.05798,4.750593824,
0.058,2.136780559,0.058,4.019733236,
0.05802,1.771350265,0.05802,5.116024118,
0.05804,2.867641147,0.05804,4.750593824,
0.05806,2.502210853,0.05806,4.38516353,
0.05808,3.233071442,0.05808,4.38516353,
0.0581,3.233071442,0.0581,4.019733236,
0.05812,2.502210853,0.05812,4.750593824,
0.05814,4.329362324,0.05814,4.38516353,
0.05816,3.598501736,0.05816,4.750593824,
0.05818,4.694792618,0.05818,4.019733236,
0.0582,3.598501736,0.0582,4.38516353,
0.05822,4.329362324,0.05822,3.288872648,
0.05824,1.771350265,0.05824,4.019733236,
0.05826,2.867641147,0.05826,4.019733236,
0.05828,2.136780559,0.05828,3.654302942,
0.0583,4.329362324,0.0583,4.019733236,
0.05832,3.233071442,0.05832,4.019733236,
0.05834,2.502210853,0.05834,4.019733236,
0.05836,0.3096290883,0.05836,4.38516353,
0.05838,0.6750593824,0.05838,4.750593824,
0.0584,-0.05580120592,0.0584,4.019733236,
0.05842,-0.7866617943,0.05842,4.38516353,
0.05844,-1.882952677,0.05844,4.38516353,
0.05846,-1.882952677,0.05846,4.019733236,
0.05848,-2.248382971,0.05848,4.38516353,
0.0585,-1.882952677,0.0585,4.38516353,
0.05852,-4.80639503,0.05852,4.019733236,
0.05854,-3.710104148,0.05854,4.38516353,
0.05856,-3.344673853,0.05856,4.38516353,
0.05858,-3.344673853,0.05858,4.019733236,
0.0586,-2.613813265,0.0586,4.750593824,
0.05862,-2.979243559,0.05862,4.019733236,
0.05864,-3.344673853,0.05864,4.019733236,
0.05866,-1.882952677,0.05866,4.38516353,
0.05868,-2.613813265,0.05868,4.38516353,
0.0587,-2.613813265,0.0587,4.019733236,
