"A0_accX_x","A0_accX_y","A1_rmsX_x","A1_rmsX_y"
0,1.38238626,0,4.38516353,
2e-05,2.113246848,2e-05,4.38516353,
4e-05,1.016955966,4e-05,3.654302942,
6e-05,3.209537731,6e-05,3.654302942,
8e-05,4.671258907,8e-05,4.38516353,
0.0001,1.747816554,0.0001,4.019733236,
0.00012,5.036689202,0.00012,4.38516353,
0.00014,3.940398319,0.00014,4.019733236,
0.00016,2.478677142,0.00016,5.481454413,
0.00018,3.940398319,0.00018,4.38516353,
0.0002,4.305828613,0.0002,4.38516353,
0.00022,3.574968025,0.00022,4.38516353,
0.00024,2.478677142,0.00024,4.38516353,
0.00026,2.844107437,0.00026,2.923442353,
0.00028,3.574968025,0.00028,4.750593824,
0.0003,2.478677142,0.0003,4.019733236,
0.00032,3.574968025,0.00032,4.019733236,
0.00034,2.478677142,0.00034,5.116024118,
0.00036,1.38238626,0.00036,3.654302942,
0.00038,2.478677142,0.00038,4.019733236,
0.0004,0.2860953773,0.0004,4.38516353,
0.00042,-0.8101955052,0.00042,4.38516353,
0.00044,-1.175625799,0.00044,4.019733236,
0.00046,-0.444765211,0.00046,5.481454413,
0.00048,-0.8101955052,0.00048,4.38516353,
0.0005,-2.637346976,0.0005,3.288872648,
0.00052,-2.271916682,0.00052,4.750593824,
0.00054,-3.00277727,0.00054,4.019733236,
0.00056,-2.637346976,0.00056,5.116024118,
0.00058,-3.368207564,0.00058,5.116024118,
0.0006,-4.464498447,0.0006,4.38516353,
0.00062,-3.733637859,0.00062,4.019733236,
0.00064,-3.00277727,0.00064,4.750593824,
0.00066,-3.368207564,0.00066,4.750593824,
0.00068,-4.464498447,0.00068,4.019733236,
0.0007,-2.637346976,0.0007,5.116024118,
0.00072,-1.541056094,0.00072,4.38516353,
0.00074,-3.733637859,0.00074,4.019733236,
0.00076,-3.368207564,0.00076,4.019733236,
0.00078,-1.541056094,0.00078,4.38516353,
0.0008,-3.00277727,0.0008,4.019733236,
0.00082,-1.541056094,0.00082,4.750593824,
0.00084,0.2860953773,0.00084,4.38516353,
0.00086,-2.271916682,0.00086,4.750593824,
0.00088,-1.906486388,0.00088,4.750593824,
0.0009,-0.8101955052,0.0009,4.019733236,
0.00092,1.38238626,0.00092,4.019733236,
0.00094,-0.444765211,0.00094,4.38516353,
0.00096,1.38238626,0.00096,4.019733236,
0.00098,1.38238626,0.00098,4.019733236,
0.001,3.940398319,0.001,4.38516353,
0.00102,3.940398319,0.00102,4.019733236,
0.00104,1.38238626,0.00104,4.019733236,
0.00106,3.940398319,0.00106,4.38516353,
0.00108,3.209537731,0.00108,4.750593824,
0.0011,3.940398319,0.0011,4.38516353,
0.00112,3.209537731,0.00112,4.38516353,
0.00114,3.209537731,0.00114,4.38516353,
0.00116,3.209537731,0.00116,4.38516353,
0.00118,3.209537731,0.00118,5.116024118,
0.0012,2.844107437,0.0012,4.019733236,
0.00122,3.209537731,0.00122,4.019733236,
0.00124,-0.07933491686,0.00124,5.116024118,
0.00126,2.113246848,0.00126,3.654302942,
0.00128,1.016955966,0.00128,4.38516353,
0.0013,1.016955966,0.0013,4.019733236,
0.00132,1.016955966,0.00132,4.750593824,
0.00134,0.2860953773,0.00134,4.750593824,
0.00136,-0.444765211,0.00136,4.38516353,
0.00138,-0.07933491686,0.00138,4.019733236,
0.0014,-1.906486388,0.0014,4.019733236,
0.00142,-1.541056094,0.00142,4.750593824,
0.00144,-1.541056094,0.00144,4.38516353,
0.00146,-1.906486388,0.00146,4.750593824,
0.00148,-5.195359035,0.00148,4.750593824,
0.0015,-3.368207564,0.0015,4.38516353,
0.00152,-3.368207564,0.00152,4.38516353,
0.00154,-3.00277727,0.00154,4.38516353,
0.00156,-2.271916682,0.00156,4.38516353,
0.00158,-3.733637859,0.00158,4.38516353,
0.0016,-3.733637859,0.0016,4.019733236,
0.00162,-4.464498447,0.00162,4.019733236,
0.00164,-3.733637859,0.00164,4.019733236,
0.00166,-3.368207564,0.00166,4.019733236,
0.00168,-3.733637859,0.00168,4.019733236,
0.0017,-2.637346976,0.0017,4.019733236,
0.00172,-4.099068153,0.00172,4.38516353,
0.00174,-1.541056094,0.00174,4.38516353,
0.00176,-1.906486388,0.00176,4.019733236,
0.00178,-1.175625799,0.00178,4.38516353,
0.0018,1.016955966,0.0018,4.38516353,
0.00182,-0.444765211,0.00182,4.019733236,
0.00184,-0.07933491686,0.00184,4.750593824,
0.00186,1.747816554,0.00186,4.38516353,
0.00188,0.2860953773,0.00188,4.38516353,
0.0019,1.016955966,0.0019,4.38516353,
0.00192,2.113246848,0.00192,4.38516353,
0.00194,1.38238626,0.00194,4.019733236,
0.00196,2.113246848,0.00196,4.750593824,
0.00198,2.844107437,0.00198,4.750593824,
0.002,3.209537731,0.002,4.019733236,
0.00202,3.940398319,0.00202,4.38516353,
0.00204,3.574968025,0.00204,4.750593824,
0.00206,3.209537731,0.00206,4.38516353,
0.00208,5.402119496,0.00208,4.750593824,
0.0021,6.132980084,0.0021,4.750593824,
0.00212,3.574968025,0.00212,4.38516353,
0.00214,3.940398319,0.00214,4.750593824,
0.00216,3.940398319,0.00216,4.019733236,
0.00218,3.209537731,0.00218,4.38516353,
0.0022,1.747816554,0.0022,4.38516353,
0.00222,2.844107437,0.00222,4.019733236,
0.00224,1.38238626,0.00224,4.750593824,
0.00226,-0.8101955052,0.00226,4.38516353,
0.00228,0.6515256715,0.00228,4.019733236,
0.0023,0.2860953773,0.0023,4.750593824,
0.00232,-3.00277727,0.00232,4.019733236,
0.00234,-0.444765211,0.00234,4.38516353,
0.00236,-1.175625799,0.00236,5.116024118,
0.00238,-1.541056094,0.00238,4.750593824,
0.0024,-1.541056094,0.0024,4.019733236,
0.00242,-2.271916682,0.00242,4.750593824,
0.00244,-3.368207564,0.00244,4.750593824,
0.00246,-2.271916682,0.00246,4.019733236,
0.00248,-2.637346976,0.00248,4.38516353,
0.0025,-2.271916682,0.0025,4.019733236,
0.00252,-2.271916682,0.00252,4.38516353,
0.00254,-3.368207564,0.00254,4.38516353,
0.00256,-4.464498447,0.00256,4.38516353,
0.00258,-3.368207564,0.00258,4.38516353,
0.0026,-3.00277727,0.0026,5.116024118,
0.00262,-3.368207564,0.00262,4.750593824,
0.00264,-1.541056094,0.00264,4.019733236,
0.00266,-2.637346976,0.00266,4.750593824,
0.00268,-3.00277727,0.00268,4.38516353,
0.0027,-1.175625799,0.0027,4.38516353,
0.00272,-0.444765211,0.00272,4.750593824,
0.00274,-1.175625799,0.00274,4.38516353,
0.00276,2.844107437,0.00276,4.019733236,
0.00278,0.6515256715,0.00278,4.019733236,
0.0028,-0.07933491686,0.0028,5.116024118,
0.00282,1.016955966,0.00282,4.019733236,
0.00284,2.113246848,0.00284,4.750593824,
0.00286,1.016955966,0.00286,4.750593824,
0.00288,3.209537731,0.00288,5.116024118,
0.0029,3.574968025,0.0029,4.38516353,
0.00292,2.478677142,0.00292,4.750593824,
0.00294,3.940398319,0.00294,4.38516353,
0.00296,4.671258907,0.00296,4.750593824,
0.00298,2.844107437,0.00298,4.019733236,
0.003,4.305828613,0.003,4.019733236,
0.00302,4.671258907,0.00302,4.750593824,
0.00304,3.209537731,0.00304,4.38516353,
0.00306,3.574968025,0.00306,4.019733236,
0.00308,3.209537731,0.00308,5.116024118,
0.0031,2.478677142,0.0031,4.38516353,
0.00312,3.940398319,0.00312,4.38516353,
0.00314,2.478677142,0.00314,4.38516353,
0.00316,1.016955966,0.00316,4.750593824,
0.00318,0.6515256715,0.00318,4.750593824,
0.0032,0.6515256715,0.0032,4.019733236,
0.00322,-0.07933491686,0.00322,4.38516353,
0.00324,-0.07933491686,0.00324,4.019733236,
0.00326,-0.444765211,0.00326,4.38516353,
0.00328,-1.175625799,0.00328,3.654302942,
0.0033,-3.00277727,0.0033,4.019733236,
0.00332,-1.906486388,0.00332,4.38516353,
0.00334,-1.541056094,0.00334,4.750593824,
0.00336,-1.906486388,0.00336,5.116024118,
0.00338,-2.271916682,0.00338,5.481454413,
0.0034,-3.00277727,0.0034,4.750593824,
0.00342,-3.368207564,0.00342,4.750593824,
0.00344,-3.368207564,0.00344,4.38516353,
0.00346,-4.464498447,0.00346,4.38516353,
0.00348,-2.637346976,0.00348,3.288872648,
0.0035,-4.464498447,0.0035,4.750593824,
0.00352,-3.733637859,0.00352,4.38516353,
0.00354,-2.271916682,0.00354,4.38516353,
0.00356,-2.637346976,0.00356,4.750593824,
0.00358,-2.637346976,0.00358,4.750593824,
0.0036,-2.637346976,0.0036,4.38516353,
0.00362,-2.271916682,0.00362,4.38516353,
0.00364,-1.541056094,0.00364,4.38516353,
0.00366,1.38238626,0.00366,4.019733236,
0.00368,0.2860953773,0.00368,5.116024118,
0.0037,0.6515256715,0.0037,4.019733236,
0.00372,0.6515256715,0.00372,4.38516353,
0.00374,1.38238626,0.00374,4.38516353,
0.00376,0.6515256715,0.00376,4.38516353,
0.00378,1.747816554,0.00378,4.019733236,
0.0038,3.574968025,0.0038,4.019733236,
0.00382,2.113246848,0.00382,5.116024118,
0.00384,3.940398319,0.00384,4.38516353,
0.00386,3.574968025,0.00386,4.750593824,
0.00388,2.478677142,0.00388,4.38516353,
0.0039,2.478677142,0.0039,4.38516353,
0.00392,2.478677142,0.00392,4.750593824,
0.00394,3.574968025,0.00394,4.38516353,
0.00396,6.132980084,0.00396,3.654302942,
0.00398,3.940398319,0.00398,4.750593824,
0.004,4.305828613,0.004,4.750593824,
0.00402,2.844107437,0.00402,4.38516353,
0.00404,3.209537731,0.00404,4.38516353,
0.00406,3.574968025,0.00406,4.38516353,
0.00408,1.747816554,0.00408,4.38516353,
0.0041,1.747816554,0.0041,4.019733236,
0.00412,1.38238626,0.00412,4.019733236,
0.00414,0.2860953773,0.00414,4.38516353,
0.00416,1.016955966,0.00416,3.654302942,
0.00418,-0.444765211,0.00418,4.019733236,
0.0042,-1.906486388,0.0042,4.019733236,
0.00422,-2.271916682,0.00422,3.654302942,
0.00424,-1.541056094,0.00424,4.38516353,
0.00426,-4.099068153,0.00426,4.019733236,
0.00428,-2.637346976,0.00428,3.654302942,
0.0043,-3.733637859,0.0043,4.38516353,
0.00432,-2.271916682,0.00432,4.019733236,
0.00434,-3.733637859,0.00434,4.38516353,
0.00436,-2.637346976,0.00436,4.38516353,
0.00438,-1.906486388,0.00438,4.019733236,
0.0044,-2.637346976,0.0044,3.654302942,
0.00442,-3.368207564,0.00442,3.654302942,
0.00444,-5.195359035,0.00444,4.019733236,
0.00446,-3.368207564,0.00446,3.654302942,
0.00448,-2.637346976,0.00448,4.750593824,
0.0045,-1.541056094,0.0045,4.019733236,
0.00452,-1.906486388,0.00452,3.654302942,
0.00454,-1.541056094,0.00454,4.750593824,
0.00456,-2.637346976,0.00456,4.019733236,
0.00458,-1.541056094,0.00458,4.019733236,
0.0046,-0.07933491686,0.0046,4.750593824,
0.00462,0.2860953773,0.00462,4.019733236,
0.00464,0.6515256715,0.00464,4.019733236,
0.00466,-0.07933491686,0.00466,4.019733236,
0.00468,0.2860953773,0.00468,4.019733236,
0.0047,-0.07933491686,0.0047,4.019733236,
0.00472,2.478677142,0.00472,4.38516353,
0.00474,2.478677142,0.00474,4.019733236,
0.00476,2.844107437,0.00476,4.019733236,
0.00478,1.747816554,0.00478,4.38516353,
0.0048,4.305828613,0.0048,4.019733236,
0.00482,3.209537731,0.00482,3.288872648,
0.00484,3.574968025,0.00484,4.38516353,
0.00486,3.209537731,0.00486,4.019733236,
0.00488,3.940398319,0.00488,3.288872648,
0.0049,4.671258907,0.0049,4.38516353,
0.00492,3.209537731,0.00492,4.38516353,
0.00494,3.940398319,0.00494,3.654302942,
0.00496,3.209537731,0.00496,4.019733236,
0.00498,2.844107437,0.00498,4.38516353,
0.005,1.747816554,0.005,4.019733236,
0.00502,1.747816554,0.00502,4.38516353,
0.00504,4.305828613,0.00504,4.38516353,
0.00506,0.2860953773,0.00506,3.654302942,
0.00508,-0.8101955052,0.00508,3.288872648,
0.0051,-1.541056094,0.0051,4.38516353,
0.00512,-0.07933491686,0.00512,4.019733236,
0.00514,-1.175625799,0.00514,4.38516353,
0.00516,-1.175625799,0.00516,4.38516353,
0.00518,-3.733637859,0.00518,4.38516353,
0.0052,-2.637346976,0.0052,4.38516353,
0.00522,-3.733637859,0.00522,4.38516353,
0.00524,-2.271916682,0.00524,3.654302942,
0.00526,-1.906486388,0.00526,4.019733236,
0.00528,-2.637346976,0.00528,4.38516353,
0.0053,-2.271916682,0.0053,4.019733236,
0.00532,-2.637346976,0.00532,4.38516353,
0.00534,-3.368207564,0.00534,4.019733236,
0.00536,-4.464498447,0.00536,4.019733236,
0.00538,-2.637346976,0.00538,5.116024118,
0.0054,-2.637346976,0.0054,4.019733236,
0.00542,-3.368207564,0.00542,4.019733236,
0.00544,-1.906486388,0.00544,4.019733236,
0.00546,-1.541056094,0.00546,4.38516353,
0.00548,-1.541056094,0.00548,4.019733236,
0.0055,-0.444765211,0.0055,4.019733236,
0.00552,-0.444765211,0.00552,4.38516353,
0.00554,-0.444765211,0.00554,3.288872648,
0.00556,1.747816554,0.00556,4.019733236,
0.00558,1.747816554,0.00558,4.38516353,
0.0056,0.6515256715,0.0056,3.654302942,
0.00562,-0.07933491686,0.00562,4.019733236,
0.00564,-0.8101955052,0.00564,4.019733236,
0.00566,2.478677142,0.00566,4.019733236,
0.00568,3.209537731,0.00568,4.38516353,
0.0057,2.478677142,0.0057,3.654302942,
0.00572,2.844107437,0.00572,3.654302942,
0.00574,3.574968025,0.00574,4.750593824,
0.00576,3.574968025,0.00576,4.019733236,
0.00578,3.940398319,0.00578,4.019733236,
0.0058,5.402119496,0.0058,4.38516353,
0.00582,2.478677142,0.00582,4.38516353,
0.00584,3.209537731,0.00584,4.019733236,
0.00586,3.574968025,0.00586,4.38516353,
0.00588,4.305828613,0.00588,4.019733236,
0.0059,2.844107437,0.0059,3.288872648,
0.00592,1.016955966,0.00592,4.38516353,
0.00594,2.113246848,0.00594,4.019733236,
0.00596,2.844107437,0.00596,5.116024118,
0.00598,0.2860953773,0.00598,4.019733236,
0.006,0.6515256715,0.006,4.38516353,
0.00602,-0.07933491686,0.00602,5.116024118,
0.00604,-2.271916682,0.00604,4.38516353,
0.00606,-1.906486388,0.00606,4.750593824,
0.00608,-1.541056094,0.00608,4.38516353,
0.0061,-3.00277727,0.0061,4.019733236,
0.00612,-1.906486388,0.00612,4.019733236,
0.00614,-2.271916682,0.00614,5.116024118,
0.00616,-2.637346976,0.00616,4.38516353,
0.00618,-3.368207564,0.00618,4.019733236,
0.0062,-3.733637859,0.0062,4.38516353,
0.00622,-3.368207564,0.00622,4.019733236,
0.00624,-3.733637859,0.00624,4.019733236,
0.00626,-3.733637859,0.00626,4.38516353,
0.00628,-3.368207564,0.00628,4.019733236,
0.0063,-2.637346976,0.0063,4.750593824,
0.00632,-3.733637859,0.00632,4.750593824,
0.00634,-3.368207564,0.00634,5.116024118,
0.00636,-3.00277727,0.00636,4.019733236,
0.00638,-1.906486388,0.00638,4.38516353,
0.0064,-1.541056094,0.0064,3.654302942,
0.00642,-0.444765211,0.00642,4.019733236,
0.00644,-1.541056094,0.00644,4.019733236,
0.00646,-1.541056094,0.00646,4.019733236,
0.00648,-0.07933491686,0.00648,4.38516353,
0.0065,-0.444765211,0.0065,2.558012059,
0.00652,-1.175625799,0.00652,4.019733236,
0.00654,1.016955966,0.00654,4.750593824,
0.00656,2.113246848,0.00656,4.38516353,
0.00658,1.747816554,0.00658,4.38516353,
0.0066,2.478677142,0.0066,5.481454413,
0.00662,2.844107437,0.00662,4.38516353,
0.00664,3.209537731,0.00664,4.38516353,
0.00666,3.574968025,0.00666,4.38516353,
0.00668,4.305828613,0.00668,4.019733236,
0.0067,3.574968025,0.0067,5.846884707,
0.00672,3.574968025,0.00672,4.38516353,
0.00674,3.940398319,0.00674,4.750593824,
0.00676,3.574968025,0.00676,3.654302942,
0.00678,2.113246848,0.00678,4.38516353,
0.0068,4.305828613,0.0068,4.38516353,
0.00682,2.113246848,0.00682,4.750593824,
0.00684,3.209537731,0.00684,5.116024118,
0.00686,3.209537731,0.00686,4.38516353,
0.00688,3.209537731,0.00688,4.38516353,
0.0069,2.478677142,0.0069,4.019733236,
0.00692,1.38238626,0.00692,4.38516353,
0.00694,1.016955966,0.00694,4.38516353,
0.00696,0.2860953773,0.00696,4.38516353,
0.00698,-1.906486388,0.00698,4.38516353,
0.007,-0.8101955052,0.007,4.38516353,
0.00702,-1.906486388,0.00702,4.019733236,
0.00704,-1.541056094,0.00704,4.38516353,
0.00706,-3.00277727,0.00706,4.019733236,
0.00708,-1.906486388,0.00708,4.019733236,
0.0071,-3.00277727,0.0071,4.750593824,
0.00712,-4.464498447,0.00712,3.654302942,
0.00714,-0.8101955052,0.00714,4.750593824,
0.00716,-2.637346976,0.00716,4.38516353,
0.00718,-4.099068153,0.00718,3.654302942,
0.0072,-3.368207564,0.0072,3.288872648,
0.00722,-4.464498447,0.00722,4.38516353,
0.00724,-3.733637859,0.00724,4.019733236,
0.00726,-2.637346976,0.00726,4.38516353,
0.00728,-1.906486388,0.00728,4.750593824,
0.0073,-4.099068153,0.0073,4.019733236,
0.00732,-0.8101955052,0.00732,4.750593824,
0.00734,-1.541056094,0.00734,4.750593824,
0.00736,-3.733637859,0.00736,3.654302942,
0.00738,-0.8101955052,0.00738,4.38516353,
0.0074,-0.444765211,0.0074,5.846884707,
0.00742,-0.07933491686,0.00742,3.654302942,
0.00744,-0.07933491686,0.00744,4.38516353,
0.00746,1.38238626,0.00746,4.38516353,
0.00748,1.38238626,0.00748,4.019733236,
0.0075,3.209537731,0.0075,4.750593824,
0.00752,1.747816554,0.00752,4.019733236,
0.00754,2.113246848,0.00754,3.654302942,
0.00756,3.940398319,0.00756,4.38516353,
0.00758,3.574968025,0.00758,4.019733236,
0.0076,3.209537731,0.0076,2.923442353,
0.00762,3.940398319,0.00762,4.38516353,
0.00764,2.844107437,0.00764,4.38516353,
0.00766,3.574968025,0.00766,3.288872648,
0.00768,3.940398319,0.00768,4.38516353,
0.0077,2.478677142,0.0077,3.288872648,
0.00772,3.574968025,0.00772,3.288872648,
0.00774,3.574968025,0.00774,4.38516353,
0.00776,2.844107437,0.00776,4.019733236,
0.00778,2.113246848,0.00778,4.019733236,
0.0078,2.478677142,0.0078,4.38516353,
0.00782,2.478677142,0.00782,4.019733236,
0.00784,1.016955966,0.00784,4.019733236,
0.00786,0.2860953773,0.00786,4.019733236,
0.00788,-0.444765211,0.00788,4.38516353,
0.0079,-0.8101955052,0.0079,4.38516353,
0.00792,-0.8101955052,0.00792,4.38516353,
0.00794,-1.541056094,0.00794,4.019733236,
0.00796,-2.271916682,0.00796,4.019733236,
0.00798,-1.906486388,0.00798,4.38516353,
0.008,-1.541056094,0.008,3.654302942,
0.00802,-3.00277727,0.00802,3.654302942,
0.00804,-4.099068153,0.00804,4.019733236,
0.00806,-2.637346976,0.00806,4.750593824,
0.00808,-4.099068153,0.00808,3.654302942,
0.0081,-3.00277727,0.0081,4.019733236,
0.00812,-1.541056094,0.00812,4.38516353,
0.00814,-5.195359035,0.00814,4.38516353,
0.00816,-3.733637859,0.00816,4.019733236,
0.00818,-3.733637859,0.00818,4.38516353,
0.0082,-3.368207564,0.0082,4.019733236,
0.00822,-2.637346976,0.00822,4.019733236,
0.00824,-4.099068153,0.00824,4.38516353,
0.00826,-1.906486388,0.00826,4.750593824,
0.00828,-1.541056094,0.00828,4.019733236,
0.0083,-0.8101955052,0.0083,4.38516353,
0.00832,-0.8101955052,0.00832,4.019733236,
0.00834,-1.541056094,0.00834,4.019733236,
0.00836,0.6515256715,0.00836,4.019733236,
0.00838,-0.444765211,0.00838,4.019733236,
0.0084,2.113246848,0.0084,4.750593824,
0.00842,2.844107437,0.00842,4.019733236,
0.00844,1.38238626,0.00844,4.38516353,
0.00846,0.6515256715,0.00846,4.38516353,
0.00848,2.844107437,0.00848,4.38516353,
0.0085,2.844107437,0.0085,3.654302942,
0.00852,2.113246848,0.00852,4.38516353,
0.00854,3.574968025,0.00854,4.019733236,
0.00856,2.844107437,0.00856,3.654302942,
0.00858,5.036689202,0.00858,4.38516353,
0.0086,3.209537731,0.0086,4.019733236,
0.00862,4.305828613,0.00862,3.654302942,
0.00864,5.036689202,0.00864,4.38516353,
0.00866,3.940398319,0.00866,4.019733236,
0.00868,2.844107437,0.00868,4.019733236,
0.0087,1.38238626,0.0087,4.38516353,
0.00872,2.478677142,0.00872,4.38516353,
0.00874,2.113246848,0.00874,3.288872648,
0.00876,1.747816554,0.00876,4.38516353,
0.00878,-0.444765211,0.00878,4.38516353,
0.0088,0.6515256715,0.0088,4.019733236,
0.00882,-0.444765211,0.00882,4.38516353,
0.00884,-1.906486388,0.00884,4.019733236,
0.00886,-0.8101955052,0.00886,4.019733236,
0.00888,-1.906486388,0.00888,4.38516353,
0.0089,-1.175625799,0.0089,4.019733236,
0.00892,-2.271916682,0.00892,3.654302942,
0.00894,-3.00277727,0.00894,4.38516353,
0.00896,-2.271916682,0.00896,4.38516353,
0.00898,-3.00277727,0.00898,4.38516353,
0.009,-5.560789329,0.009,4.750593824,
0.00902,-3.00277727,0.00902,4.38516353,
0.00904,-3.368207564,0.00904,4.750593824,
0.00906,-4.829928741,0.00906,4.38516353,
0.00908,-2.271916682,0.00908,4.38516353,
0.0091,-2.637346976,0.0091,4.38516353,
0.00912,-3.733637859,0.00912,4.38516353,
0.00914,-1.541056094,0.00914,4.019733236,
0.00916,-2.637346976,0.00916,5.116024118,
0.00918,-3.733637859,0.00918,4.019733236,
0.0092,-2.271916682,0.0092,4.38516353,
0.00922,-0.8101955052,0.00922,5.116024118,
0.00924,-1.906486388,0.00924,4.38516353,
0.00926,-0.444765211,0.00926,4.019733236,
0.00928,0.2860953773,0.00928,5.116024118,
0.0093,0.6515256715,0.0093,4.38516353,
0.00932,2.113246848,0.00932,4.019733236,
0.00934,2.478677142,0.00934,5.116024118,
0.00936,0.6515256715,0.00936,5.116024118,
0.00938,4.305828613,0.00938,4.019733236,
0.0094,2.478677142,0.0094,4.38516353,
0.00942,2.844107437,0.00942,4.019733236,
0.00944,2.844107437,0.00944,4.019733236,
0.00946,2.844107437,0.00946,4.750593824,
0.00948,2.478677142,0.00948,4.38516353,
0.0095,2.478677142,0.0095,4.019733236,
0.00952,2.844107437,0.00952,5.116024118,
0.00954,2.478677142,0.00954,4.019733236,
0.00956,2.478677142,0.00956,4.019733236,
0.00958,3.574968025,0.00958,4.750593824,
0.0096,3.209537731,0.0096,4.38516353,
0.00962,3.209537731,0.00962,4.019733236,
0.00964,1.016955966,0.00964,4.750593824,
0.00966,1.016955966,0.00966,4.38516353,
0.00968,1.747816554,0.00968,3.654302942,
0.0097,0.2860953773,0.0097,4.750593824,
0.00972,-0.07933491686,0.00972,4.38516353,
0.00974,-0.8101955052,0.00974,4.38516353,
0.00976,-0.07933491686,0.00976,4.750593824,
0.00978,-0.444765211,0.00978,4.38516353,
0.0098,-2.271916682,0.0098,4.019733236,
0.00982,-1.541056094,0.00982,4.38516353,
0.00984,-1.906486388,0.00984,4.38516353,
0.00986,-0.07933491686,0.00986,4.019733236,
0.00988,-2.637346976,0.00988,5.116024118,
0.0099,-2.637346976,0.0099,5.116024118,
0.00992,-4.464498447,0.00992,4.750593824,
0.00994,-3.00277727,0.00994,4.750593824,
0.00996,-2.271916682,0.00996,4.38516353,
0.00998,-3.733637859,0.00998,4.019733236,
0.01,-2.637346976,0.01,5.116024118,
0.01002,-4.464498447,0.01002,4.38516353,
0.01004,-3.368207564,0.01004,4.38516353,
0.01006,-3.733637859,0.01006,5.116024118,
0.01008,-2.637346976,0.01008,4.38516353,
0.0101,-3.368207564,0.0101,4.019733236,
0.01012,-2.271916682,0.01012,3.654302942,
0.01014,-0.444765211,0.01014,4.38516353,
0.01016,-1.906486388,0.01016,4.019733236,
0.01018,-0.8101955052,0.01018,5.116024118,
0.0102,-0.8101955052,0.0102,4.750593824,
0.01022,0.2860953773,0.01022,4.019733236,
0.01024,-1.175625799,0.01024,4.750593824,
0.01026,0.6515256715,0.01026,4.019733236,
0.01028,0.6515256715,0.01028,4.38516353,
0.0103,1.747816554,0.0103,4.38516353,
0.01032,1.747816554,0.01032,5.481454413,
0.01034,3.209537731,0.01034,4.38516353,
0.01036,3.209537731,0.01036,4.750593824,
0.01038,3.209537731,0.01038,4.38516353,
0.0104,2.478677142,0.0104,4.38516353,
0.01042,3.574968025,0.01042,4.750593824,
0.01044,3.574968025,0.01044,4.750593824,
0.01046,2.844107437,0.01046,4.019733236,
0.01048,3.940398319,0.01048,4.750593824,
0.0105,3.574968025,0.0105,4.38516353,
0.01052,3.209537731,0.01052,3.288872648,
0.01054,3.209537731,0.01054,4.750593824,
0.01056,2.478677142,0.01056,4.38516353,
0.01058,1.016955966,0.01058,4.019733236,
0.0106,1.747816554,0.0106,4.38516353,
0.01062,1.38238626,0.01062,5.116024118,
0.01064,0.6515256715,0.01064,4.019733236,
0.01066,0.2860953773,0.01066,4.750593824,
0.01068,-0.444765211,0.01068,4.38516353,
0.0107,-0.8101955052,0.0107,4.750593824,
0.01072,-1.906486388,0.01072,5.481454413,
0.01074,0.6515256715,0.01074,4.38516353,
0.01076,-1.906486388,0.01076,4.38516353,
0.01078,-2.637346976,0.01078,4.38516353,
0.0108,-2.271916682,0.0108,4.019733236,
0.01082,-2.271916682,0.01082,3.654302942,
0.01084,-4.099068153,0.01084,4.38516353,
0.01086,-3.00277727,0.01086,4.019733236,
0.01088,-3.00277727,0.01088,4.750593824,
0.0109,-3.368207564,0.0109,4.750593824,
0.01092,-2.637346976,0.01092,5.116024118,
0.01094,-3.368207564,0.01094,4.38516353,
0.01096,-4.099068153,0.01096,4.750593824,
0.01098,-2.637346976,0.01098,4.019733236,
0.011,-3.733637859,0.011,4.38516353,
0.01102,-2.637346976,0.01102,4.019733236,
0.01104,-0.8101955052,0.01104,4.019733236,
0.01106,-3.368207564,0.01106,4.38516353,
0.01108,-4.829928741,0.01108,4.38516353,
0.0111,-2.271916682,0.0111,4.019733236,
0.01112,-0.444765211,0.01112,4.019733236,
0.01114,-2.271916682,0.01114,4.750593824,
0.01116,1.747816554,0.01116,4.38516353,
0.01118,0.6515256715,0.01118,4.750593824,
0.0112,1.38238626,0.0112,4.019733236,
0.01122,1.747816554,0.01122,4.38516353,
0.01124,2.478677142,0.01124,4.750593824,
0.01126,1.38238626,0.01126,4.38516353,
0.01128,3.209537731,0.01128,4.019733236,
0.0113,2.478677142,0.0113,4.750593824,
0.01132,3.574968025,0.01132,4.750593824,
0.01134,7.229270967,0.01134,4.38516353,
0.01136,5.036689202,0.01136,4.750593824,
0.01138,2.113246848,0.01138,4.38516353,
0.0114,4.305828613,0.0114,4.38516353,
0.01142,4.671258907,0.01142,4.38516353,
0.01144,2.478677142,0.01144,4.38516353,
0.01146,2.844107437,0.01146,4.38516353,
0.01148,2.844107437,0.01148,5.846884707,
0.0115,1.747816554,0.0115,3.654302942,
0.01152,2.478677142,0.01152,3.654302942,
0.01154,1.747816554,0.01154,4.38516353,
0.01156,2.478677142,0.01156,4.019733236,
0.01158,0.2860953773,0.01158,4.019733236,
0.0116,0.2860953773,0.0116,4.38516353,
0.01162,0.2860953773,0.01162,4.750593824,
0.01164,0.6515256715,0.01164,4.750593824,
0.01166,-0.8101955052,0.01166,4.019733236,
0.01168,-1.541056094,0.01168,4.019733236,
0.0117,-1.541056094,0.0117,3.654302942,
0.01172,-3.733637859,0.01172,4.38516353,
0.01174,-2.271916682,0.01174,4.38516353,
0.01176,-2.271916682,0.01176,4.38516353,
0.01178,-2.637346976,0.01178,4.38516353,
0.0118,-3.00277727,0.0118,4.38516353,
0.01182,-3.368207564,0.01182,4.38516353,
0.01184,-4.829928741,0.01184,4.38516353,
0.01186,-1.541056094,0.01186,4.750593824,
0.01188,-2.637346976,0.01188,3.654302942,
0.0119,-3.00277727,0.0119,4.750593824,
0.01192,-1.906486388,0.01192,4.38516353,
0.01194,-2.637346976,0.01194,3.654302942,
0.01196,-1.541056094,0.01196,4.019733236,
0.01198,-1.541056094,0.01198,4.019733236,
0.012,-3.00277727,0.012,3.654302942,
0.01202,-0.8101955052,0.01202,4.019733236,
0.01204,3.209537731,0.01204,4.38516353,
0.01206,-0.8101955052,0.01206,3.288872648,
0.01208,-0.444765211,0.01208,4.38516353,
0.0121,0.6515256715,0.0121,4.019733236,
0.01212,1.38238626,0.01212,3.654302942,
0.01214,2.113246848,0.01214,4.019733236,
0.01216,1.747816554,0.01216,4.38516353,
0.01218,1.016955966,0.01218,4.019733236,
0.0122,2.113246848,0.0122,4.019733236,
0.01222,3.209537731,0.01222,4.019733236,
0.01224,1.38238626,0.01224,3.654302942,
0.01226,3.940398319,0.01226,4.750593824,
0.01228,4.305828613,0.01228,4.38516353,
0.0123,2.844107437,0.0123,4.019733236,
0.01232,3.574968025,0.01232,4.38516353,
0.01234,3.940398319,0.01234,4.38516353,
0.01236,2.844107437,0.01236,4.019733236,
0.01238,3.574968025,0.01238,4.38516353,
0.0124,2.844107437,0.0124,4.019733236,
0.01242,3.574968025,0.01242,3.654302942,
0.01244,5.036689202,0.01244,4.38516353,
0.01246,3.574968025,0.01246,4.750593824,
0.01248,2.844107437,0.01248,3.654302942,
0.0125,1.38238626,0.0125,4.38516353,
0.01252,0.6515256715,0.01252,4.38516353,
0.01254,0.2860953773,0.01254,4.019733236,
0.01256,0.2860953773,0.01256,4.019733236,
0.01258,-0.8101955052,0.01258,4.019733236,
0.0126,-0.8101955052,0.0126,4.750593824,
0.01262,-1.175625799,0.01262,4.019733236,
0.01264,-0.444765211,0.01264,4.38516353,
0.01266,-2.637346976,0.01266,3.654302942,
0.01268,-1.541056094,0.01268,4.019733236,
0.0127,-3.00277727,0.0127,4.38516353,
0.01272,-3.733637859,0.01272,3.654302942,
0.01274,-3.368207564,0.01274,4.38516353,
0.01276,-3.368207564,0.01276,4.38516353,
0.01278,-4.099068153,0.01278,4.019733236,
0.0128,-2.271916682,0.0128,4.38516353,
0.01282,-3.368207564,0.01282,4.38516353,
0.01284,-4.099068153,0.01284,3.654302942,
0.01286,-3.00277727,0.01286,4.019733236,
0.01288,-3.733637859,0.01288,4.38516353,
0.0129,-2.271916682,0.0129,3.288872648,
0.01292,-1.541056094,0.01292,4.38516353,
0.01294,-1.906486388,0.01294,4.38516353,
0.01296,-0.8101955052,0.01296,4.019733236,
0.01298,1.016955966,0.01298,4.019733236,
0.013,-0.07933491686,0.013,4.38516353,
0.01302,0.2860953773,0.01302,4.019733236,
0.01304,1.747816554,0.01304,4.019733236,
0.01306,1.016955966,0.01306,4.38516353,
0.01308,0.6515256715,0.01308,3.654302942,
0.0131,2.113246848,0.0131,4.38516353,
0.01312,3.209537731,0.01312,4.019733236,
0.01314,2.113246848,0.01314,4.019733236,
0.01316,3.574968025,0.01316,4.38516353,
0.01318,5.036689202,0.01318,4.38516353,
0.0132,4.305828613,0.0132,4.019733236,
0.01322,3.574968025,0.01322,4.38516353,
0.01324,2.113246848,0.01324,4.38516353,
0.01326,3.574968025,0.01326,4.019733236,
0.01328,4.305828613,0.01328,4.38516353,
0.0133,3.940398319,0.0133,4.019733236,
0.01332,4.671258907,0.01332,4.019733236,
0.01334,3.940398319,0.01334,4.019733236,
0.01336,3.209537731,0.01336,4.38516353,
0.01338,2.844107437,0.01338,4.019733236,
0.0134,2.478677142,0.0134,4.019733236,
0.01342,0.2860953773,0.01342,4.38516353,
0.01344,1.747816554,0.01344,4.750593824,
0.01346,0.2860953773,0.01346,4.38516353,
0.01348,-0.444765211,0.01348,4.019733236,
0.0135,-0.07933491686,0.0135,4.019733236,
0.01352,-0.8101955052,0.01352,4.38516353,
0.01354,-1.541056094,0.01354,2.923442353,
0.01356,-2.271916682,0.01356,4.019733236,
0.01358,-3.00277727,0.01358,4.750593824,
0.0136,-3.368207564,0.0136,4.019733236,
0.01362,-2.637346976,0.01362,3.654302942,
0.01364,-3.00277727,0.01364,4.38516353,
0.01366,-2.637346976,0.01366,5.116024118,
0.01368,-3.368207564,0.01368,3.654302942,
0.0137,-3.368207564,0.0137,4.38516353,
0.01372,-3.368207564,0.01372,4.38516353,
0.01374,-4.099068153,0.01374,5.846884707,
0.01376,-2.637346976,0.01376,4.38516353,
0.01378,-3.00277727,0.01378,4.38516353,
0.0138,-4.099068153,0.0138,3.654302942,
0.01382,-2.271916682,0.01382,4.38516353,
0.01384,-1.906486388,0.01384,4.019733236,
0.01386,-1.541056094,0.01386,3.654302942,
0.01388,-0.8101955052,0.01388,4.38516353,
0.0139,-0.444765211,0.0139,4.38516353,
0.01392,-0.8101955052,0.01392,4.019733236,
0.01394,0.6515256715,0.01394,2.558012059,
0.01396,1.016955966,0.01396,4.38516353,
0.01398,-1.541056094,0.01398,4.019733236,
0.014,1.38238626,0.014,4.38516353,
0.01402,1.016955966,0.01402,4.38516353,
0.01404,1.016955966,0.01404,4.750593824,
0.01406,2.478677142,0.01406,4.750593824,
0.01408,1.747816554,0.01408,4.019733236,
0.0141,1.747816554,0.0141,4.38516353,
0.01412,3.574968025,0.01412,4.38516353,
0.01414,1.747816554,0.01414,5.116024118,
0.01416,1.747816554,0.01416,4.019733236,
0.01418,2.113246848,0.01418,4.38516353,
0.0142,3.940398319,0.0142,4.38516353,
0.01422,1.38238626,0.01422,4.019733236,
0.01424,3.209537731,0.01424,2.923442353,
0.01426,2.844107437,0.01426,4.019733236,
0.01428,1.38238626,0.01428,3.654302942,
0.0143,2.113246848,0.0143,4.750593824,
0.01432,2.844107437,0.01432,4.38516353,
0.01434,2.844107437,0.01434,3.288872648,
0.01436,2.478677142,0.01436,4.38516353,
0.01438,1.016955966,0.01438,4.750593824,
0.0144,-0.07933491686,0.0144,3.654302942,
0.01442,1.016955966,0.01442,4.38516353,
0.01444,0.6515256715,0.01444,5.116024118,
0.01446,-0.444765211,0.01446,4.019733236,
0.01448,-0.444765211,0.01448,4.38516353,
0.0145,-2.271916682,0.0145,4.38516353,
0.01452,-3.00277727,0.01452,4.019733236,
0.01454,-1.175625799,0.01454,6.212315001,
0.01456,-3.368207564,0.01456,4.750593824,
0.01458,-3.733637859,0.01458,4.019733236,
0.0146,-2.637346976,0.0146,4.750593824,
0.01462,-4.099068153,0.01462,4.38516353,
0.01464,-3.368207564,0.01464,3.288872648,
0.01466,-3.733637859,0.01466,4.38516353,
0.01468,-4.099068153,0.01468,4.38516353,
0.0147,-3.368207564,0.0147,4.019733236,
0.01472,-2.637346976,0.01472,4.38516353,
0.01474,-4.099068153,0.01474,3.654302942,
0.01476,-2.637346976,0.01476,4.019733236,
0.01478,-0.8101955052,0.01478,4.750593824,
0.0148,-1.175625799,0.0148,4.019733236,
0.01482,-1.175625799,0.01482,4.38516353,
0.01484,-1.175625799,0.01484,5.481454413,
0.01486,-0.07933491686,0.01486,4.019733236,
0.01488,-0.444765211,0.01488,4.38516353,
0.0149,1.747816554,0.0149,5.116024118,
0.01492,0.6515256715,0.01492,4.38516353,
0.01494,1.747816554,0.01494,4.019733236,
0.01496,0.2860953773,0.01496,4.750593824,
0.01498,1.38238626,0.01498,4.019733236,
0.015,2.478677142,0.015,4.019733236,
0.01502,3.574968025,0.01502,4.38516353,
0.01504,3.209537731,0.01504,3.654302942,
0.01506,4.305828613,0.01506,4.019733236,
0.01508,5.402119496,0.01508,4.750593824,
0.0151,5.036689202,0.0151,4.38516353,
0.01512,5.402119496,0.01512,4.019733236,
0.01514,3.574968025,0.01514,4.750593824,
0.01516,4.671258907,0.01516,4.019733236,
0.01518,4.305828613,0.01518,4.019733236,
0.0152,3.209537731,0.0152,4.750593824,
0.01522,2.478677142,0.01522,4.38516353,
0.01524,1.747816554,0.01524,4.38516353,
0.01526,1.747816554,0.01526,4.750593824,
0.01528,1.38238626,0.01528,4.38516353,
0.0153,0.6515256715,0.0153,4.38516353,
0.01532,0.2860953773,0.01532,4.38516353,
0.01534,-0.444765211,0.01534,5.116024118,
0.01536,-1.541056094,0.01536,3.288872648,
0.01538,-0.444765211,0.01538,4.750593824,
0.0154,-0.444765211,0.0154,4.38516353,
0.01542,-1.541056094,0.01542,4.019733236,
0.01544,-0.8101955052,0.01544,4.750593824,
0.01546,-3.00277727,0.01546,4.38516353,
0.01548,-4.464498447,0.01548,4.019733236,
0.0155,-2.637346976,0.0155,5.116024118,
0.01552,-3.733637859,0.01552,4.38516353,
0.01554,-3.733637859,0.01554,4.38516353,
0.01556,-2.637346976,0.01556,4.38516353,
0.01558,-4.099068153,0.01558,4.38516353,
0.0156,-3.368207564,0.0156,3.654302942,
0.01562,-4.099068153,0.01562,4.38516353,
0.01564,-3.368207564,0.01564,4.019733236,
0.01566,-3.00277727,0.01566,4.019733236,
0.01568,-2.271916682,0.01568,4.38516353,
0.0157,-3.368207564,0.0157,4.38516353,
0.01572,-2.637346976,0.01572,4.019733236,
0.01574,-1.175625799,0.01574,4.019733236,
0.01576,-2.271916682,0.01576,4.019733236,
0.01578,-1.541056094,0.01578,4.38516353,
0.0158,-0.444765211,0.0158,4.38516353,
0.01582,-0.444765211,0.01582,4.019733236,
0.01584,-0.07933491686,0.01584,3.654302942,
0.01586,0.6515256715,0.01586,4.750593824,
0.01588,1.747816554,0.01588,3.654302942,
0.0159,1.016955966,0.0159,4.019733236,
0.01592,3.209537731,0.01592,4.750593824,
0.01594,1.747816554,0.01594,4.38516353,
0.01596,3.209537731,0.01596,4.019733236,
0.01598,3.574968025,0.01598,4.750593824,
0.016,3.574968025,0.016,3.654302942,
0.01602,4.671258907,0.01602,4.38516353,
0.01604,2.478677142,0.01604,4.38516353,
0.01606,3.940398319,0.01606,4.019733236,
0.01608,3.209537731,0.01608,4.019733236,
0.0161,2.844107437,0.0161,4.750593824,
0.01612,3.209537731,0.01612,4.019733236,
0.01614,2.844107437,0.01614,4.38516353,
0.01616,3.209537731,0.01616,4.38516353,
0.01618,1.38238626,0.01618,4.019733236,
0.0162,1.38238626,0.0162,4.019733236,
0.01622,1.747816554,0.01622,5.116024118,
0.01624,-0.07933491686,0.01624,4.38516353,
0.01626,-0.444765211,0.01626,4.019733236,
0.01628,1.016955966,0.01628,4.750593824,
0.0163,-1.175625799,0.0163,3.654302942,
0.01632,-1.541056094,0.01632,4.019733236,
0.01634,0.2860953773,0.01634,4.750593824,
0.01636,-1.906486388,0.01636,4.019733236,
0.01638,-2.271916682,0.01638,4.019733236,
0.0164,-2.271916682,0.0164,5.116024118,
0.01642,-3.00277727,0.01642,4.38516353,
0.01644,-3.733637859,0.01644,4.019733236,
0.01646,-2.637346976,0.01646,4.38516353,
0.01648,-3.368207564,0.01648,4.019733236,
0.0165,-2.637346976,0.0165,4.38516353,
0.01652,-4.099068153,0.01652,4.38516353,
0.01654,-3.368207564,0.01654,4.38516353,
0.01656,-3.368207564,0.01656,4.019733236,
0.01658,-3.00277727,0.01658,4.750593824,
0.0166,-2.637346976,0.0166,4.38516353,
0.01662,-2.271916682,0.01662,4.019733236,
0.01664,-1.906486388,0.01664,5.116024118,
0.01666,-2.271916682,0.01666,5.116024118,
0.01668,-3.00277727,0.01668,4.38516353,
0.0167,1.016955966,0.0167,4.750593824,
0.01672,1.016955966,0.01672,4.019733236,
0.01674,3.940398319,0.01674,4.019733236,
0.01676,-0.444765211,0.01676,4.750593824,
0.01678,0.2860953773,0.01678,4.38516353,
0.0168,-0.07933491686,0.0168,4.019733236,
0.01682,2.113246848,0.01682,4.750593824,
0.01684,2.844107437,0.01684,4.38516353,
0.01686,2.478677142,0.01686,4.38516353,
0.01688,1.016955966,0.01688,4.750593824,
0.0169,3.209537731,0.0169,4.019733236,
0.01692,4.671258907,0.01692,4.38516353,
0.01694,3.940398319,0.01694,4.38516353,
0.01696,3.574968025,0.01696,4.019733236,
0.01698,3.574968025,0.01698,4.38516353,
0.017,2.113246848,0.017,4.019733236,
0.01702,3.940398319,0.01702,4.750593824,
0.01704,1.38238626,0.01704,4.38516353,
0.01706,2.478677142,0.01706,4.38516353,
0.01708,2.478677142,0.01708,4.750593824,
0.0171,1.38238626,0.0171,4.38516353,
0.01712,2.844107437,0.01712,4.38516353,
0.01714,1.38238626,0.01714,5.116024118,
0.01716,1.016955966,0.01716,4.750593824,
0.01718,1.747816554,0.01718,4.019733236,
0.0172,0.6515256715,0.0172,5.116024118,
0.01722,-1.906486388,0.01722,4.38516353,
0.01724,-0.444765211,0.01724,4.38516353,
0.01726,-1.906486388,0.01726,4.750593824,
0.01728,-1.541056094,0.01728,4.019733236,
0.0173,-2.637346976,0.0173,4.019733236,
0.01732,-3.368207564,0.01732,5.116024118,
0.01734,-3.733637859,0.01734,4.38516353,
0.01736,-4.464498447,0.01736,3.288872648,
0.01738,-4.099068153,0.01738,4.38516353,
0.0174,-3.00277727,0.0174,4.019733236,
0.01742,-3.733637859,0.01742,5.116024118,
0.01744,-3.00277727,0.01744,4.38516353,
0.01746,-3.733637859,0.01746,4.750593824,
0.01748,-3.00277727,0.01748,4.38516353,
0.0175,-3.733637859,0.0175,4.38516353,
0.01752,-3.733637859,0.01752,4.38516353,
0.01754,-3.00277727,0.01754,4.750593824,
0.01756,-3.733637859,0.01756,3.288872648,
0.01758,-2.637346976,0.01758,4.38516353,
0.0176,-1.541056094,0.0176,4.750593824,
0.01762,-1.906486388,0.01762,4.019733236,
0.01764,-2.271916682,0.01764,4.38516353,
0.01766,-0.07933491686,0.01766,3.654302942,
0.01768,-0.07933491686,0.01768,4.38516353,
0.0177,0.2860953773,0.0177,4.750593824,
0.01772,-0.444765211,0.01772,4.750593824,
0.01774,0.6515256715,0.01774,4.38516353,
0.01776,1.38238626,0.01776,4.38516353,
0.01778,2.844107437,0.01778,4.750593824,
0.0178,2.478677142,0.0178,4.019733236,
0.01782,2.844107437,0.01782,4.38516353,
0.01784,5.402119496,0.01784,5.116024118,
0.01786,2.844107437,0.01786,4.750593824,
0.01788,2.478677142,0.01788,4.019733236,
0.0179,3.940398319,0.0179,4.750593824,
0.01792,3.574968025,0.01792,4.38516353,
0.01794,1.747816554,0.01794,3.654302942,
0.01796,3.940398319,0.01796,4.019733236,
0.01798,2.478677142,0.01798,4.019733236,
0.018,4.305828613,0.018,4.019733236,
0.01802,3.940398319,0.01802,5.116024118,
0.01804,2.113246848,0.01804,4.38516353,
0.01806,1.38238626,0.01806,4.750593824,
0.01808,1.747816554,0.01808,4.750593824,
0.0181,-0.07933491686,0.0181,4.019733236,
0.01812,1.016955966,0.01812,4.019733236,
0.01814,-0.07933491686,0.01814,4.750593824,
0.01816,-0.444765211,0.01816,4.019733236,
0.01818,-0.8101955052,0.01818,4.38516353,
0.0182,-1.175625799,0.0182,4.38516353,
0.01822,-1.906486388,0.01822,4.019733236,
0.01824,-1.906486388,0.01824,4.019733236,
0.01826,-2.637346976,0.01826,4.019733236,
0.01828,-3.733637859,0.01828,4.38516353,
0.0183,-2.271916682,0.0183,4.019733236,
0.01832,-4.099068153,0.01832,4.750593824,
0.01834,-3.733637859,0.01834,4.38516353,
0.01836,-4.829928741,0.01836,4.750593824,
0.01838,-4.829928741,0.01838,4.38516353,
0.0184,-4.099068153,0.0184,4.019733236,
0.01842,-4.099068153,0.01842,4.38516353,
0.01844,-3.00277727,0.01844,4.750593824,
0.01846,-3.733637859,0.01846,5.116024118,
0.01848,-1.906486388,0.01848,4.019733236,
0.0185,-2.637346976,0.0185,5.481454413,
0.01852,-3.00277727,0.01852,4.38516353,
0.01854,-3.368207564,0.01854,3.654302942,
0.01856,-1.541056094,0.01856,4.019733236,
0.01858,-1.175625799,0.01858,4.38516353,
0.0186,-1.175625799,0.0186,4.38516353,
0.01862,0.2860953773,0.01862,4.750593824,
0.01864,0.6515256715,0.01864,4.019733236,
0.01866,0.6515256715,0.01866,3.288872648,
0.01868,0.6515256715,0.01868,4.750593824,
0.0187,0.6515256715,0.0187,4.019733236,
0.01872,2.113246848,0.01872,4.38516353,
0.01874,2.844107437,0.01874,4.38516353,
0.01876,0.2860953773,0.01876,3.654302942,
0.01878,2.478677142,0.01878,4.019733236,
0.0188,3.940398319,0.0188,5.116024118,
0.01882,3.574968025,0.01882,4.38516353,
0.01884,3.574968025,0.01884,4.019733236,
0.01886,3.940398319,0.01886,5.116024118,
0.01888,3.940398319,0.01888,4.019733236,
0.0189,3.209537731,0.0189,4.019733236,
0.01892,3.574968025,0.01892,4.750593824,
0.01894,2.478677142,0.01894,4.019733236,
0.01896,3.940398319,0.01896,4.019733236,
0.01898,2.478677142,0.01898,4.750593824,
0.019,1.747816554,0.019,4.019733236,
0.01902,1.016955966,0.01902,4.019733236,
0.01904,1.016955966,0.01904,4.750593824,
0.01906,0.6515256715,0.01906,4.019733236,
0.01908,-0.8101955052,0.01908,4.019733236,
0.0191,-0.07933491686,0.0191,4.750593824,
0.01912,-1.541056094,0.01912,4.019733236,
0.01914,-3.00277727,0.01914,4.019733236,
0.01916,-1.541056094,0.01916,4.750593824,
0.01918,-0.8101955052,0.01918,4.019733236,
0.0192,-2.637346976,0.0192,4.750593824,
0.01922,-2.637346976,0.01922,4.38516353,
0.01924,-4.464498447,0.01924,4.019733236,
0.01926,-4.829928741,0.01926,3.654302942,
0.01928,-4.464498447,0.01928,4.750593824,
0.0193,-4.464498447,0.0193,4.38516353,
0.01932,-3.368207564,0.01932,4.019733236,
0.01934,-3.00277727,0.01934,4.750593824,
0.01936,-3.368207564,0.01936,4.750593824,
0.01938,-4.829928741,0.01938,4.38516353,
0.0194,-4.099068153,0.0194,4.750593824,
0.01942,-3.00277727,0.01942,4.750593824,
0.01944,-1.906486388,0.01944,4.750593824,
0.01946,-1.175625799,0.01946,4.750593824,
0.01948,-3.368207564,0.01948,4.019733236,
0.0195,-0.8101955052,0.0195,4.38516353,
0.01952,-1.175625799,0.01952,4.750593824,
0.01954,-1.175625799,0.01954,4.38516353,
0.01956,0.6515256715,0.01956,4.38516353,
0.01958,2.478677142,0.01958,4.38516353,
0.0196,-0.07933491686,0.0196,4.019733236,
0.01962,2.113246848,0.01962,4.38516353,
0.01964,2.478677142,0.01964,4.750593824,
0.01966,2.844107437,0.01966,4.38516353,
0.01968,2.844107437,0.01968,4.38516353,
0.0197,2.844107437,0.0197,4.750593824,
0.01972,3.209537731,0.01972,4.38516353,
0.01974,4.305828613,0.01974,4.38516353,
0.01976,1.747816554,0.01976,4.38516353,
0.01978,3.209537731,0.01978,4.750593824,
0.0198,3.574968025,0.0198,4.019733236,
0.01982,3.209537731,0.01982,4.38516353,
0.01984,2.844107437,0.01984,4.38516353,
0.01986,3.209537731,0.01986,4.38516353,
0.01988,3.574968025,0.01988,4.750593824,
0.0199,1.747816554,0.0199,4.750593824,
0.01992,2.478677142,0.01992,4.38516353,
0.01994,2.113246848,0.01994,4.38516353,
0.01996,1.016955966,0.01996,4.38516353,
0.01998,-0.444765211,0.01998,4.38516353,
0.02,1.016955966,0.02,4.750593824,
0.02002,-1.175625799,0.02002,4.019733236,
0.02004,-0.8101955052,0.02004,4.38516353,
0.02006,-0.8101955052,0.02006,4.750593824,
0.02008,-3.00277727,0.02008,4.750593824,
0.0201,-0.8101955052,0.0201,4.38516353,
0.02012,-1.175625799,0.02012,4.750593824,
0.02014,-2.637346976,0.02014,4.38516353,
0.02016,-2.637346976,0.02016,4.38516353,
0.02018,0.2860953773,0.02018,4.750593824,
0.0202,-5.926219624,0.0202,4.38516353,
0.02022,-3.368207564,0.02022,4.38516353,
0.02024,-3.733637859,0.02024,4.750593824,
0.02026,-4.464498447,0.02026,4.38516353,
0.02028,-2.271916682,0.02028,4.38516353,
0.0203,-2.637346976,0.0203,4.750593824,
0.02032,-3.00277727,0.02032,4.38516353,
0.02034,-1.906486388,0.02034,4.38516353,
0.02036,-2.271916682,0.02036,4.750593824,
0.02038,-2.271916682,0.02038,4.38516353,
0.0204,-1.906486388,0.0204,4.38516353,
0.02042,-1.541056094,0.02042,4.38516353,
0.02044,-1.175625799,0.02044,4.750593824,
0.02046,-0.444765211,0.02046,4.38516353,
0.02048,1.747816554,0.02048,4.38516353,
0.0205,0.2860953773,0.0205,4.38516353,
0.02052,1.38238626,0.02052,4.38516353,
0.02054,3.209537731,0.02054,4.750593824,
0.02056,1.747816554,0.02056,4.38516353,
0.02058,2.844107437,0.02058,4.38516353,
0.0206,2.844107437,0.0206,4.750593824,
0.02062,1.016955966,0.02062,4.38516353,
0.02064,4.305828613,0.02064,4.750593824,
0.02066,3.209537731,0.02066,4.38516353,
0.02068,3.940398319,0.02068,4.38516353,
0.0207,3.574968025,0.0207,4.38516353,
0.02072,3.209537731,0.02072,4.38516353,
0.02074,0.6515256715,0.02074,4.38516353,
0.02076,3.574968025,0.02076,4.38516353,
0.02078,2.844107437,0.02078,4.019733236,
0.0208,2.113246848,0.0208,4.38516353,
0.02082,3.574968025,0.02082,4.750593824,
0.02084,2.113246848,0.02084,4.38516353,
0.02086,1.016955966,0.02086,4.019733236,
0.02088,1.747816554,0.02088,4.38516353,
0.0209,1.747816554,0.0209,4.750593824,
0.02092,0.6515256715,0.02092,4.750593824,
0.02094,-0.8101955052,0.02094,4.38516353,
0.02096,-0.444765211,0.02096,4.750593824,
0.02098,-1.906486388,0.02098,4.750593824,
0.021,-1.175625799,0.021,4.019733236,
0.02102,-1.541056094,0.02102,4.38516353,
0.02104,-1.906486388,0.02104,4.38516353,
0.02106,-1.906486388,0.02106,4.38516353,
0.02108,-2.637346976,0.02108,4.38516353,
0.0211,-4.099068153,0.0211,4.750593824,
0.02112,-3.368207564,0.02112,4.750593824,
0.02114,-1.175625799,0.02114,4.38516353,
0.02116,-4.464498447,0.02116,5.116024118,
0.02118,-4.099068153,0.02118,4.750593824,
0.0212,-5.195359035,0.0212,3.654302942,
0.02122,-2.637346976,0.02122,4.750593824,
0.02124,-2.637346976,0.02124,4.750593824,
0.02126,-3.368207564,0.02126,3.654302942,
0.02128,-3.00277727,0.02128,5.116024118,
0.0213,-1.906486388,0.0213,4.38516353,
0.02132,-2.271916682,0.02132,3.654302942,
0.02134,-0.8101955052,0.02134,4.38516353,
0.02136,-1.175625799,0.02136,4.019733236,
0.02138,-1.906486388,0.02138,2.923442353,
0.0214,-0.8101955052,0.0214,4.38516353,
0.02142,0.6515256715,0.02142,4.019733236,
0.02144,0.6515256715,0.02144,4.019733236,
0.02146,2.478677142,0.02146,4.38516353,
0.02148,1.747816554,0.02148,2.923442353,
0.0215,2.113246848,0.0215,4.019733236,
0.02152,2.844107437,0.02152,4.38516353,
0.02154,2.113246848,0.02154,4.38516353,
0.02156,2.478677142,0.02156,4.019733236,
0.02158,3.209537731,0.02158,5.846884707,
0.0216,3.574968025,0.0216,4.38516353,
0.02162,3.574968025,0.02162,4.38516353,
0.02164,3.940398319,0.02164,5.116024118,
0.02166,4.305828613,0.02166,4.019733236,
0.02168,3.940398319,0.02168,2.923442353,
0.0217,3.209537731,0.0217,4.38516353,
0.02172,3.574968025,0.02172,4.019733236,
0.02174,3.574968025,0.02174,4.019733236,
0.02176,2.844107437,0.02176,4.38516353,
0.02178,4.671258907,0.02178,4.38516353,
0.0218,2.113246848,0.0218,4.38516353,
0.02182,2.113246848,0.02182,4.750593824,
0.02184,-0.07933491686,0.02184,4.750593824,
0.02186,1.747816554,0.02186,4.019733236,
0.02188,-1.175625799,0.02188,5.481454413,
0.0219,0.6515256715,0.0219,4.38516353,
0.02192,-2.271916682,0.02192,4.019733236,
0.02194,-1.541056094,0.02194,4.750593824,
0.02196,-1.541056094,0.02196,4.750593824,
0.02198,-3.368207564,0.02198,4.019733236,
0.022,-3.733637859,0.022,4.38516353,
0.02202,-2.637346976,0.02202,4.019733236,
0.02204,-3.00277727,0.02204,4.38516353,
0.02206,-3.00277727,0.02206,3.654302942,
0.02208,-3.368207564,0.02208,3.288872648,
0.0221,-2.271916682,0.0221,4.750593824,
0.02212,-3.733637859,0.02212,4.38516353,
0.02214,-3.00277727,0.02214,4.750593824,
0.02216,-4.099068153,0.02216,4.38516353,
0.02218,-3.00277727,0.02218,5.116024118,
0.0222,-2.637346976,0.0222,4.38516353,
0.02222,-2.271916682,0.02222,4.38516353,
0.02224,-2.637346976,0.02224,4.38516353,
0.02226,-2.271916682,0.02226,4.019733236,
0.02228,-0.8101955052,0.02228,5.116024118,
0.0223,-3.733637859,0.0223,4.38516353,
0.02232,-0.07933491686,0.02232,4.019733236,
0.02234,0.6515256715,0.02234,4.750593824,
0.02236,-1.541056094,0.02236,4.750593824,
0.02238,0.2860953773,0.02238,3.288872648,
0.0224,2.478677142,0.0224,4.750593824,
0.02242,1.38238626,0.02242,4.38516353,
0.02244,2.113246848,0.02244,4.750593824,
0.02246,3.574968025,0.02246,4.38516353,
0.02248,2.113246848,0.02248,4.750593824,
0.0225,3.940398319,0.0225,4.019733236,
0.02252,2.478677142,0.02252,4.019733236,
0.02254,2.478677142,0.02254,4.750593824,
0.02256,2.478677142,0.02256,4.019733236,
0.02258,4.305828613,0.02258,5.481454413,
0.0226,2.478677142,0.0226,4.38516353,
0.02262,4.671258907,0.02262,4.019733236,
0.02264,3.940398319,0.02264,4.750593824,
0.02266,3.209537731,0.02266,4.750593824,
0.02268,4.305828613,0.02268,4.019733236,
0.0227,2.478677142,0.0227,4.750593824,
0.02272,1.38238626,0.02272,4.38516353,
0.02274,2.113246848,0.02274,4.38516353,
0.02276,1.747816554,0.02276,4.019733236,
0.02278,0.6515256715,0.02278,4.38516353,
0.0228,1.016955966,0.0228,4.019733236,
0.02282,-0.07933491686,0.02282,3.654302942,
0.02284,-0.8101955052,0.02284,4.38516353,
0.02286,-3.00277727,0.02286,4.38516353,
0.02288,-2.637346976,0.02288,4.750593824,
0.0229,-2.271916682,0.0229,4.750593824,
0.02292,-1.906486388,0.02292,4.019733236,
0.02294,-3.00277727,0.02294,4.750593824,
0.02296,-3.368207564,0.02296,4.38516353,
0.02298,-3.368207564,0.02298,4.019733236,
0.023,-3.368207564,0.023,4.750593824,
0.02302,-2.637346976,0.02302,4.38516353,
0.02304,-5.195359035,0.02304,2.923442353,
0.02306,-3.733637859,0.02306,4.019733236,
0.02308,-4.464498447,0.02308,4.38516353,
0.0231,-3.733637859,0.0231,4.38516353,
0.02312,-2.271916682,0.02312,4.750593824,
0.02314,-3.368207564,0.02314,4.38516353,
0.02316,-3.368207564,0.02316,4.019733236,
0.02318,-2.271916682,0.02318,5.116024118,
0.0232,-4.829928741,0.0232,4.750593824,
0.02322,-0.8101955052,0.02322,4.750593824,
0.02324,-1.175625799,0.02324,4.38516353,
0.02326,-1.175625799,0.02326,4.38516353,
0.02328,0.6515256715,0.02328,4.38516353,
0.0233,1.016955966,0.0233,4.750593824,
0.02332,0.6515256715,0.02332,4.38516353,
0.02334,1.747816554,0.02334,4.750593824,
0.02336,1.38238626,0.02336,4.750593824,
0.02338,1.747816554,0.02338,4.750593824,
0.0234,3.940398319,0.0234,4.38516353,
0.02342,2.478677142,0.02342,4.38516353,
0.02344,2.478677142,0.02344,4.38516353,
0.02346,3.940398319,0.02346,4.38516353,
0.02348,5.036689202,0.02348,5.116024118,
0.0235,2.478677142,0.0235,4.38516353,
0.02352,3.940398319,0.02352,4.019733236,
0.02354,3.940398319,0.02354,4.38516353,
0.02356,3.574968025,0.02356,4.38516353,
0.02358,3.940398319,0.02358,4.019733236,
0.0236,2.844107437,0.0236,4.38516353,
0.02362,2.113246848,0.02362,4.750593824,
0.02364,3.209537731,0.02364,4.019733236,
0.02366,2.478677142,0.02366,4.750593824,
0.02368,1.016955966,0.02368,4.38516353,
0.0237,1.016955966,0.0237,4.019733236,
0.02372,-0.444765211,0.02372,4.38516353,
0.02374,-2.271916682,0.02374,4.750593824,
0.02376,-0.07933491686,0.02376,4.38516353,
0.02378,-1.906486388,0.02378,4.750593824,
0.0238,-1.541056094,0.0238,4.38516353,
0.02382,-1.175625799,0.02382,4.38516353,
0.02384,-1.906486388,0.02384,4.750593824,
0.02386,-4.464498447,0.02386,4.38516353,
0.02388,-2.271916682,0.02388,4.019733236,
0.0239,-2.637346976,0.0239,4.38516353,
0.02392,-3.00277727,0.02392,4.750593824,
0.02394,-4.099068153,0.02394,4.019733236,
0.02396,-4.829928741,0.02396,4.750593824,
0.02398,-1.541056094,0.02398,4.750593824,
0.024,-3.368207564,0.024,4.38516353,
0.02402,-4.829928741,0.02402,5.116024118,
0.02404,-3.368207564,0.02404,3.654302942,
0.02406,-3.368207564,0.02406,4.019733236,
0.02408,-2.637346976,0.02408,4.38516353,
0.0241,-3.368207564,0.0241,4.019733236,
0.02412,-1.541056094,0.02412,4.750593824,
0.02414,-1.541056094,0.02414,4.019733236,
0.02416,0.2860953773,0.02416,4.019733236,
0.02418,-0.07933491686,0.02418,4.38516353,
0.0242,-0.07933491686,0.0242,4.38516353,
0.02422,-0.07933491686,0.02422,4.019733236,
0.02424,0.2860953773,0.02424,4.38516353,
0.02426,-0.8101955052,0.02426,4.38516353,
0.02428,1.016955966,0.02428,4.019733236,
0.0243,2.844107437,0.0243,5.481454413,
0.02432,2.113246848,0.02432,4.750593824,
0.02434,2.478677142,0.02434,4.019733236,
0.02436,3.574968025,0.02436,4.38516353,
0.02438,3.209537731,0.02438,4.38516353,
0.0244,3.940398319,0.0244,4.019733236,
0.02442,4.305828613,0.02442,4.38516353,
0.02444,4.305828613,0.02444,4.019733236,
0.02446,3.209537731,0.02446,4.019733236,
0.02448,3.940398319,0.02448,4.750593824,
0.0245,4.305828613,0.0245,4.019733236,
0.02452,2.844107437,0.02452,4.019733236,
0.02454,2.113246848,0.02454,4.019733236,
0.02456,3.209537731,0.02456,4.38516353,
0.02458,2.844107437,0.02458,3.654302942,
0.0246,1.38238626,0.0246,4.019733236,
0.02462,1.747816554,0.02462,4.019733236,
0.02464,1.016955966,0.02464,3.654302942,
0.02466,-0.07933491686,0.02466,4.38516353,
0.02468,0.2860953773,0.02468,4.019733236,
0.0247,-1.175625799,0.0247,3.654302942,
0.02472,-1.541056094,0.02472,4.38516353,
0.02474,-1.906486388,0.02474,4.38516353,
0.02476,-2.637346976,0.02476,4.019733236,
0.02478,-2.637346976,0.02478,4.750593824,
0.0248,-1.906486388,0.0248,4.38516353,
0.02482,-2.637346976,0.02482,3.654302942,
0.02484,-5.195359035,0.02484,4.750593824,
0.02486,-3.00277727,0.02486,4.38516353,
0.02488,-4.099068153,0.02488,3.654302942,
0.0249,-3.00277727,0.0249,5.481454413,
0.02492,-2.637346976,0.02492,4.019733236,
0.02494,-4.099068153,0.02494,4.019733236,
0.02496,-3.368207564,0.02496,4.38516353,
0.02498,-2.637346976,0.02498,4.38516353,
0.025,-3.00277727,0.025,3.288872648,
0.02502,-0.444765211,0.02502,4.38516353,
0.02504,-1.541056094,0.02504,4.38516353,
0.02506,-1.906486388,0.02506,4.019733236,
0.02508,-4.464498447,0.02508,4.38516353,
0.0251,-0.8101955052,0.0251,3.654302942,
0.02512,-0.8101955052,0.02512,3.654302942,
0.02514,-1.175625799,0.02514,4.38516353,
0.02516,0.6515256715,0.02516,4.38516353,
0.02518,1.016955966,0.02518,4.019733236,
0.0252,1.38238626,0.0252,4.019733236,
0.02522,1.016955966,0.02522,4.750593824,
0.02524,2.113246848,0.02524,4.019733236,
0.02526,2.113246848,0.02526,4.750593824,
0.02528,3.574968025,0.02528,4.38516353,
0.0253,6.132980084,0.0253,4.38516353,
0.02532,4.671258907,0.02532,4.38516353,
0.02534,3.574968025,0.02534,4.019733236,
0.02536,3.209537731,0.02536,4.019733236,
0.02538,2.844107437,0.02538,5.116024118,
0.0254,3.940398319,0.0254,5.116024118,
0.02542,2.844107437,0.02542,4.019733236,
0.02544,5.76754979,0.02544,4.019733236,
0.02546,3.209537731,0.02546,4.38516353,
0.02548,2.478677142,0.02548,3.654302942,
0.0255,4.671258907,0.0255,3.654302942,
0.02552,2.844107437,0.02552,3.654302942,
0.02554,2.113246848,0.02554,4.38516353,
0.02556,1.747816554,0.02556,4.38516353,
0.02558,1.016955966,0.02558,3.654302942,
0.0256,1.016955966,0.0256,2.923442353,
0.02562,0.2860953773,0.02562,4.019733236,
0.02564,-0.07933491686,0.02564,4.019733236,
0.02566,-1.541056094,0.02566,4.019733236,
0.02568,-1.175625799,0.02568,4.750593824,
0.0257,-4.464498447,0.0257,5.481454413,
0.02572,-1.906486388,0.02572,4.019733236,
0.02574,-3.368207564,0.02574,4.019733236,
0.02576,-4.099068153,0.02576,4.019733236,
0.02578,-3.368207564,0.02578,4.019733236,
0.0258,-3.00277727,0.0258,4.750593824,
0.02582,-3.00277727,0.02582,4.38516353,
0.02584,-4.099068153,0.02584,3.288872648,
0.02586,-3.368207564,0.02586,4.019733236,
0.02588,-1.541056094,0.02588,4.38516353,
0.0259,-3.00277727,0.0259,3.288872648,
0.02592,-2.637346976,0.02592,4.38516353,
0.02594,-3.00277727,0.02594,4.38516353,
0.02596,-2.271916682,0.02596,4.38516353,
0.02598,-2.271916682,0.02598,4.019733236,
0.026,-2.271916682,0.026,2.923442353,
0.02602,-1.175625799,0.02602,4.38516353,
0.02604,-1.541056094,0.02604,4.38516353,
0.02606,-0.444765211,0.02606,4.019733236,
0.02608,0.2860953773,0.02608,4.38516353,
0.0261,0.2860953773,0.0261,4.750593824,
0.02612,-0.07933491686,0.02612,4.019733236,
0.02614,2.113246848,0.02614,4.750593824,
0.02616,1.747816554,0.02616,4.019733236,
0.02618,1.38238626,0.02618,4.019733236,
0.0262,2.478677142,0.0262,5.846884707,
0.02622,2.113246848,0.02622,4.750593824,
0.02624,6.132980084,0.02624,4.38516353,
0.02626,3.574968025,0.02626,4.750593824,
0.02628,2.844107437,0.02628,4.38516353,
0.0263,3.574968025,0.0263,5.116024118,
0.02632,6.132980084,0.02632,4.750593824,
0.02634,4.671258907,0.02634,4.019733236,
0.02636,3.574968025,0.02636,4.019733236,
0.02638,3.940398319,0.02638,4.750593824,
0.0264,2.478677142,0.0264,4.38516353,
0.02642,3.574968025,0.02642,4.019733236,
0.02644,3.574968025,0.02644,4.750593824,
0.02646,1.016955966,0.02646,4.750593824,
0.02648,1.747816554,0.02648,4.019733236,
0.0265,-0.444765211,0.0265,3.654302942,
0.02652,0.2860953773,0.02652,4.38516353,
0.02654,-1.175625799,0.02654,3.654302942,
0.02656,-0.444765211,0.02656,4.750593824,
0.02658,-0.07933491686,0.02658,4.38516353,
0.0266,-3.00277727,0.0266,4.019733236,
0.02662,-2.637346976,0.02662,4.750593824,
0.02664,-1.906486388,0.02664,4.38516353,
0.02666,-2.271916682,0.02666,4.38516353,
0.02668,-3.00277727,0.02668,4.750593824,
0.0267,-3.00277727,0.0267,5.116024118,
0.02672,-3.00277727,0.02672,4.38516353,
0.02674,-2.637346976,0.02674,4.38516353,
0.02676,-3.733637859,0.02676,4.019733236,
0.02678,-3.00277727,0.02678,4.019733236,
0.0268,-4.099068153,0.0268,4.750593824,
0.02682,-3.00277727,0.02682,4.019733236,
0.02684,-3.368207564,0.02684,4.019733236,
0.02686,-1.906486388,0.02686,4.750593824,
0.02688,-1.541056094,0.02688,5.116024118,
0.0269,-2.271916682,0.0269,5.116024118,
0.02692,-0.8101955052,0.02692,5.116024118,
0.02694,-0.8101955052,0.02694,4.38516353,
0.02696,-1.175625799,0.02696,4.750593824,
0.02698,-0.444765211,0.02698,4.750593824,
0.027,-0.444765211,0.027,4.019733236,
0.02702,1.747816554,0.02702,4.019733236,
0.02704,0.6515256715,0.02704,4.38516353,
0.02706,1.38238626,0.02706,4.750593824,
0.02708,2.113246848,0.02708,4.38516353,
0.0271,2.844107437,0.0271,3.654302942,
0.02712,-0.07933491686,0.02712,4.38516353,
0.02714,2.844107437,0.02714,4.750593824,
0.02716,2.844107437,0.02716,4.38516353,
0.02718,3.209537731,0.02718,4.38516353,
0.0272,0.2860953773,0.0272,4.750593824,
0.02722,0.6515256715,0.02722,4.38516353,
0.02724,3.574968025,0.02724,4.38516353,
0.02726,4.305828613,0.02726,4.750593824,
0.02728,3.940398319,0.02728,4.019733236,
0.0273,3.574968025,0.0273,4.750593824,
0.02732,2.844107437,0.02732,4.750593824,
0.02734,1.38238626,0.02734,4.750593824,
0.02736,2.478677142,0.02736,4.38516353,
0.02738,2.844107437,0.02738,4.750593824,
0.0274,1.016955966,0.0274,4.750593824,
0.02742,1.747816554,0.02742,4.38516353,
0.02744,1.38238626,0.02744,4.38516353,
0.02746,0.2860953773,0.02746,4.38516353,
0.02748,0.6515256715,0.02748,3.654302942,
0.0275,-0.8101955052,0.0275,4.019733236,
0.02752,-3.733637859,0.02752,4.019733236,
0.02754,-1.175625799,0.02754,4.019733236,
0.02756,-0.444765211,0.02756,4.750593824,
0.02758,-4.829928741,0.02758,4.38516353,
0.0276,-2.637346976,0.0276,4.019733236,
0.02762,-1.906486388,0.02762,4.750593824,
0.02764,-3.00277727,0.02764,4.38516353,
0.02766,-4.829928741,0.02766,4.019733236,
0.02768,-2.271916682,0.02768,4.38516353,
0.0277,-3.368207564,0.0277,4.750593824,
0.02772,-2.271916682,0.02772,4.38516353,
0.02774,-3.368207564,0.02774,4.38516353,
0.02776,-4.464498447,0.02776,4.750593824,
0.02778,-3.368207564,0.02778,4.38516353,
0.0278,-2.271916682,0.0278,4.750593824,
0.02782,-0.444765211,0.02782,4.750593824,
0.02784,-2.637346976,0.02784,3.654302942,
0.02786,-1.541056094,0.02786,4.750593824,
0.02788,-1.541056094,0.02788,4.38516353,
0.0279,-1.175625799,0.0279,4.750593824,
0.02792,0.6515256715,0.02792,4.38516353,
0.02794,-0.8101955052,0.02794,4.750593824,
0.02796,0.2860953773,0.02796,4.750593824,
0.02798,1.016955966,0.02798,4.38516353,
0.028,0.2860953773,0.028,4.38516353,
0.02802,0.2860953773,0.02802,4.750593824,
0.02804,1.38238626,0.02804,4.750593824,
0.02806,2.478677142,0.02806,4.38516353,
0.02808,2.844107437,0.02808,4.750593824,
0.0281,2.478677142,0.0281,4.38516353,
0.02812,3.209537731,0.02812,4.019733236,
0.02814,3.940398319,0.02814,4.750593824,
0.02816,3.209537731,0.02816,3.654302942,
0.02818,4.305828613,0.02818,4.019733236,
0.0282,4.671258907,0.0282,4.750593824,
0.02822,7.594701261,0.02822,4.019733236,
0.02824,3.209537731,0.02824,4.38516353,
0.02826,3.209537731,0.02826,5.116024118,
0.02828,2.478677142,0.02828,4.38516353,
0.0283,2.113246848,0.0283,3.654302942,
0.02832,2.478677142,0.02832,4.38516353,
0.02834,1.016955966,0.02834,4.38516353,
0.02836,0.6515256715,0.02836,4.38516353,
0.02838,2.844107437,0.02838,4.750593824,
0.0284,-0.444765211,0.0284,4.38516353,
0.02842,-1.175625799,0.02842,4.38516353,
0.02844,-0.8101955052,0.02844,5.116024118,
0.02846,-1.175625799,0.02846,4.019733236,
0.02848,-0.8101955052,0.02848,4.38516353,
0.0285,-3.00277727,0.0285,4.750593824,
0.02852,-4.464498447,0.02852,4.38516353,
0.02854,-2.271916682,0.02854,4.38516353,
0.02856,-3.00277727,0.02856,4.38516353,
0.02858,-3.00277727,0.02858,4.38516353,
0.0286,-2.637346976,0.0286,4.38516353,
0.02862,-4.464498447,0.02862,4.750593824,
0.02864,-3.368207564,0.02864,4.38516353,
0.02866,-3.368207564,0.02866,4.38516353,
0.02868,-3.733637859,0.02868,4.750593824,
0.0287,-3.368207564,0.0287,4.750593824,
0.02872,-2.271916682,0.02872,4.38516353,
0.02874,-2.637346976,0.02874,4.750593824,
0.02876,-3.733637859,0.02876,4.750593824,
0.02878,-1.541056094,0.02878,4.38516353,
0.0288,-0.8101955052,0.0288,4.750593824,
0.02882,-0.07933491686,0.02882,4.38516353,
0.02884,-0.07933491686,0.02884,4.750593824,
0.02886,0.2860953773,0.02886,4.750593824,
0.02888,-0.07933491686,0.02888,5.116024118,
0.0289,-0.444765211,0.0289,4.38516353,
0.02892,2.113246848,0.02892,4.38516353,
0.02894,0.2860953773,0.02894,4.38516353,
0.02896,2.113246848,0.02896,4.38516353,
0.02898,2.113246848,0.02898,4.750593824,
0.029,3.209537731,0.029,4.38516353,
0.02902,3.574968025,0.02902,4.019733236,
0.02904,2.844107437,0.02904,4.38516353,
0.02906,2.844107437,0.02906,4.38516353,
0.02908,4.671258907,0.02908,4.38516353,
0.0291,3.940398319,0.0291,5.116024118,
0.02912,2.113246848,0.02912,4.38516353,
0.02914,4.671258907,0.02914,4.019733236,
0.02916,2.844107437,0.02916,4.750593824,
0.02918,2.844107437,0.02918,4.750593824,
0.0292,3.209537731,0.0292,4.38516353,
0.02922,4.305828613,0.02922,4.750593824,
0.02924,1.38238626,0.02924,4.38516353,
0.02926,2.113246848,0.02926,4.019733236,
0.02928,0.6515256715,0.02928,4.38516353,
0.0293,1.016955966,0.0293,4.019733236,
0.02932,1.747816554,0.02932,4.38516353,
0.02934,-0.07933491686,0.02934,5.116024118,
0.02936,-0.8101955052,0.02936,4.38516353,
0.02938,-0.444765211,0.02938,4.38516353,
0.0294,-0.8101955052,0.0294,4.750593824,
0.02942,-0.8101955052,0.02942,4.38516353,
0.02944,-2.271916682,0.02944,3.288872648,
0.02946,-0.8101955052,0.02946,4.750593824,
0.02948,-3.00277727,0.02948,3.654302942,
0.0295,-3.368207564,0.0295,4.38516353,
0.02952,-0.8101955052,0.02952,4.38516353,
0.02954,-4.464498447,0.02954,4.750593824,
0.02956,-3.733637859,0.02956,4.38516353,
0.02958,-2.637346976,0.02958,4.750593824,
0.0296,-4.099068153,0.0296,4.38516353,
0.02962,-4.464498447,0.02962,4.750593824,
0.02964,-3.368207564,0.02964,4.750593824,
0.02966,-2.637346976,0.02966,4.750593824,
0.02968,-3.368207564,0.02968,4.019733236,
0.0297,-1.541056094,0.0297,4.38516353,
0.02972,-2.271916682,0.02972,4.750593824,
0.02974,-3.00277727,0.02974,4.38516353,
0.02976,-1.175625799,0.02976,4.38516353,
0.02978,-1.175625799,0.02978,3.654302942,
0.0298,-0.07933491686,0.0298,4.38516353,
0.02982,-0.444765211,0.02982,4.019733236,
0.02984,-0.444765211,0.02984,3.288872648,
0.02986,1.747816554,0.02986,4.38516353,
0.02988,2.844107437,0.02988,4.019733236,
0.0299,1.747816554,0.0299,3.654302942,
0.02992,2.113246848,0.02992,3.654302942,
0.02994,3.209537731,0.02994,4.38516353,
0.02996,1.38238626,0.02996,3.288872648,
0.02998,2.113246848,0.02998,4.38516353,
0.03,4.305828613,0.03,4.38516353,
0.03002,5.402119496,0.03002,2.558012059,
0.03004,4.305828613,0.03004,4.38516353,
0.03006,5.402119496,0.03006,4.38516353,
0.03008,3.209537731,0.03008,4.019733236,
0.0301,4.305828613,0.0301,4.750593824,
0.03012,4.305828613,0.03012,4.38516353,
0.03014,3.209537731,0.03014,3.654302942,
0.03016,2.844107437,0.03016,4.38516353,
0.03018,1.747816554,0.03018,4.38516353,
0.0302,0.2860953773,0.0302,4.019733236,
0.03022,2.844107437,0.03022,5.481454413,
0.03024,1.747816554,0.03024,4.019733236,
0.03026,1.38238626,0.03026,4.019733236,
0.03028,1.016955966,0.03028,4.019733236,
0.0303,-0.8101955052,0.0303,4.38516353,
0.03032,-1.906486388,0.03032,4.750593824,
0.03034,-0.444765211,0.03034,4.38516353,
0.03036,-1.906486388,0.03036,4.019733236,
0.03038,-1.906486388,0.03038,4.019733236,
0.0304,-2.271916682,0.0304,4.38516353,
0.03042,-2.271916682,0.03042,4.38516353,
0.03044,-4.099068153,0.03044,3.654302942,
0.03046,-2.637346976,0.03046,4.019733236,
0.03048,-4.099068153,0.03048,4.38516353,
0.0305,-5.195359035,0.0305,4.019733236,
0.03052,-3.368207564,0.03052,2.192581765,
0.03054,-3.00277727,0.03054,4.38516353,
0.03056,-3.00277727,0.03056,4.019733236,
0.03058,-3.00277727,0.03058,4.750593824,
0.0306,-2.637346976,0.0306,4.38516353,
0.03062,-3.00277727,0.03062,4.750593824,
0.03064,-1.175625799,0.03064,4.019733236,
0.03066,-3.00277727,0.03066,4.019733236,
0.03068,-1.906486388,0.03068,3.654302942,
0.0307,-0.07933491686,0.0307,4.019733236,
0.03072,-0.07933491686,0.03072,4.38516353,
0.03074,-0.8101955052,0.03074,3.654302942,
0.03076,0.6515256715,0.03076,4.019733236,
0.03078,1.016955966,0.03078,3.654302942,
0.0308,4.305828613,0.0308,3.654302942,
0.03082,3.209537731,0.03082,4.019733236,
0.03084,3.574968025,0.03084,4.38516353,
0.03086,2.478677142,0.03086,3.654302942,
0.03088,2.113246848,0.03088,4.38516353,
0.0309,3.940398319,0.0309,4.750593824,
0.03092,2.844107437,0.03092,5.116024118,
0.03094,3.940398319,0.03094,4.019733236,
0.03096,5.402119496,0.03096,4.38516353,
0.03098,3.574968025,0.03098,4.019733236,
0.031,4.671258907,0.031,4.750593824,
0.03102,4.305828613,0.03102,5.116024118,
0.03104,0.6515256715,0.03104,4.019733236,
0.03106,3.209537731,0.03106,4.019733236,
0.03108,3.940398319,0.03108,4.38516353,
0.0311,1.38238626,0.0311,4.019733236,
0.03112,4.305828613,0.03112,3.288872648,
0.03114,-0.07933491686,0.03114,4.019733236,
0.03116,1.016955966,0.03116,4.019733236,
0.03118,1.38238626,0.03118,4.38516353,
0.0312,0.2860953773,0.0312,4.38516353,
0.03122,0.2860953773,0.03122,3.654302942,
0.03124,0.6515256715,0.03124,4.38516353,
0.03126,-1.175625799,0.03126,4.019733236,
0.03128,-1.541056094,0.03128,4.019733236,
0.0313,-1.906486388,0.0313,4.38516353,
0.03132,-1.541056094,0.03132,4.750593824,
0.03134,-3.733637859,0.03134,4.019733236,
0.03136,-2.637346976,0.03136,4.38516353,
0.03138,-1.541056094,0.03138,4.019733236,
0.0314,-4.099068153,0.0314,4.019733236,
0.03142,-3.368207564,0.03142,3.288872648,
0.03144,-3.368207564,0.03144,4.38516353,
0.03146,-4.464498447,0.03146,4.38516353,
0.03148,-3.368207564,0.03148,4.38516353,
0.0315,-4.464498447,0.0315,3.654302942,
0.03152,-4.099068153,0.03152,3.654302942,
0.03154,-2.271916682,0.03154,4.38516353,
0.03156,-1.541056094,0.03156,4.019733236,
0.03158,-1.906486388,0.03158,4.019733236,
0.0316,-3.368207564,0.0316,4.019733236,
0.03162,-1.906486388,0.03162,5.116024118,
0.03164,-1.541056094,0.03164,4.019733236,
0.03166,-0.8101955052,0.03166,4.019733236,
0.03168,-0.07933491686,0.03168,4.019733236,
0.0317,0.6515256715,0.0317,4.38516353,
0.03172,-0.8101955052,0.03172,4.750593824,
0.03174,0.6515256715,0.03174,4.38516353,
0.03176,2.113246848,0.03176,5.116024118,
0.03178,1.016955966,0.03178,4.38516353,
0.0318,2.844107437,0.0318,4.019733236,
0.03182,3.209537731,0.03182,4.019733236,
0.03184,0.6515256715,0.03184,4.38516353,
0.03186,3.209537731,0.03186,3.654302942,
0.03188,4.305828613,0.03188,4.750593824,
0.0319,3.940398319,0.0319,4.38516353,
0.03192,3.209537731,0.03192,4.38516353,
0.03194,3.574968025,0.03194,4.750593824,
0.03196,3.209537731,0.03196,4.38516353,
0.03198,2.113246848,0.03198,4.750593824,
0.032,3.574968025,0.032,4.38516353,
0.03202,-0.444765211,0.03202,4.019733236,
0.03204,-0.07933491686,0.03204,4.019733236,
0.03206,3.574968025,0.03206,4.019733236,
0.03208,1.016955966,0.03208,4.750593824,
0.0321,0.6515256715,0.0321,4.019733236,
0.03212,2.478677142,0.03212,4.019733236,
0.03214,1.38238626,0.03214,4.38516353,
0.03216,-0.07933491686,0.03216,4.38516353,
0.03218,-0.07933491686,0.03218,4.38516353,
0.0322,-1.906486388,0.0322,4.750593824,
0.03222,-1.906486388,0.03222,4.38516353,
0.03224,-3.733637859,0.03224,4.019733236,
0.03226,-2.637346976,0.03226,4.019733236,
0.03228,-4.099068153,0.03228,4.019733236,
0.0323,-5.195359035,0.0323,4.38516353,
0.03232,-3.368207564,0.03232,5.116024118,
0.03234,-2.271916682,0.03234,4.38516353,
0.03236,-3.733637859,0.03236,4.750593824,
0.03238,-3.00277727,0.03238,4.38516353,
0.0324,-3.00277727,0.0324,4.38516353,
0.03242,-3.00277727,0.03242,4.750593824,
0.03244,-4.829928741,0.03244,4.750593824,
0.03246,-2.271916682,0.03246,4.38516353,
0.03248,-3.00277727,0.03248,4.38516353,
0.0325,-1.906486388,0.0325,4.38516353,
0.03252,-1.906486388,0.03252,4.38516353,
0.03254,-1.175625799,0.03254,4.38516353,
0.03256,-1.175625799,0.03256,4.750593824,
0.03258,-0.8101955052,0.03258,4.019733236,
0.0326,-0.444765211,0.0326,4.750593824,
0.03262,1.016955966,0.03262,3.654302942,
0.03264,0.6515256715,0.03264,4.38516353,
0.03266,0.2860953773,0.03266,3.654302942,
0.03268,2.478677142,0.03268,4.019733236,
0.0327,1.016955966,0.0327,4.38516353,
0.03272,2.844107437,0.03272,4.019733236,
0.03274,3.209537731,0.03274,4.750593824,
0.03276,3.940398319,0.03276,4.750593824,
0.03278,2.478677142,0.03278,3.654302942,
0.0328,3.209537731,0.0328,4.38516353,
0.03282,3.574968025,0.03282,4.38516353,
0.03284,1.38238626,0.03284,3.654302942,
0.03286,4.305828613,0.03286,4.38516353,
0.03288,3.574968025,0.03288,4.019733236,
0.0329,2.844107437,0.0329,4.019733236,
0.03292,3.940398319,0.03292,4.38516353,
0.03294,-0.444765211,0.03294,4.38516353,
0.03296,2.113246848,0.03296,3.654302942,
0.03298,2.844107437,0.03298,4.38516353,
0.033,2.478677142,0.033,4.38516353,
0.03302,1.38238626,0.03302,3.654302942,
0.03304,1.016955966,0.03304,4.38516353,
0.03306,-1.175625799,0.03306,4.38516353,
0.03308,-0.07933491686,0.03308,4.019733236,
0.0331,-0.07933491686,0.0331,4.750593824,
0.03312,-0.8101955052,0.03312,4.019733236,
0.03314,-0.444765211,0.03314,4.019733236,
0.03316,-1.906486388,0.03316,4.019733236,
0.03318,-2.271916682,0.03318,4.019733236,
0.0332,-3.00277727,0.0332,4.019733236,
0.03322,-1.906486388,0.03322,4.38516353,
0.03324,-2.637346976,0.03324,4.019733236,
0.03326,-4.099068153,0.03326,4.019733236,
0.03328,-2.637346976,0.03328,4.38516353,
0.0333,-3.368207564,0.0333,4.019733236,
0.03332,-3.733637859,0.03332,3.654302942,
0.03334,-3.00277727,0.03334,4.38516353,
0.03336,-2.637346976,0.03336,3.654302942,
0.03338,-2.637346976,0.03338,4.019733236,
0.0334,-2.271916682,0.0334,4.38516353,
0.03342,-2.637346976,0.03342,3.654302942,
0.03344,-1.906486388,0.03344,4.019733236,
0.03346,-1.541056094,0.03346,4.019733236,
0.03348,-1.175625799,0.03348,4.019733236,
0.0335,-0.444765211,0.0335,4.019733236,
0.03352,-1.541056094,0.03352,4.019733236,
0.03354,1.38238626,0.03354,4.38516353,
0.03356,0.6515256715,0.03356,3.654302942,
0.03358,1.747816554,0.03358,4.38516353,
0.0336,1.747816554,0.0336,4.38516353,
0.03362,1.747816554,0.03362,3.654302942,
0.03364,3.209537731,0.03364,4.38516353,
0.03366,2.844107437,0.03366,4.38516353,
0.03368,1.747816554,0.03368,3.654302942,
0.0337,4.671258907,0.0337,4.38516353,
0.03372,3.209537731,0.03372,4.38516353,
0.03374,2.844107437,0.03374,3.288872648,
0.03376,4.305828613,0.03376,4.38516353,
0.03378,4.305828613,0.03378,4.38516353,
0.0338,3.574968025,0.0338,4.019733236,
0.03382,3.209537731,0.03382,4.019733236,
0.03384,2.844107437,0.03384,4.019733236,
0.03386,3.209537731,0.03386,4.019733236,
0.03388,3.209537731,0.03388,4.019733236,
0.0339,2.478677142,0.0339,4.38516353,
0.03392,2.113246848,0.03392,4.019733236,
0.03394,1.747816554,0.03394,4.38516353,
0.03396,1.38238626,0.03396,4.38516353,
0.03398,0.6515256715,0.03398,3.654302942,
0.034,1.016955966,0.034,4.019733236,
0.03402,1.016955966,0.03402,4.38516353,
0.03404,-1.906486388,0.03404,4.38516353,
0.03406,-0.07933491686,0.03406,4.38516353,
0.03408,-1.541056094,0.03408,4.019733236,
0.0341,-2.271916682,0.0341,3.654302942,
0.03412,-2.637346976,0.03412,4.38516353,
0.03414,-2.637346976,0.03414,4.750593824,
0.03416,-3.733637859,0.03416,4.019733236,
0.03418,-2.637346976,0.03418,4.38516353,
0.0342,-1.541056094,0.0342,4.38516353,
0.03422,-4.464498447,0.03422,3.654302942,
0.03424,-4.829928741,0.03424,4.019733236,
0.03426,-3.00277727,0.03426,4.38516353,
0.03428,-3.368207564,0.03428,4.019733236,
0.0343,-1.541056094,0.0343,4.38516353,
0.03432,-0.444765211,0.03432,4.019733236,
0.03434,-2.271916682,0.03434,4.019733236,
0.03436,-0.8101955052,0.03436,4.38516353,
0.03438,-0.8101955052,0.03438,3.654302942,
0.0344,-1.906486388,0.0344,4.019733236,
0.03442,-0.8101955052,0.03442,4.38516353,
0.03444,-0.444765211,0.03444,5.116024118,
0.03446,-0.444765211,0.03446,4.019733236,
0.03448,0.6515256715,0.03448,4.38516353,
0.0345,-0.07933491686,0.0345,4.38516353,
0.03452,-0.07933491686,0.03452,4.38516353,
0.03454,1.38238626,0.03454,5.481454413,
0.03456,1.38238626,0.03456,4.019733236,
0.03458,2.113246848,0.03458,5.116024118,
0.0346,2.844107437,0.0346,5.116024118,
0.03462,2.844107437,0.03462,4.019733236,
0.03464,2.478677142,0.03464,3.654302942,
0.03466,3.209537731,0.03466,4.38516353,
0.03468,2.844107437,0.03468,4.38516353,
0.0347,3.574968025,0.0347,4.019733236,
0.03472,2.844107437,0.03472,4.019733236,
0.03474,3.574968025,0.03474,3.288872648,
0.03476,2.844107437,0.03476,4.38516353,
0.03478,3.209537731,0.03478,4.750593824,
0.0348,1.016955966,0.0348,4.38516353,
0.03482,1.747816554,0.03482,4.38516353,
0.03484,1.747816554,0.03484,5.116024118,
0.03486,1.016955966,0.03486,4.019733236,
0.03488,-0.444765211,0.03488,4.019733236,
0.0349,1.747816554,0.0349,4.38516353,
0.03492,-0.07933491686,0.03492,4.38516353,
0.03494,-0.444765211,0.03494,5.116024118,
0.03496,-1.175625799,0.03496,4.750593824,
0.03498,-0.444765211,0.03498,4.38516353,
0.035,-3.368207564,0.035,4.019733236,
0.03502,-1.906486388,0.03502,5.116024118,
0.03504,-2.271916682,0.03504,5.116024118,
0.03506,-2.271916682,0.03506,4.019733236,
0.03508,-3.368207564,0.03508,4.38516353,
0.0351,-3.733637859,0.0351,4.38516353,
0.03512,-3.00277727,0.03512,4.38516353,
0.03514,-3.733637859,0.03514,5.481454413,
0.03516,-3.733637859,0.03516,4.38516353,
0.03518,-3.368207564,0.03518,4.019733236,
0.0352,-0.444765211,0.0352,4.38516353,
0.03522,-3.368207564,0.03522,4.38516353,
0.03524,-3.00277727,0.03524,4.019733236,
0.03526,-2.271916682,0.03526,5.116024118,
0.03528,-3.368207564,0.03528,4.38516353,
0.0353,-3.733637859,0.0353,4.019733236,
0.03532,-0.444765211,0.03532,4.38516353,
0.03534,-0.07933491686,0.03534,4.019733236,
0.03536,-1.175625799,0.03536,4.019733236,
0.03538,-1.541056094,0.03538,4.019733236,
0.0354,-0.444765211,0.0354,4.38516353,
0.03542,-0.07933491686,0.03542,4.38516353,
0.03544,1.747816554,0.03544,4.019733236,
0.03546,0.6515256715,0.03546,4.38516353,
0.03548,1.38238626,0.03548,4.019733236,
0.0355,2.844107437,0.0355,4.38516353,
0.03552,1.38238626,0.03552,4.750593824,
0.03554,2.844107437,0.03554,4.750593824,
0.03556,1.747816554,0.03556,4.38516353,
0.03558,2.844107437,0.03558,4.38516353,
0.0356,2.478677142,0.0356,4.019733236,
0.03562,3.209537731,0.03562,4.750593824,
0.03564,4.671258907,0.03564,5.116024118,
0.03566,4.305828613,0.03566,4.019733236,
0.03568,3.209537731,0.03568,4.750593824,
0.0357,2.844107437,0.0357,4.38516353,
0.03572,2.844107437,0.03572,4.019733236,
0.03574,2.478677142,0.03574,4.750593824,
0.03576,3.209537731,0.03576,4.38516353,
0.03578,0.6515256715,0.03578,4.38516353,
0.0358,3.574968025,0.0358,4.750593824,
0.03582,1.38238626,0.03582,4.019733236,
0.03584,2.113246848,0.03584,4.019733236,
0.03586,0.2860953773,0.03586,4.750593824,
0.03588,-1.906486388,0.03588,4.019733236,
0.0359,-2.271916682,0.0359,4.019733236,
0.03592,-0.444765211,0.03592,4.38516353,
0.03594,-1.906486388,0.03594,3.654302942,
0.03596,-4.099068153,0.03596,4.019733236,
0.03598,-3.00277727,0.03598,4.750593824,
0.036,-2.271916682,0.036,4.38516353,
0.03602,-3.733637859,0.03602,4.38516353,
0.03604,-3.368207564,0.03604,4.750593824,
0.03606,-4.829928741,0.03606,4.38516353,
0.03608,-4.464498447,0.03608,4.750593824,
0.0361,-3.368207564,0.0361,4.38516353,
0.03612,-4.464498447,0.03612,4.38516353,
0.03614,-4.099068153,0.03614,4.750593824,
0.03616,-3.00277727,0.03616,4.750593824,
0.03618,-2.637346976,0.03618,4.019733236,
0.0362,-3.368207564,0.0362,4.019733236,
0.03622,-2.637346976,0.03622,4.38516353,
0.03624,-1.906486388,0.03624,4.38516353,
0.03626,-0.8101955052,0.03626,4.38516353,
0.03628,-1.906486388,0.03628,4.750593824,
0.0363,-1.175625799,0.0363,4.019733236,
0.03632,-0.444765211,0.03632,4.019733236,
0.03634,-0.07933491686,0.03634,4.019733236,
0.03636,-1.175625799,0.03636,4.019733236,
0.03638,-0.07933491686,0.03638,4.019733236,
0.0364,1.38238626,0.0364,4.750593824,
0.03642,1.747816554,0.03642,4.019733236,
0.03644,2.478677142,0.03644,5.116024118,
0.03646,3.209537731,0.03646,3.654302942,
0.03648,3.209537731,0.03648,4.019733236,
0.0365,3.574968025,0.0365,5.116024118,
0.03652,1.747816554,0.03652,4.38516353,
0.03654,4.305828613,0.03654,4.38516353,
0.03656,6.498410378,0.03656,4.750593824,
0.03658,3.574968025,0.03658,4.38516353,
0.0366,4.305828613,0.0366,4.38516353,
0.03662,2.844107437,0.03662,4.38516353,
0.03664,1.38238626,0.03664,4.38516353,
0.03666,4.305828613,0.03666,4.38516353,
0.03668,3.574968025,0.03668,4.750593824,
0.0367,1.38238626,0.0367,4.750593824,
0.03672,1.747816554,0.03672,4.38516353,
0.03674,2.844107437,0.03674,4.019733236,
0.03676,-0.07933491686,0.03676,4.38516353,
0.03678,1.747816554,0.03678,4.38516353,
0.0368,0.6515256715,0.0368,5.116024118,
0.03682,-0.444765211,0.03682,4.38516353,
0.03684,1.016955966,0.03684,4.019733236,
0.03686,-2.637346976,0.03686,4.38516353,
0.03688,-2.271916682,0.03688,4.750593824,
0.0369,-2.271916682,0.0369,4.019733236,
0.03692,-0.8101955052,0.03692,4.750593824,
0.03694,-3.733637859,0.03694,4.38516353,
0.03696,-2.271916682,0.03696,4.019733236,
0.03698,-2.637346976,0.03698,4.750593824,
0.037,-1.906486388,0.037,4.38516353,
0.03702,-3.733637859,0.03702,4.019733236,
0.03704,-3.00277727,0.03704,5.116024118,
0.03706,-1.906486388,0.03706,4.38516353,
0.03708,-4.099068153,0.03708,4.019733236,
0.0371,-3.368207564,0.0371,4.38516353,
0.03712,-3.368207564,0.03712,4.750593824,
0.03714,-3.00277727,0.03714,4.38516353,
0.03716,-4.464498447,0.03716,3.654302942,
0.03718,-1.541056094,0.03718,4.019733236,
0.0372,-1.175625799,0.0372,4.38516353,
0.03722,-1.175625799,0.03722,4.019733236,
0.03724,-1.906486388,0.03724,4.38516353,
0.03726,-3.00277727,0.03726,4.38516353,
0.03728,-0.07933491686,0.03728,4.750593824,
0.0373,0.2860953773,0.0373,4.38516353,
0.03732,1.747816554,0.03732,4.38516353,
0.03734,2.113246848,0.03734,4.750593824,
0.03736,2.113246848,0.03736,4.750593824,
0.03738,-0.8101955052,0.03738,4.019733236,
0.0374,3.940398319,0.0374,4.38516353,
0.03742,2.844107437,0.03742,4.38516353,
0.03744,3.574968025,0.03744,5.116024118,
0.03746,5.036689202,0.03746,4.38516353,
0.03748,5.036689202,0.03748,4.750593824,
0.0375,3.940398319,0.0375,4.019733236,
0.03752,3.209537731,0.03752,4.38516353,
0.03754,4.305828613,0.03754,4.38516353,
0.03756,6.498410378,0.03756,4.38516353,
0.03758,3.209537731,0.03758,4.019733236,
0.0376,3.209537731,0.0376,4.750593824,
0.03762,1.016955966,0.03762,4.38516353,
0.03764,2.113246848,0.03764,4.019733236,
0.03766,2.478677142,0.03766,4.38516353,
0.03768,-0.444765211,0.03768,4.38516353,
0.0377,2.113246848,0.0377,4.38516353,
0.03772,-1.175625799,0.03772,5.116024118,
0.03774,-0.444765211,0.03774,4.750593824,
0.03776,-5.926219624,0.03776,4.019733236,
0.03778,-1.906486388,0.03778,4.750593824,
0.0378,-3.00277727,0.0378,4.38516353,
0.03782,-3.368207564,0.03782,4.019733236,
0.03784,-2.637346976,0.03784,4.38516353,
0.03786,-4.464498447,0.03786,4.019733236,
0.03788,-3.00277727,0.03788,4.019733236,
0.0379,-3.368207564,0.0379,4.750593824,
0.03792,-4.099068153,0.03792,4.019733236,
0.03794,-5.926219624,0.03794,4.019733236,
0.03796,-3.368207564,0.03796,4.750593824,
0.03798,-4.099068153,0.03798,4.38516353,
0.038,-3.00277727,0.038,4.019733236,
0.03802,-2.637346976,0.03802,4.750593824,
0.03804,-4.464498447,0.03804,4.38516353,
0.03806,-1.175625799,0.03806,4.019733236,
0.03808,-3.00277727,0.03808,4.38516353,
0.0381,-3.368207564,0.0381,4.019733236,
0.03812,-1.175625799,0.03812,4.019733236,
0.03814,-1.906486388,0.03814,4.38516353,
0.03816,-0.8101955052,0.03816,4.38516353,
0.03818,-0.444765211,0.03818,4.38516353,
0.0382,-0.444765211,0.0382,4.750593824,
0.03822,0.2860953773,0.03822,4.38516353,
0.03824,-0.8101955052,0.03824,4.38516353,
0.03826,0.2860953773,0.03826,4.750593824,
0.03828,1.38238626,0.03828,4.750593824,
0.0383,2.113246848,0.0383,4.019733236,
0.03832,2.844107437,0.03832,4.38516353,
0.03834,2.113246848,0.03834,4.38516353,
0.03836,2.478677142,0.03836,4.019733236,
0.03838,4.671258907,0.03838,4.750593824,
0.0384,2.478677142,0.0384,4.38516353,
0.03842,3.209537731,0.03842,4.38516353,
0.03844,3.209537731,0.03844,5.116024118,
0.03846,3.574968025,0.03846,3.654302942,
0.03848,4.671258907,0.03848,4.019733236,
0.0385,2.844107437,0.0385,4.750593824,
0.03852,2.113246848,0.03852,4.38516353,
0.03854,1.38238626,0.03854,4.019733236,
0.03856,2.113246848,0.03856,4.750593824,
0.03858,2.113246848,0.03858,4.019733236,
0.0386,1.016955966,0.0386,4.38516353,
0.03862,0.6515256715,0.03862,4.750593824,
0.03864,-0.07933491686,0.03864,4.019733236,
0.03866,1.016955966,0.03866,3.654302942,
0.03868,-0.444765211,0.03868,4.750593824,
0.0387,-0.444765211,0.0387,4.019733236,
0.03872,-1.906486388,0.03872,3.654302942,
0.03874,-2.271916682,0.03874,4.750593824,
0.03876,-2.637346976,0.03876,4.019733236,
0.03878,-2.271916682,0.03878,3.654302942,
0.0388,-3.368207564,0.0388,4.38516353,
0.03882,-4.099068153,0.03882,4.019733236,
0.03884,-3.733637859,0.03884,4.019733236,
0.03886,-5.560789329,0.03886,5.116024118,
0.03888,-3.733637859,0.03888,4.38516353,
0.0389,-3.733637859,0.0389,4.019733236,
0.03892,-0.444765211,0.03892,4.38516353,
0.03894,-3.733637859,0.03894,4.38516353,
0.03896,-3.368207564,0.03896,2.923442353,
0.03898,-3.368207564,0.03898,4.750593824,
0.039,-3.733637859,0.039,4.38516353,
0.03902,-1.906486388,0.03902,4.019733236,
0.03904,-2.271916682,0.03904,5.116024118,
0.03906,-1.906486388,0.03906,5.116024118,
0.03908,-0.8101955052,0.03908,4.019733236,
0.0391,-0.444765211,0.0391,4.38516353,
0.03912,-1.906486388,0.03912,4.38516353,
0.03914,-0.444765211,0.03914,3.654302942,
0.03916,0.6515256715,0.03916,4.019733236,
0.03918,1.016955966,0.03918,4.38516353,
0.0392,1.38238626,0.0392,4.019733236,
0.03922,2.113246848,0.03922,4.750593824,
0.03924,2.113246848,0.03924,4.750593824,
0.03926,2.113246848,0.03926,4.019733236,
0.03928,3.209537731,0.03928,4.38516353,
0.0393,3.209537731,0.0393,4.38516353,
0.03932,3.574968025,0.03932,4.019733236,
0.03934,2.844107437,0.03934,4.38516353,
0.03936,3.209537731,0.03936,6.212315001,
0.03938,3.940398319,0.03938,4.019733236,
0.0394,3.940398319,0.0394,4.750593824,
0.03942,3.209537731,0.03942,4.38516353,
0.03944,3.209537731,0.03944,4.38516353,
0.03946,5.76754979,0.03946,6.212315001,
0.03948,1.38238626,0.03948,4.38516353,
0.0395,1.747816554,0.0395,4.019733236,
0.03952,2.113246848,0.03952,5.116024118,
0.03954,1.747816554,0.03954,3.654302942,
0.03956,1.747816554,0.03956,3.654302942,
0.03958,-1.175625799,0.03958,4.38516353,
0.0396,-0.444765211,0.0396,4.38516353,
0.03962,0.6515256715,0.03962,4.38516353,
0.03964,-1.541056094,0.03964,4.750593824,
0.03966,-1.541056094,0.03966,4.38516353,
0.03968,-0.444765211,0.03968,4.38516353,
0.0397,-2.271916682,0.0397,3.288872648,
0.03972,-3.368207564,0.03972,4.38516353,
0.03974,-3.368207564,0.03974,3.654302942,
0.03976,-3.733637859,0.03976,5.846884707,
0.03978,-5.195359035,0.03978,4.750593824,
0.0398,-4.099068153,0.0398,4.38516353,
0.03982,-3.368207564,0.03982,4.750593824,
0.03984,-3.00277727,0.03984,4.38516353,
0.03986,-3.733637859,0.03986,3.288872648,
0.03988,-2.637346976,0.03988,5.116024118,
0.0399,-3.00277727,0.0399,4.750593824,
0.03992,-1.175625799,0.03992,4.38516353,
0.03994,-2.637346976,0.03994,4.38516353,
0.03996,-1.906486388,0.03996,4.750593824,
0.03998,-1.175625799,0.03998,4.38516353,
0.04,-1.541056094,0.04,4.750593824,
0.04002,-1.541056094,0.04002,4.750593824,
0.04004,-1.906486388,0.04004,4.019733236,
0.04006,0.2860953773,0.04006,5.846884707,
0.04008,-1.175625799,0.04008,4.750593824,
0.0401,1.016955966,0.0401,4.38516353,
0.04012,1.016955966,0.04012,4.38516353,
0.04014,0.6515256715,0.04014,4.38516353,
0.04016,2.844107437,0.04016,4.019733236,
0.04018,1.747816554,0.04018,4.38516353,
0.0402,2.478677142,0.0402,4.38516353,
0.04022,3.574968025,0.04022,4.019733236,
0.04024,2.844107437,0.04024,4.38516353,
0.04026,3.574968025,0.04026,3.288872648,
0.04028,3.940398319,0.04028,4.38516353,
0.0403,4.305828613,0.0403,4.750593824,
0.04032,4.671258907,0.04032,4.38516353,
0.04034,3.940398319,0.04034,4.38516353,
0.04036,3.574968025,0.04036,5.116024118,
0.04038,3.940398319,0.04038,4.38516353,
0.0404,2.844107437,0.0404,4.019733236,
0.04042,2.478677142,0.04042,4.750593824,
0.04044,2.113246848,0.04044,4.38516353,
0.04046,2.844107437,0.04046,4.750593824,
0.04048,-0.07933491686,0.04048,4.38516353,
0.0405,0.6515256715,0.0405,4.019733236,
0.04052,0.6515256715,0.04052,4.019733236,
0.04054,-0.8101955052,0.04054,4.38516353,
0.04056,-0.444765211,0.04056,4.019733236,
0.04058,-1.175625799,0.04058,4.38516353,
0.0406,-2.637346976,0.0406,4.750593824,
0.04062,-2.637346976,0.04062,4.38516353,
0.04064,-1.541056094,0.04064,4.38516353,
0.04066,-1.541056094,0.04066,4.38516353,
0.04068,-2.637346976,0.04068,4.38516353,
0.0407,-3.368207564,0.0407,4.38516353,
0.04072,-3.00277727,0.04072,4.750593824,
0.04074,-3.733637859,0.04074,4.750593824,
0.04076,-3.733637859,0.04076,4.38516353,
0.04078,-2.271916682,0.04078,4.750593824,
0.0408,-3.733637859,0.0408,4.750593824,
0.04082,-5.195359035,0.04082,4.019733236,
0.04084,-3.00277727,0.04084,4.750593824,
0.04086,-3.733637859,0.04086,4.38516353,
0.04088,-3.733637859,0.04088,4.019733236,
0.0409,-1.175625799,0.0409,4.38516353,
0.04092,-3.00277727,0.04092,4.38516353,
0.04094,-0.8101955052,0.04094,4.38516353,
0.04096,-2.637346976,0.04096,4.750593824,
0.04098,-1.175625799,0.04098,4.38516353,
0.041,-0.07933491686,0.041,4.38516353,
0.04102,1.747816554,0.04102,4.38516353,
0.04104,0.6515256715,0.04104,4.38516353,
0.04106,1.38238626,0.04106,4.019733236,
0.04108,2.478677142,0.04108,4.750593824,
0.0411,2.113246848,0.0411,4.750593824,
0.04112,2.844107437,0.04112,4.019733236,
0.04114,3.940398319,0.04114,4.38516353,
0.04116,2.844107437,0.04116,4.019733236,
0.04118,2.478677142,0.04118,4.019733236,
0.0412,2.478677142,0.0412,3.654302942,
0.04122,3.574968025,0.04122,4.019733236,
0.04124,4.305828613,0.04124,4.019733236,
0.04126,4.305828613,0.04126,3.288872648,
0.04128,3.940398319,0.04128,4.38516353,
0.0413,3.574968025,0.0413,4.019733236,
0.04132,2.113246848,0.04132,3.654302942,
0.04134,3.574968025,0.04134,4.019733236,
0.04136,2.113246848,0.04136,4.38516353,
0.04138,1.016955966,0.04138,4.019733236,
0.0414,1.747816554,0.0414,4.019733236,
0.04142,0.6515256715,0.04142,4.38516353,
0.04144,-1.175625799,0.04144,4.019733236,
0.04146,0.6515256715,0.04146,4.38516353,
0.04148,-0.07933491686,0.04148,4.019733236,
0.0415,-0.444765211,0.0415,3.654302942,
0.04152,0.2860953773,0.04152,4.019733236,
0.04154,-2.637346976,0.04154,4.38516353,
0.04156,-2.271916682,0.04156,4.019733236,
0.04158,-1.906486388,0.04158,4.019733236,
0.0416,-2.637346976,0.0416,4.750593824,
0.04162,-2.637346976,0.04162,4.019733236,
0.04164,-2.271916682,0.04164,4.38516353,
0.04166,-3.00277727,0.04166,4.38516353,
0.04168,-4.464498447,0.04168,3.654302942,
0.0417,-3.368207564,0.0417,4.019733236,
0.04172,-4.464498447,0.04172,4.019733236,
0.04174,-3.368207564,0.04174,3.654302942,
0.04176,-3.00277727,0.04176,4.019733236,
0.04178,-2.637346976,0.04178,4.019733236,
0.0418,-2.637346976,0.0418,3.654302942,
0.04182,-2.271916682,0.04182,4.38516353,
0.04184,-1.906486388,0.04184,4.38516353,
0.04186,-3.368207564,0.04186,3.654302942,
0.04188,-1.541056094,0.04188,4.019733236,
0.0419,-1.175625799,0.0419,4.38516353,
0.04192,-0.8101955052,0.04192,4.38516353,
0.04194,0.2860953773,0.04194,4.38516353,
0.04196,1.38238626,0.04196,4.019733236,
0.04198,1.016955966,0.04198,4.019733236,
0.042,1.747816554,0.042,4.019733236,
0.04202,2.844107437,0.04202,4.38516353,
0.04204,2.478677142,0.04204,4.019733236,
0.04206,2.478677142,0.04206,4.38516353,
0.04208,4.305828613,0.04208,4.38516353,
0.0421,5.036689202,0.0421,4.019733236,
0.04212,3.940398319,0.04212,4.38516353,
0.04214,4.305828613,0.04214,4.38516353,
0.04216,3.209537731,0.04216,3.654302942,
0.04218,2.478677142,0.04218,4.019733236,
0.0422,3.940398319,0.0422,4.019733236,
0.04222,2.844107437,0.04222,3.654302942,
0.04224,3.574968025,0.04224,4.750593824,
0.04226,3.209537731,0.04226,4.750593824,
0.04228,2.844107437,0.04228,4.38516353,
0.0423,1.38238626,0.0423,4.750593824,
0.04232,1.747816554,0.04232,4.750593824,
0.04234,1.747816554,0.04234,4.38516353,
0.04236,1.016955966,0.04236,4.750593824,
0.04238,1.38238626,0.04238,4.750593824,
0.0424,0.6515256715,0.0424,4.38516353,
0.04242,-0.444765211,0.04242,4.38516353,
0.04244,-0.07933491686,0.04244,4.750593824,
0.04246,-0.444765211,0.04246,4.38516353,
0.04248,-1.175625799,0.04248,4.38516353,
0.0425,-1.906486388,0.0425,4.38516353,
0.04252,-2.271916682,0.04252,4.750593824,
0.04254,-0.8101955052,0.04254,4.019733236,
0.04256,-3.733637859,0.04256,4.019733236,
0.04258,-3.368207564,0.04258,5.116024118,
0.0426,-3.00277727,0.0426,4.38516353,
0.04262,-3.733637859,0.04262,4.019733236,
0.04264,-1.906486388,0.04264,4.750593824,
0.04266,-4.099068153,0.04266,4.38516353,
0.04268,-3.00277727,0.04268,4.38516353,
0.0427,-3.368207564,0.0427,4.750593824,
0.04272,-4.099068153,0.04272,4.38516353,
0.04274,-4.099068153,0.04274,4.019733236,
0.04276,-3.733637859,0.04276,5.116024118,
0.04278,-2.637346976,0.04278,4.38516353,
0.0428,-1.541056094,0.0428,4.019733236,
0.04282,-1.906486388,0.04282,4.750593824,
0.04284,-1.175625799,0.04284,4.38516353,
0.04286,-1.175625799,0.04286,4.019733236,
0.04288,0.2860953773,0.04288,4.38516353,
0.0429,0.2860953773,0.0429,4.38516353,
0.04292,1.016955966,0.04292,4.38516353,
0.04294,1.747816554,0.04294,4.750593824,
0.04296,1.747816554,0.04296,4.38516353,
0.04298,2.478677142,0.04298,4.750593824,
0.043,2.844107437,0.043,4.750593824,
0.04302,2.478677142,0.04302,4.38516353,
0.04304,3.574968025,0.04304,4.019733236,
0.04306,6.498410378,0.04306,5.116024118,
0.04308,3.940398319,0.04308,5.116024118,
0.0431,3.574968025,0.0431,4.38516353,
0.04312,3.574968025,0.04312,4.38516353,
0.04314,2.844107437,0.04314,4.38516353,
0.04316,3.574968025,0.04316,5.116024118,
0.04318,2.844107437,0.04318,3.654302942,
0.0432,2.478677142,0.0432,4.38516353,
0.04322,1.747816554,0.04322,5.116024118,
0.04324,2.478677142,0.04324,4.38516353,
0.04326,1.747816554,0.04326,4.019733236,
0.04328,0.6515256715,0.04328,3.288872648,
0.0433,0.6515256715,0.0433,4.019733236,
0.04332,1.747816554,0.04332,4.019733236,
0.04334,-0.444765211,0.04334,4.38516353,
0.04336,-1.175625799,0.04336,4.38516353,
0.04338,-1.175625799,0.04338,4.750593824,
0.0434,-1.906486388,0.0434,5.116024118,
0.04342,-1.906486388,0.04342,4.750593824,
0.04344,-2.637346976,0.04344,4.019733236,
0.04346,-2.637346976,0.04346,4.38516353,
0.04348,-3.368207564,0.04348,5.116024118,
0.0435,-3.368207564,0.0435,3.654302942,
0.04352,-4.099068153,0.04352,4.38516353,
0.04354,-4.099068153,0.04354,4.38516353,
0.04356,-4.464498447,0.04356,4.019733236,
0.04358,-3.368207564,0.04358,6.943175589,
0.0436,-3.368207564,0.0436,4.38516353,
0.04362,-4.099068153,0.04362,4.019733236,
0.04364,-3.00277727,0.04364,4.750593824,
0.04366,-3.368207564,0.04366,4.750593824,
0.04368,-5.195359035,0.04368,4.750593824,
0.0437,-1.906486388,0.0437,4.750593824,
0.04372,0.6515256715,0.04372,4.019733236,
0.04374,-2.637346976,0.04374,4.38516353,
0.04376,-0.8101955052,0.04376,4.750593824,
0.04378,-0.07933491686,0.04378,2.923442353,
0.0438,-0.07933491686,0.0438,4.019733236,
0.04382,0.2860953773,0.04382,4.38516353,
0.04384,1.016955966,0.04384,4.38516353,
0.04386,1.38238626,0.04386,4.019733236,
0.04388,2.113246848,0.04388,4.750593824,
0.0439,1.016955966,0.0439,4.38516353,
0.04392,2.113246848,0.04392,4.019733236,
0.04394,3.209537731,0.04394,4.750593824,
0.04396,2.478677142,0.04396,4.019733236,
0.04398,2.844107437,0.04398,5.481454413,
0.044,5.036689202,0.044,4.750593824,
0.04402,2.844107437,0.04402,4.38516353,
0.04404,3.940398319,0.04404,4.38516353,
0.04406,2.844107437,0.04406,4.750593824,
0.04408,2.478677142,0.04408,4.750593824,
0.0441,4.305828613,0.0441,4.019733236,
0.04412,2.113246848,0.04412,4.38516353,
0.04414,2.844107437,0.04414,4.38516353,
0.04416,3.574968025,0.04416,4.019733236,
0.04418,2.478677142,0.04418,5.481454413,
0.0442,1.747816554,0.0442,4.019733236,
0.04422,1.747816554,0.04422,4.750593824,
0.04424,1.016955966,0.04424,4.750593824,
0.04426,-0.07933491686,0.04426,4.019733236,
0.04428,-2.637346976,0.04428,3.654302942,
0.0443,0.6515256715,0.0443,4.38516353,
0.04432,-1.541056094,0.04432,4.019733236,
0.04434,-2.271916682,0.04434,4.38516353,
0.04436,-0.8101955052,0.04436,4.38516353,
0.04438,-2.637346976,0.04438,4.019733236,
0.0444,-4.464498447,0.0444,4.38516353,
0.04442,-3.733637859,0.04442,5.481454413,
0.04444,-5.195359035,0.04444,4.019733236,
0.04446,-4.099068153,0.04446,4.019733236,
0.04448,-3.00277727,0.04448,4.019733236,
0.0445,-4.099068153,0.0445,4.019733236,
0.04452,-3.733637859,0.04452,4.019733236,
0.04454,-3.368207564,0.04454,4.750593824,
0.04456,-3.00277727,0.04456,4.38516353,
0.04458,-3.00277727,0.04458,3.654302942,
0.0446,-3.368207564,0.0446,4.750593824,
0.04462,-3.00277727,0.04462,4.019733236,
0.04464,-2.637346976,0.04464,4.019733236,
0.04466,-3.00277727,0.04466,4.750593824,
0.04468,-1.906486388,0.04468,4.019733236,
0.0447,-2.637346976,0.0447,4.019733236,
0.04472,-1.541056094,0.04472,4.750593824,
0.04474,-0.444765211,0.04474,4.019733236,
0.04476,-0.07933491686,0.04476,4.019733236,
0.04478,1.016955966,0.04478,5.116024118,
0.0448,1.747816554,0.0448,3.654302942,
0.04482,1.38238626,0.04482,4.019733236,
0.04484,2.113246848,0.04484,4.750593824,
0.04486,1.38238626,0.04486,4.019733236,
0.04488,1.38238626,0.04488,4.019733236,
0.0449,4.305828613,0.0449,4.750593824,
0.04492,2.844107437,0.04492,4.019733236,
0.04494,3.574968025,0.04494,4.019733236,
0.04496,3.574968025,0.04496,4.750593824,
0.04498,2.844107437,0.04498,3.654302942,
0.045,2.113246848,0.045,4.019733236,
0.04502,3.940398319,0.04502,4.750593824,
0.04504,0.2860953773,0.04504,4.38516353,
0.04506,3.574968025,0.04506,4.38516353,
0.04508,2.478677142,0.04508,4.019733236,
0.0451,5.036689202,0.0451,4.750593824,
0.04512,0.2860953773,0.04512,4.019733236,
0.04514,2.113246848,0.04514,4.750593824,
0.04516,0.6515256715,0.04516,4.38516353,
0.04518,1.38238626,0.04518,3.654302942,
0.0452,-0.07933491686,0.0452,4.38516353,
0.04522,-1.175625799,0.04522,4.38516353,
0.04524,1.016955966,0.04524,4.38516353,
0.04526,-1.541056094,0.04526,4.750593824,
0.04528,-1.906486388,0.04528,3.654302942,
0.0453,-2.637346976,0.0453,4.38516353,
0.04532,-2.271916682,0.04532,4.750593824,
0.04534,-3.368207564,0.04534,4.38516353,
0.04536,-4.464498447,0.04536,4.019733236,
0.04538,-3.00277727,0.04538,5.116024118,
0.0454,-5.926219624,0.0454,4.38516353,
0.04542,-5.195359035,0.04542,4.38516353,
0.04544,-3.368207564,0.04544,4.750593824,
0.04546,-5.195359035,0.04546,4.750593824,
0.04548,0.2860953773,0.04548,4.38516353,
0.0455,-2.271916682,0.0455,4.38516353,
0.04552,-3.733637859,0.04552,4.38516353,
0.04554,-1.541056094,0.04554,4.38516353,
0.04556,-4.464498447,0.04556,4.38516353,
0.04558,-2.637346976,0.04558,4.38516353,
0.0456,-1.175625799,0.0456,4.750593824,
0.04562,-0.8101955052,0.04562,4.38516353,
0.04564,-0.444765211,0.04564,4.38516353,
0.04566,0.2860953773,0.04566,4.38516353,
0.04568,0.2860953773,0.04568,4.38516353,
0.0457,-0.07933491686,0.0457,4.38516353,
0.04572,1.016955966,0.04572,4.019733236,
0.04574,5.036689202,0.04574,4.38516353,
0.04576,1.747816554,0.04576,4.38516353,
0.04578,1.38238626,0.04578,4.019733236,
0.0458,-0.8101955052,0.0458,4.750593824,
0.04582,3.209537731,0.04582,4.38516353,
0.04584,3.940398319,0.04584,4.38516353,
0.04586,3.574968025,0.04586,4.38516353,
0.04588,3.574968025,0.04588,4.750593824,
0.0459,6.132980084,0.0459,4.38516353,
0.04592,4.305828613,0.04592,4.750593824,
0.04594,2.844107437,0.04594,4.38516353,
0.04596,3.574968025,0.04596,3.654302942,
0.04598,3.574968025,0.04598,4.750593824,
0.046,2.844107437,0.046,4.750593824,
0.04602,2.478677142,0.04602,4.019733236,
0.04604,2.478677142,0.04604,4.38516353,
0.04606,1.747816554,0.04606,4.750593824,
0.04608,1.38238626,0.04608,4.019733236,
0.0461,0.6515256715,0.0461,5.116024118,
0.04612,-0.07933491686,0.04612,4.750593824,
0.04614,0.2860953773,0.04614,4.019733236,
0.04616,-1.175625799,0.04616,4.750593824,
0.04618,-0.444765211,0.04618,4.750593824,
0.0462,-4.099068153,0.0462,4.019733236,
0.04622,-1.175625799,0.04622,4.38516353,
0.04624,-3.368207564,0.04624,4.38516353,
0.04626,-1.906486388,0.04626,4.38516353,
0.04628,-3.00277727,0.04628,4.750593824,
0.0463,-3.733637859,0.0463,4.019733236,
0.04632,-3.368207564,0.04632,4.38516353,
0.04634,-3.368207564,0.04634,4.38516353,
0.04636,-3.733637859,0.04636,4.38516353,
0.04638,-4.099068153,0.04638,4.38516353,
0.0464,-1.175625799,0.0464,4.38516353,
0.04642,-4.464498447,0.04642,4.750593824,
0.04644,-3.00277727,0.04644,4.019733236,
0.04646,-1.906486388,0.04646,4.750593824,
0.04648,-3.368207564,0.04648,4.38516353,
0.0465,-2.637346976,0.0465,4.38516353,
0.04652,-2.637346976,0.04652,4.750593824,
0.04654,-1.906486388,0.04654,4.38516353,
0.04656,-1.175625799,0.04656,4.019733236,
0.04658,-0.8101955052,0.04658,4.750593824,
0.0466,-1.541056094,0.0466,4.38516353,
0.04662,1.38238626,0.04662,4.019733236,
0.04664,0.2860953773,0.04664,4.750593824,
0.04666,-0.07933491686,0.04666,4.750593824,
0.04668,2.113246848,0.04668,4.019733236,
0.0467,2.113246848,0.0467,4.750593824,
0.04672,1.747816554,0.04672,4.38516353,
0.04674,3.574968025,0.04674,4.019733236,
0.04676,6.132980084,0.04676,4.750593824,
0.04678,3.574968025,0.04678,4.38516353,
0.0468,3.574968025,0.0468,4.38516353,
0.04682,4.671258907,0.04682,5.116024118,
0.04684,3.209537731,0.04684,4.38516353,
0.04686,3.209537731,0.04686,4.38516353,
0.04688,2.844107437,0.04688,4.750593824,
0.0469,2.113246848,0.0469,4.019733236,
0.04692,3.209537731,0.04692,4.38516353,
0.04694,3.574968025,0.04694,3.654302942,
0.04696,2.113246848,0.04696,4.38516353,
0.04698,3.574968025,0.04698,4.38516353,
0.047,3.574968025,0.047,4.019733236,
0.04702,1.747816554,0.04702,4.38516353,
0.04704,1.747816554,0.04704,4.019733236,
0.04706,-1.175625799,0.04706,4.019733236,
0.04708,0.2860953773,0.04708,4.750593824,
0.0471,0.2860953773,0.0471,4.38516353,
0.04712,-1.541056094,0.04712,3.654302942,
0.04714,-1.175625799,0.04714,4.750593824,
0.04716,-2.271916682,0.04716,4.019733236,
0.04718,-3.733637859,0.04718,4.019733236,
0.0472,-1.906486388,0.0472,4.750593824,
0.04722,-2.637346976,0.04722,4.019733236,
0.04724,-3.368207564,0.04724,4.019733236,
0.04726,-3.733637859,0.04726,4.750593824,
0.04728,-2.637346976,0.04728,4.38516353,
0.0473,-4.099068153,0.0473,3.654302942,
0.04732,-3.368207564,0.04732,4.019733236,
0.04734,-2.271916682,0.04734,4.38516353,
0.04736,-3.733637859,0.04736,4.38516353,
0.04738,-3.00277727,0.04738,4.38516353,
0.0474,-3.733637859,0.0474,4.38516353,
0.04742,-1.906486388,0.04742,4.38516353,
0.04744,-1.541056094,0.04744,4.750593824,
0.04746,-1.541056094,0.04746,4.019733236,
0.04748,-1.906486388,0.04748,4.38516353,
0.0475,-1.175625799,0.0475,5.116024118,
0.04752,-0.07933491686,0.04752,4.019733236,
0.04754,-1.175625799,0.04754,4.750593824,
0.04756,0.2860953773,0.04756,4.38516353,
0.04758,1.38238626,0.04758,4.38516353,
0.0476,2.113246848,0.0476,4.750593824,
0.04762,1.38238626,0.04762,4.38516353,
0.04764,2.844107437,0.04764,4.38516353,
0.04766,2.844107437,0.04766,4.38516353,
0.04768,2.113246848,0.04768,4.38516353,
0.0477,2.844107437,0.0477,5.116024118,
0.04772,3.940398319,0.04772,4.38516353,
0.04774,1.747816554,0.04774,4.019733236,
0.04776,5.036689202,0.04776,4.38516353,
0.04778,4.305828613,0.04778,4.019733236,
0.0478,4.305828613,0.0478,4.38516353,
0.04782,1.747816554,0.04782,4.750593824,
0.04784,1.747816554,0.04784,4.750593824,
0.04786,2.478677142,0.04786,4.38516353,
0.04788,2.478677142,0.04788,4.38516353,
0.0479,2.844107437,0.0479,4.019733236,
0.04792,1.747816554,0.04792,4.750593824,
0.04794,1.747816554,0.04794,4.019733236,
0.04796,-1.541056094,0.04796,4.019733236,
0.04798,-0.07933491686,0.04798,4.38516353,
0.048,-1.175625799,0.048,5.116024118,
0.04802,1.016955966,0.04802,4.019733236,
0.04804,-0.8101955052,0.04804,4.750593824,
0.04806,-1.541056094,0.04806,4.38516353,
0.04808,-1.541056094,0.04808,4.750593824,
0.0481,-1.906486388,0.0481,4.019733236,
0.04812,-2.637346976,0.04812,4.38516353,
0.04814,-1.175625799,0.04814,4.019733236,
0.04816,0.2860953773,0.04816,4.750593824,
0.04818,-2.637346976,0.04818,4.38516353,
0.0482,-2.271916682,0.0482,5.116024118,
0.04822,-3.368207564,0.04822,3.654302942,
0.04824,-4.099068153,0.04824,4.38516353,
0.04826,-3.00277727,0.04826,4.38516353,
0.04828,-3.368207564,0.04828,4.38516353,
0.0483,-2.271916682,0.0483,4.750593824,
0.04832,-1.541056094,0.04832,4.019733236,
0.04834,-4.464498447,0.04834,4.38516353,
0.04836,-3.00277727,0.04836,4.38516353,
0.04838,-1.541056094,0.04838,4.019733236,
0.0484,-1.175625799,0.0484,3.288872648,
0.04842,-1.541056094,0.04842,4.38516353,
0.04844,-0.8101955052,0.04844,4.38516353,
0.04846,0.2860953773,0.04846,4.750593824,
0.04848,-0.07933491686,0.04848,4.750593824,
0.0485,0.2860953773,0.0485,5.846884707,
0.04852,1.747816554,0.04852,4.750593824,
0.04854,0.2860953773,0.04854,4.38516353,
0.04856,3.574968025,0.04856,4.38516353,
0.04858,3.574968025,0.04858,4.750593824,
0.0486,2.113246848,0.0486,5.481454413,
0.04862,3.209537731,0.04862,4.38516353,
0.04864,1.747816554,0.04864,4.750593824,
0.04866,3.574968025,0.04866,4.750593824,
0.04868,5.036689202,0.04868,4.019733236,
0.0487,5.402119496,0.0487,2.923442353,
0.04872,3.574968025,0.04872,4.019733236,
0.04874,3.940398319,0.04874,3.654302942,
0.04876,4.305828613,0.04876,4.750593824,
0.04878,2.113246848,0.04878,4.38516353,
0.0488,2.113246848,0.0488,5.481454413,
0.04882,5.402119496,0.04882,4.750593824,
0.04884,1.747816554,0.04884,4.38516353,
0.04886,1.747816554,0.04886,4.019733236,
0.04888,2.113246848,0.04888,4.38516353,
0.0489,-0.07933491686,0.0489,4.750593824,
0.04892,-0.444765211,0.04892,4.38516353,
0.04894,0.2860953773,0.04894,4.750593824,
0.04896,-0.8101955052,0.04896,4.38516353,
0.04898,-1.175625799,0.04898,4.38516353,
0.049,-1.906486388,0.049,3.654302942,
0.04902,-2.271916682,0.04902,4.38516353,
0.04904,-1.541056094,0.04904,4.019733236,
0.04906,-2.271916682,0.04906,4.38516353,
0.04908,-3.368207564,0.04908,4.38516353,
0.0491,-2.637346976,0.0491,5.481454413,
0.04912,-2.637346976,0.04912,4.38516353,
0.04914,-4.099068153,0.04914,4.38516353,
0.04916,-3.00277727,0.04916,4.38516353,
0.04918,-1.541056094,0.04918,4.750593824,
0.0492,-4.099068153,0.0492,3.654302942,
0.04922,-5.560789329,0.04922,4.019733236,
0.04924,-2.637346976,0.04924,4.750593824,
0.04926,-4.099068153,0.04926,4.38516353,
0.04928,-3.00277727,0.04928,4.750593824,
0.0493,-3.00277727,0.0493,3.654302942,
0.04932,-2.271916682,0.04932,4.750593824,
0.04934,-0.07933491686,0.04934,4.38516353,
0.04936,-0.444765211,0.04936,4.750593824,
0.04938,-0.8101955052,0.04938,4.750593824,
0.0494,-0.444765211,0.0494,5.116024118,
0.04942,1.38238626,0.04942,4.750593824,
0.04944,0.6515256715,0.04944,4.750593824,
0.04946,1.016955966,0.04946,4.38516353,
0.04948,2.478677142,0.04948,4.750593824,
0.0495,1.747816554,0.0495,5.116024118,
0.04952,2.113246848,0.04952,4.019733236,
0.04954,3.940398319,0.04954,4.38516353,
0.04956,2.844107437,0.04956,4.38516353,
0.04958,2.844107437,0.04958,4.38516353,
0.0496,4.305828613,0.0496,3.654302942,
0.04962,2.844107437,0.04962,4.38516353,
0.04964,4.305828613,0.04964,4.38516353,
0.04966,3.574968025,0.04966,5.116024118,
0.04968,3.209537731,0.04968,4.38516353,
0.0497,3.574968025,0.0497,4.38516353,
0.04972,4.305828613,0.04972,4.38516353,
0.04974,3.209537731,0.04974,4.38516353,
0.04976,2.113246848,0.04976,4.019733236,
0.04978,1.38238626,0.04978,3.654302942,
0.0498,2.113246848,0.0498,4.750593824,
0.04982,1.38238626,0.04982,4.38516353,
0.04984,0.6515256715,0.04984,3.654302942,
0.04986,2.478677142,0.04986,4.38516353,
0.04988,0.2860953773,0.04988,4.019733236,
0.0499,-1.906486388,0.0499,3.654302942,
0.04992,-1.906486388,0.04992,5.116024118,
0.04994,-1.541056094,0.04994,4.38516353,
0.04996,-2.637346976,0.04996,4.019733236,
0.04998,-2.637346976,0.04998,4.38516353,
0.05,-3.00277727,0.05,4.38516353,
0.05002,-3.00277727,0.05002,3.654302942,
0.05004,-3.368207564,0.05004,4.38516353,
0.05006,-2.637346976,0.05006,4.019733236,
0.05008,-3.00277727,0.05008,4.019733236,
0.0501,-2.637346976,0.0501,4.38516353,
0.05012,-0.07933491686,0.05012,4.38516353,
0.05014,-3.368207564,0.05014,4.019733236,
0.05016,-3.00277727,0.05016,4.38516353,
0.05018,-3.00277727,0.05018,4.38516353,
0.0502,-3.733637859,0.0502,3.654302942,
0.05022,-2.271916682,0.05022,4.38516353,
0.05024,-1.906486388,0.05024,4.38516353,
0.05026,-2.637346976,0.05026,3.654302942,
0.05028,-0.07933491686,0.05028,4.38516353,
0.0503,-0.8101955052,0.0503,5.116024118,
0.05032,-1.541056094,0.05032,3.654302942,
0.05034,-1.175625799,0.05034,4.38516353,
0.05036,0.6515256715,0.05036,4.38516353,
0.05038,0.2860953773,0.05038,3.654302942,
0.0504,1.747816554,0.0504,4.38516353,
0.05042,-0.07933491686,0.05042,4.38516353,
0.05044,2.113246848,0.05044,4.019733236,
0.05046,2.478677142,0.05046,4.38516353,
0.05048,3.209537731,0.05048,4.38516353,
0.0505,2.478677142,0.0505,4.019733236,
0.05052,4.671258907,0.05052,4.38516353,
0.05054,3.209537731,0.05054,3.654302942,
0.05056,2.844107437,0.05056,3.654302942,
0.05058,4.305828613,0.05058,4.019733236,
0.0506,2.844107437,0.0506,4.38516353,
0.05062,4.305828613,0.05062,4.019733236,
0.05064,3.209537731,0.05064,4.019733236,
0.05066,3.574968025,0.05066,4.38516353,
0.05068,2.478677142,0.05068,3.654302942,
0.0507,2.113246848,0.0507,4.019733236,
0.05072,1.747816554,0.05072,4.019733236,
0.05074,1.016955966,0.05074,3.654302942,
0.05076,1.016955966,0.05076,4.38516353,
0.05078,1.016955966,0.05078,3.654302942,
0.0508,-1.175625799,0.0508,3.654302942,
0.05082,1.38238626,0.05082,4.38516353,
0.05084,-0.8101955052,0.05084,4.38516353,
0.05086,-1.175625799,0.05086,4.019733236,
0.05088,-0.8101955052,0.05088,4.019733236,
0.0509,-1.906486388,0.0509,4.38516353,
0.05092,-3.00277727,0.05092,3.654302942,
0.05094,-3.00277727,0.05094,4.38516353,
0.05096,-2.637346976,0.05096,4.019733236,
0.05098,-3.368207564,0.05098,3.288872648,
0.051,-0.8101955052,0.051,4.019733236,
0.05102,-3.00277727,0.05102,4.750593824,
0.05104,-3.368207564,0.05104,3.654302942,
0.05106,-3.00277727,0.05106,4.019733236,
0.05108,-3.368207564,0.05108,4.38516353,
0.0511,-3.733637859,0.0511,4.019733236,
0.05112,-3.00277727,0.05112,4.750593824,
0.05114,-2.271916682,0.05114,4.38516353,
0.05116,-2.271916682,0.05116,4.019733236,
0.05118,-2.271916682,0.05118,4.750593824,
0.0512,-1.906486388,0.0512,4.019733236,
0.05122,-0.444765211,0.05122,3.288872648,
0.05124,-0.8101955052,0.05124,4.019733236,
0.05126,-0.07933491686,0.05126,3.654302942,
0.05128,2.113246848,0.05128,4.750593824,
0.0513,1.38238626,0.0513,4.38516353,
0.05132,0.2860953773,0.05132,4.750593824,
0.05134,1.747816554,0.05134,3.654302942,
0.05136,2.113246848,0.05136,4.019733236,
0.05138,3.209537731,0.05138,4.019733236,
0.0514,1.747816554,0.0514,4.019733236,
0.05142,3.574968025,0.05142,5.481454413,
0.05144,3.574968025,0.05144,4.019733236,
0.05146,6.132980084,0.05146,4.019733236,
0.05148,3.574968025,0.05148,4.38516353,
0.0515,3.574968025,0.0515,4.019733236,
0.05152,2.844107437,0.05152,3.288872648,
0.05154,3.574968025,0.05154,4.38516353,
0.05156,3.574968025,0.05156,4.019733236,
0.05158,3.574968025,0.05158,4.019733236,
0.0516,2.844107437,0.0516,4.38516353,
0.05162,2.844107437,0.05162,4.750593824,
0.05164,1.38238626,0.05164,4.019733236,
0.05166,1.38238626,0.05166,4.38516353,
0.05168,1.016955966,0.05168,4.38516353,
0.0517,1.38238626,0.0517,5.116024118,
0.05172,0.6515256715,0.05172,4.750593824,
0.05174,-0.444765211,0.05174,4.38516353,
0.05176,-1.541056094,0.05176,4.750593824,
0.05178,-1.541056094,0.05178,4.38516353,
0.0518,-1.175625799,0.0518,4.019733236,
0.05182,-1.906486388,0.05182,4.750593824,
0.05184,-3.00277727,0.05184,4.38516353,
0.05186,-2.637346976,0.05186,4.019733236,
0.05188,-2.637346976,0.05188,4.750593824,
0.0519,-4.099068153,0.0519,4.019733236,
0.05192,-3.00277727,0.05192,3.654302942,
0.05194,-3.00277727,0.05194,4.750593824,
0.05196,-4.464498447,0.05196,4.38516353,
0.05198,-3.733637859,0.05198,3.654302942,
0.052,-3.368207564,0.052,4.750593824,
0.05202,-4.464498447,0.05202,5.481454413,
0.05204,-3.368207564,0.05204,4.019733236,
0.05206,-2.271916682,0.05206,4.38516353,
0.05208,-3.368207564,0.05208,4.019733236,
0.0521,-3.733637859,0.0521,4.019733236,
0.05212,-2.271916682,0.05212,4.38516353,
0.05214,-2.271916682,0.05214,4.019733236,
0.05216,-0.07933491686,0.05216,3.654302942,
0.05218,-0.444765211,0.05218,4.750593824,
0.0522,1.747816554,0.0522,4.38516353,
0.05222,1.016955966,0.05222,4.019733236,
0.05224,-2.637346976,0.05224,4.750593824,
0.05226,0.6515256715,0.05226,4.019733236,
0.05228,1.747816554,0.05228,4.019733236,
0.0523,2.478677142,0.0523,4.750593824,
0.05232,2.844107437,0.05232,4.750593824,
0.05234,1.747816554,0.05234,3.654302942,
0.05236,4.305828613,0.05236,4.750593824,
0.05238,2.844107437,0.05238,4.38516353,
0.0524,2.844107437,0.0524,4.38516353,
0.05242,4.671258907,0.05242,5.481454413,
0.05244,3.574968025,0.05244,4.38516353,
0.05246,2.844107437,0.05246,4.019733236,
0.05248,3.574968025,0.05248,4.38516353,
0.0525,3.940398319,0.0525,4.019733236,
0.05252,2.844107437,0.05252,3.654302942,
0.05254,3.940398319,0.05254,4.019733236,
0.05256,1.747816554,0.05256,4.750593824,
0.05258,1.747816554,0.05258,4.750593824,
0.0526,2.113246848,0.0526,4.750593824,
0.05262,1.38238626,0.05262,3.654302942,
0.05264,0.6515256715,0.05264,4.38516353,
0.05266,-0.8101955052,0.05266,4.38516353,
0.05268,-1.906486388,0.05268,4.38516353,
0.0527,-0.444765211,0.0527,4.38516353,
0.05272,-1.541056094,0.05272,4.38516353,
0.05274,-0.8101955052,0.05274,4.38516353,
0.05276,-2.637346976,0.05276,4.38516353,
0.05278,-0.8101955052,0.05278,4.38516353,
0.0528,-3.733637859,0.0528,3.288872648,
0.05282,-2.637346976,0.05282,4.750593824,
0.05284,-3.368207564,0.05284,4.019733236,
0.05286,-3.733637859,0.05286,4.38516353,
0.05288,-3.733637859,0.05288,4.38516353,
0.0529,-3.733637859,0.0529,3.654302942,
0.05292,-6.291649918,0.05292,4.750593824,
0.05294,-2.271916682,0.05294,4.38516353,
0.05296,-3.00277727,0.05296,4.38516353,
0.05298,-2.637346976,0.05298,4.019733236,
0.053,-2.271916682,0.053,4.019733236,
0.05302,-3.368207564,0.05302,3.654302942,
0.05304,-2.637346976,0.05304,4.38516353,
0.05306,-1.175625799,0.05306,4.38516353,
0.05308,-1.541056094,0.05308,4.019733236,
0.0531,-0.8101955052,0.0531,4.38516353,
0.05312,1.38238626,0.05312,4.019733236,
0.05314,-1.175625799,0.05314,4.019733236,
0.05316,0.2860953773,0.05316,4.019733236,
0.05318,2.113246848,0.05318,4.019733236,
0.0532,1.38238626,0.0532,4.019733236,
0.05322,2.478677142,0.05322,4.750593824,
0.05324,3.574968025,0.05324,4.38516353,
0.05326,1.747816554,0.05326,3.288872648,
0.05328,2.844107437,0.05328,4.38516353,
0.0533,4.305828613,0.0533,4.750593824,
0.05332,3.574968025,0.05332,4.019733236,
0.05334,5.402119496,0.05334,4.38516353,
0.05336,4.671258907,0.05336,4.750593824,
0.05338,3.574968025,0.05338,3.654302942,
0.0534,2.478677142,0.0534,4.750593824,
0.05342,3.574968025,0.05342,4.38516353,
0.05344,5.76754979,0.05344,4.019733236,
0.05346,3.940398319,0.05346,4.38516353,
0.05348,2.478677142,0.05348,4.019733236,
0.0535,1.747816554,0.0535,4.019733236,
0.05352,2.113246848,0.05352,4.38516353,
0.05354,0.2860953773,0.05354,4.38516353,
0.05356,2.478677142,0.05356,3.654302942,
0.05358,1.016955966,0.05358,4.750593824,
0.0536,-0.07933491686,0.0536,4.38516353,
0.05362,-1.175625799,0.05362,4.019733236,
0.05364,-2.637346976,0.05364,4.750593824,
0.05366,-0.444765211,0.05366,4.38516353,
0.05368,-1.906486388,0.05368,4.38516353,
0.0537,-1.541056094,0.0537,4.38516353,
0.05372,-1.906486388,0.05372,4.750593824,
0.05374,-2.271916682,0.05374,3.654302942,
0.05376,-1.541056094,0.05376,4.750593824,
0.05378,-2.637346976,0.05378,4.38516353,
0.0538,-3.733637859,0.0538,3.654302942,
0.05382,-2.637346976,0.05382,4.019733236,
0.05384,-1.175625799,0.05384,4.019733236,
0.05386,-3.368207564,0.05386,3.654302942,
0.05388,-2.637346976,0.05388,3.654302942,
0.0539,-0.8101955052,0.0539,4.38516353,
0.05392,-3.368207564,0.05392,4.019733236,
0.05394,-1.175625799,0.05394,4.38516353,
0.05396,-1.175625799,0.05396,4.38516353,
0.05398,-1.906486388,0.05398,4.019733236,
0.054,-1.541056094,0.054,4.38516353,
0.05402,-2.271916682,0.05402,3.654302942,
0.05404,-1.175625799,0.05404,3.654302942,
0.05406,-0.07933491686,0.05406,4.750593824,
0.05408,1.016955966,0.05408,4.019733236,
0.0541,0.2860953773,0.0541,3.654302942,
0.05412,2.113246848,0.05412,4.38516353,
0.05414,0.2860953773,0.05414,4.38516353,
0.05416,2.113246848,0.05416,4.019733236,
0.05418,2.113246848,0.05418,4.019733236,
0.0542,2.478677142,0.0542,4.019733236,
0.05422,1.747816554,0.05422,4.019733236,
0.05424,2.113246848,0.05424,4.38516353,
0.05426,3.940398319,0.05426,4.019733236,
0.05428,3.940398319,0.05428,4.019733236,
0.0543,3.574968025,0.0543,4.019733236,
0.05432,3.940398319,0.05432,4.38516353,
0.05434,1.016955966,0.05434,4.019733236,
0.05436,1.016955966,0.05436,4.019733236,
0.05438,3.209537731,0.05438,4.019733236,
0.0544,3.209537731,0.0544,4.019733236,
0.05442,2.844107437,0.05442,4.019733236,
0.05444,2.478677142,0.05444,4.38516353,
0.05446,-0.8101955052,0.05446,4.019733236,
0.05448,1.747816554,0.05448,4.38516353,
0.0545,1.38238626,0.0545,4.38516353,
0.05452,0.2860953773,0.05452,4.019733236,
0.05454,1.38238626,0.05454,4.750593824,
0.05456,-0.8101955052,0.05456,4.019733236,
0.05458,-1.175625799,0.05458,4.019733236,
0.0546,-1.541056094,0.0546,4.750593824,
0.05462,-2.637346976,0.05462,4.019733236,
0.05464,-1.906486388,0.05464,4.019733236,
0.05466,-2.637346976,0.05466,4.750593824,
0.05468,-1.906486388,0.05468,4.019733236,
0.0547,-3.368207564,0.0547,4.019733236,
0.05472,-3.733637859,0.05472,4.38516353,
0.05474,-3.368207564,0.05474,4.019733236,
0.05476,-4.099068153,0.05476,4.38516353,
0.05478,-3.00277727,0.05478,4.750593824,
0.0548,-5.560789329,0.0548,4.38516353,
0.05482,-4.099068153,0.05482,4.019733236,
0.05484,-2.637346976,0.05484,4.750593824,
0.05486,-4.464498447,0.05486,4.019733236,
0.05488,-3.733637859,0.05488,4.38516353,
0.0549,-0.07933491686,0.0549,4.750593824,
0.05492,-3.368207564,0.05492,4.019733236,
0.05494,-2.637346976,0.05494,4.019733236,
0.05496,-0.8101955052,0.05496,4.750593824,
0.05498,0.2860953773,0.05498,4.38516353,
0.055,-0.07933491686,0.055,4.019733236,
0.05502,-0.07933491686,0.05502,5.116024118,
0.05504,-0.07933491686,0.05504,4.38516353,
0.05506,2.844107437,0.05506,4.019733236,
0.05508,1.747816554,0.05508,4.38516353,
0.0551,1.38238626,0.0551,4.38516353,
0.05512,2.844107437,0.05512,4.019733236,
0.05514,3.940398319,0.05514,4.019733236,
0.05516,3.574968025,0.05516,4.750593824,
0.05518,2.478677142,0.05518,4.38516353,
0.0552,4.671258907,0.0552,4.750593824,
0.05522,2.113246848,0.05522,4.019733236,
0.05524,3.574968025,0.05524,4.019733236,
0.05526,4.671258907,0.05526,4.750593824,
0.05528,3.574968025,0.05528,4.38516353,
0.0553,3.209537731,0.0553,4.019733236,
0.05532,2.844107437,0.05532,4.38516353,
0.05534,3.209537731,0.05534,3.654302942,
0.05536,2.113246848,0.05536,3.654302942,
0.05538,1.747816554,0.05538,4.38516353,
0.0554,2.113246848,0.0554,4.019733236,
0.05542,1.016955966,0.05542,4.019733236,
0.05544,-0.07933491686,0.05544,5.116024118,
0.05546,-0.444765211,0.05546,4.750593824,
0.05548,-1.906486388,0.05548,3.654302942,
0.0555,-0.07933491686,0.0555,4.750593824,
0.05552,-1.175625799,0.05552,4.38516353,
0.05554,-2.637346976,0.05554,3.288872648,
0.05556,-3.00277727,0.05556,4.750593824,
0.05558,-3.368207564,0.05558,4.019733236,
0.0556,-2.271916682,0.0556,4.38516353,
0.05562,-1.906486388,0.05562,5.116024118,
0.05564,-3.00277727,0.05564,3.654302942,
0.05566,-3.733637859,0.05566,4.019733236,
0.05568,-3.00277727,0.05568,5.116024118,
0.0557,-4.464498447,0.0557,4.38516353,
0.05572,-3.733637859,0.05572,4.38516353,
0.05574,-2.271916682,0.05574,4.38516353,
0.05576,-3.368207564,0.05576,4.38516353,
0.05578,-3.733637859,0.05578,4.38516353,
0.0558,-2.637346976,0.0558,4.750593824,
0.05582,-2.637346976,0.05582,4.019733236,
0.05584,-2.271916682,0.05584,4.750593824,
0.05586,-1.175625799,0.05586,4.38516353,
0.05588,-0.8101955052,0.05588,4.38516353,
0.0559,-0.8101955052,0.0559,4.38516353,
0.05592,-0.444765211,0.05592,4.38516353,
0.05594,-2.271916682,0.05594,2.923442353,
0.05596,0.6515256715,0.05596,4.38516353,
0.05598,0.6515256715,0.05598,4.38516353,
0.056,1.747816554,0.056,4.38516353,
0.05602,2.844107437,0.05602,4.38516353,
0.05604,1.747816554,0.05604,4.750593824,
0.05606,1.016955966,0.05606,4.38516353,
0.05608,2.844107437,0.05608,4.019733236,
0.0561,3.574968025,0.0561,4.019733236,
0.05612,2.844107437,0.05612,3.654302942,
0.05614,3.209537731,0.05614,5.481454413,
0.05616,3.209537731,0.05616,4.019733236,
0.05618,2.844107437,0.05618,4.38516353,
0.0562,2.844107437,0.0562,3.654302942,
0.05622,2.844107437,0.05622,4.38516353,
0.05624,3.940398319,0.05624,2.558012059,
0.05626,3.940398319,0.05626,4.38516353,
0.05628,1.016955966,0.05628,4.38516353,
0.0563,2.478677142,0.0563,4.38516353,
0.05632,1.38238626,0.05632,4.019733236,
0.05634,-0.07933491686,0.05634,5.846884707,
0.05636,1.016955966,0.05636,4.38516353,
0.05638,-0.8101955052,0.05638,4.38516353,
0.0564,-0.07933491686,0.0564,4.750593824,
0.05642,-0.444765211,0.05642,4.019733236,
0.05644,-2.271916682,0.05644,5.846884707,
0.05646,-2.637346976,0.05646,4.750593824,
0.05648,-1.906486388,0.05648,4.38516353,
0.0565,-1.175625799,0.0565,4.38516353,
0.05652,-2.637346976,0.05652,4.019733236,
0.05654,-2.271916682,0.05654,2.923442353,
0.05656,-2.637346976,0.05656,5.116024118,
0.05658,-3.733637859,0.05658,4.38516353,
0.0566,-3.368207564,0.0566,4.38516353,
0.05662,-3.733637859,0.05662,5.116024118,
0.05664,-4.464498447,0.05664,2.923442353,
0.05666,-3.00277727,0.05666,4.38516353,
0.05668,-3.368207564,0.05668,4.38516353,
0.0567,-3.368207564,0.0567,4.38516353,
0.05672,-2.637346976,0.05672,4.38516353,
0.05674,-2.637346976,0.05674,3.288872648,
0.05676,-1.541056094,0.05676,4.38516353,
0.05678,-1.906486388,0.05678,4.019733236,
0.0568,-1.175625799,0.0568,4.38516353,
0.05682,-2.637346976,0.05682,4.38516353,
0.05684,1.016955966,0.05684,5.116024118,
0.05686,0.2860953773,0.05686,4.750593824,
0.05688,-1.906486388,0.05688,4.38516353,
0.0569,0.6515256715,0.0569,4.38516353,
0.05692,1.38238626,0.05692,4.750593824,
0.05694,1.016955966,0.05694,5.481454413,
0.05696,1.747816554,0.05696,4.019733236,
0.05698,2.844107437,0.05698,4.750593824,
0.057,2.478677142,0.057,4.750593824,
0.05702,4.305828613,0.05702,4.019733236,
0.05704,3.574968025,0.05704,3.654302942,
0.05706,2.113246848,0.05706,4.750593824,
0.05708,3.209537731,0.05708,4.38516353,
0.0571,4.305828613,0.0571,5.116024118,
0.05712,3.574968025,0.05712,4.750593824,
0.05714,3.574968025,0.05714,4.019733236,
0.05716,3.574968025,0.05716,4.750593824,
0.05718,2.844107437,0.05718,4.750593824,
0.0572,1.747816554,0.0572,4.019733236,
0.05722,2.844107437,0.05722,4.750593824,
0.05724,1.747816554,0.05724,5.116024118,
0.05726,1.747816554,0.05726,4.38516353,
0.05728,0.2860953773,0.05728,4.750593824,
0.0573,0.2860953773,0.0573,4.750593824,
0.05732,0.2860953773,0.05732,4.38516353,
0.05734,0.2860953773,0.05734,5.116024118,
0.05736,-1.541056094,0.05736,4.38516353,
0.05738,-1.906486388,0.05738,4.38516353,
0.0574,-1.541056094,0.0574,4.750593824,
0.05742,-2.271916682,0.05742,4.38516353,
0.05744,-2.271916682,0.05744,3.654302942,
0.05746,-2.271916682,0.05746,4.750593824,
0.05748,-1.906486388,0.05748,4.38516353,
0.0575,-1.906486388,0.0575,4.750593824,
0.05752,-3.733637859,0.05752,4.38516353,
0.05754,-4.464498447,0.05754,5.116024118,
0.05756,-2.637346976,0.05756,4.750593824,
0.05758,-0.8101955052,0.05758,4.38516353,
0.0576,-3.00277727,0.0576,4.38516353,
0.05762,-3.733637859,0.05762,4.750593824,
0.05764,-3.00277727,0.05764,4.38516353,
0.05766,-3.733637859,0.05766,4.750593824,
0.05768,-2.271916682,0.05768,4.38516353,
0.0577,-1.541056094,0.0577,4.38516353,
0.05772,-1.541056094,0.05772,3.654302942,
0.05774,-1.541056094,0.05774,4.750593824,
0.05776,0.6515256715,0.05776,4.750593824,
0.05778,-0.444765211,0.05778,4.750593824,
0.0578,-0.07933491686,0.0578,4.38516353,
0.05782,0.2860953773,0.05782,4.750593824,
0.05784,1.016955966,0.05784,4.750593824,
0.05786,2.113246848,0.05786,4.38516353,
0.05788,1.747816554,0.05788,4.750593824,
0.0579,2.478677142,0.0579,4.750593824,
0.05792,1.747816554,0.05792,4.750593824,
0.05794,2.844107437,0.05794,4.750593824,
0.05796,4.305828613,0.05796,4.019733236,
0.05798,3.940398319,0.05798,5.116024118,
0.058,2.113246848,0.058,4.38516353,
0.05802,2.844107437,0.05802,4.38516353,
0.05804,4.305828613,0.05804,4.38516353,
0.05806,3.940398319,0.05806,4.38516353,
0.05808,5.036689202,0.05808,4.750593824,
0.0581,3.209537731,0.0581,4.750593824,
0.05812,3.209537731,0.05812,4.38516353,
0.05814,2.844107437,0.05814,4.019733236,
0.05816,3.209537731,0.05816,4.750593824,
0.05818,1.016955966,0.05818,4.38516353,
0.0582,1.747816554,0.0582,4.38516353,
0.05822,1.38238626,0.05822,4.38516353,
0.05824,1.38238626,0.05824,4.38516353,
0.05826,1.016955966,0.05826,4.38516353,
0.05828,-1.541056094,0.05828,4.38516353,
0.0583,-1.175625799,0.0583,4.38516353,
0.05832,-1.541056094,0.05832,4.750593824,
0.05834,-1.906486388,0.05834,4.750593824,
0.05836,-3.00277727,0.05836,4.38516353,
0.05838,-1.906486388,0.05838,4.38516353,
0.0584,-5.195359035,0.0584,5.116024118,
0.05842,-3.368207564,0.05842,4.019733236,
0.05844,-3.733637859,0.05844,4.019733236,
0.05846,-3.733637859,0.05846,4.750593824,
0.05848,-4.099068153,0.05848,4.38516353,
0.0585,-3.368207564,0.0585,4.019733236,
0.05852,-4.464498447,0.05852,4.019733236,
0.05854,-3.00277727,0.05854,5.481454413,
0.05856,-4.099068153,0.05856,4.019733236,
0.05858,-3.368207564,0.05858,4.38516353,
0.0586,-3.368207564,0.0586,4.019733236,
0.05862,-3.368207564,0.05862,3.654302942,
0.05864,-2.271916682,0.05864,4.750593824,
0.05866,-1.906486388,0.05866,4.38516353,
0.05868,-1.906486388,0.05868,4.38516353,
0.0587,0.2860953773,0.0587,4.38516353,
0.05872,-0.444765211,0.05872,4.38516353,
0.05874,-1.541056094,0.05874,4.019733236,
0.05876,0.6515256715,0.05876,5.116024118,
0.05878,1.016955966,0.05878,4.750593824,
0.0588,1.38238626,0.0588,4.38516353,
0.05882,1.016955966,0.05882,4.750593824,
