"A0_accX_x","A0_accX_y","A1_rmsX_x","A1_rmsX_y"
0,1.360694318,0,4.750593824,
2e-05,3.918706377,2e-05,4.750593824,
4e-05,4.649566965,4e-05,5.116024118,
6e-05,3.553276083,6e-05,5.116024118,
8e-05,5.014997259,8e-05,5.116024118,
0.0001,4.649566965,0.0001,5.116024118,
0.00012,3.918706377,0.00012,4.750593824,
0.00014,4.284136671,0.00014,4.750593824,
0.00016,4.649566965,0.00016,4.750593824,
0.00018,3.553276083,0.00018,4.38516353,
0.0002,2.822415494,0.0002,4.019733236,
0.00022,3.553276083,0.00022,5.481454413,
0.00024,2.822415494,0.00024,4.750593824,
0.00026,3.187845788,0.00026,4.750593824,
0.00028,2.4569852,0.00028,4.750593824,
0.0003,1.726124612,0.0003,5.116024118,
0.00032,2.091554906,0.00032,5.116024118,
0.00034,0.264403435,0.00034,5.116024118,
0.00036,-1.197317742,0.00036,4.019733236,
0.00038,-0.8318874475,0.00038,5.116024118,
0.0004,-2.293608624,0.0004,5.481454413,
0.00042,-1.92817833,0.00042,5.116024118,
0.00044,-1.562748036,0.00044,5.116024118,
0.00046,-2.293608624,0.00046,4.750593824,
0.00048,-3.389899507,0.00048,4.019733236,
0.0005,-3.389899507,0.0005,3.654302942,
0.00052,-3.389899507,0.00052,4.750593824,
0.00054,-4.120760095,0.00054,4.38516353,
0.00056,-4.120760095,0.00056,4.750593824,
0.00058,-4.486190389,0.00058,5.116024118,
0.0006,-4.851620683,0.0006,5.116024118,
0.00062,-3.755329801,0.00062,4.750593824,
0.00064,-2.659038918,0.00064,4.38516353,
0.00066,-3.755329801,0.00066,3.288872648,
0.00068,-1.562748036,0.00068,4.750593824,
0.0007,-3.024469212,0.0007,3.654302942,
0.00072,-1.562748036,0.00072,4.750593824,
0.00074,-0.8318874475,0.00074,4.750593824,
0.00076,-1.562748036,0.00076,4.750593824,
0.00078,-0.8318874475,0.00078,4.750593824,
0.0008,-0.4664571533,0.0008,5.481454413,
0.00082,0.6298337292,0.00082,4.750593824,
0.00084,0.6298337292,0.00084,4.750593824,
0.00086,2.091554906,0.00086,4.38516353,
0.00088,2.091554906,0.00088,4.38516353,
0.0009,2.091554906,0.0009,4.750593824,
0.00092,2.4569852,0.00092,5.116024118,
0.00094,3.918706377,0.00094,4.750593824,
0.00096,3.918706377,0.00096,4.38516353,
0.00098,4.284136671,0.00098,5.116024118,
0.001,5.014997259,0.001,4.019733236,
0.00102,4.649566965,0.00102,4.38516353,
0.00104,4.649566965,0.00104,4.750593824,
0.00106,4.649566965,0.00106,5.116024118,
0.00108,3.918706377,0.00108,4.38516353,
0.0011,4.649566965,0.0011,4.750593824,
0.00112,2.4569852,0.00112,5.116024118,
0.00114,2.4569852,0.00114,4.750593824,
0.00116,3.187845788,0.00116,5.481454413,
0.00118,2.4569852,0.00118,4.750593824,
0.0012,2.4569852,0.0012,4.38516353,
0.00122,0.6298337292,0.00122,4.750593824,
0.00124,1.360694318,0.00124,4.750593824,
0.00126,0.6298337292,0.00126,4.38516353,
0.00128,0.9952640234,0.00128,4.750593824,
0.0013,-0.8318874475,0.0013,5.116024118,
0.00132,-0.1010268591,0.00132,4.019733236,
0.00134,-1.197317742,0.00134,4.750593824,
0.00136,-1.92817833,0.00136,4.750593824,
0.00138,-3.024469212,0.00138,4.38516353,
0.0014,-2.659038918,0.0014,4.38516353,
0.00142,-1.197317742,0.00142,4.750593824,
0.00144,-3.389899507,0.00144,4.019733236,
0.00146,-3.389899507,0.00146,4.750593824,
0.00148,-4.851620683,0.00148,4.750593824,
0.0015,-3.024469212,0.0015,4.38516353,
0.00152,-4.486190389,0.00152,4.750593824,
0.00154,-4.486190389,0.00154,4.750593824,
0.00156,-4.120760095,0.00156,4.38516353,
0.00158,-3.389899507,0.00158,4.750593824,
0.0016,-3.024469212,0.0016,5.116024118,
0.00162,-4.851620683,0.00162,4.38516353,
0.00164,-1.92817833,0.00164,4.38516353,
0.00166,-2.293608624,0.00166,4.750593824,
0.00168,-1.92817833,0.00168,4.750593824,
0.0017,-1.562748036,0.0017,5.481454413,
0.00172,1.360694318,0.00172,5.846884707,
0.00174,1.360694318,0.00174,4.38516353,
0.00176,1.360694318,0.00176,4.750593824,
0.00178,0.9952640234,0.00178,4.750593824,
0.0018,1.360694318,0.0018,4.750593824,
0.00182,3.553276083,0.00182,4.750593824,
0.00184,2.822415494,0.00184,4.750593824,
0.00186,3.187845788,0.00186,4.38516353,
0.00188,1.726124612,0.00188,4.38516353,
0.0019,2.822415494,0.0019,4.750593824,
0.00192,3.187845788,0.00192,4.38516353,
0.00194,5.380427553,0.00194,4.750593824,
0.00196,2.091554906,0.00196,4.38516353,
0.00198,4.649566965,0.00198,4.019733236,
0.002,5.014997259,0.002,4.750593824,
0.00202,5.380427553,0.00202,4.750593824,
0.00204,3.553276083,0.00204,4.019733236,
0.00206,2.091554906,0.00206,4.750593824,
0.00208,3.918706377,0.00208,4.750593824,
0.0021,3.918706377,0.0021,5.846884707,
0.00212,3.918706377,0.00212,4.38516353,
0.00214,1.726124612,0.00214,4.38516353,
0.00216,1.726124612,0.00216,5.116024118,
0.00218,0.9952640234,0.00218,4.750593824,
0.0022,0.9952640234,0.0022,4.38516353,
0.00222,0.6298337292,0.00222,5.116024118,
0.00224,-1.562748036,0.00224,4.750593824,
0.00226,-1.92817833,0.00226,4.750593824,
0.00228,-2.293608624,0.00228,5.481454413,
0.0023,-2.293608624,0.0023,4.38516353,
0.00232,-3.024469212,0.00232,4.38516353,
0.00234,-2.293608624,0.00234,5.116024118,
0.00236,-4.120760095,0.00236,4.38516353,
0.00238,-4.120760095,0.00238,4.750593824,
0.0024,-3.755329801,0.0024,5.116024118,
0.00242,-5.217050978,0.00242,4.38516353,
0.00244,-4.120760095,0.00244,4.750593824,
0.00246,-1.562748036,0.00246,5.116024118,
0.00248,-4.120760095,0.00248,4.38516353,
0.0025,-5.217050978,0.0025,4.750593824,
0.00252,-0.1010268591,0.00252,5.116024118,
0.00254,-3.389899507,0.00254,5.116024118,
0.00256,-3.755329801,0.00256,5.116024118,
0.00258,-2.659038918,0.00258,4.750593824,
0.0026,-3.024469212,0.0026,5.116024118,
0.00262,-2.293608624,0.00262,4.750593824,
0.00264,-1.92817833,0.00264,5.116024118,
0.00266,0.6298337292,0.00266,4.750593824,
0.00268,0.9952640234,0.00268,5.116024118,
0.0027,-0.4664571533,0.0027,5.116024118,
0.00272,0.264403435,0.00272,4.750593824,
0.00274,3.187845788,0.00274,4.750593824,
0.00276,3.187845788,0.00276,5.116024118,
0.00278,2.4569852,0.00278,5.116024118,
0.0028,3.553276083,0.0028,4.750593824,
0.00282,2.4569852,0.00282,5.116024118,
0.00284,5.014997259,0.00284,4.750593824,
0.00286,3.918706377,0.00286,4.750593824,
0.00288,3.918706377,0.00288,4.750593824,
0.0029,3.187845788,0.0029,4.750593824,
0.00292,3.918706377,0.00292,4.750593824,
0.00294,4.284136671,0.00294,5.116024118,
0.00296,3.918706377,0.00296,5.116024118,
0.00298,3.918706377,0.00298,4.750593824,
0.003,2.091554906,0.003,5.481454413,
0.00302,3.187845788,0.00302,4.750593824,
0.00304,0.6298337292,0.00304,4.38516353,
0.00306,2.822415494,0.00306,5.481454413,
0.00308,3.553276083,0.00308,4.38516353,
0.0031,1.360694318,0.0031,4.750593824,
0.00312,0.6298337292,0.00312,5.116024118,
0.00314,-0.1010268591,0.00314,5.116024118,
0.00316,-2.293608624,0.00316,4.38516353,
0.00318,-2.659038918,0.00318,5.116024118,
0.0032,-1.197317742,0.0032,4.019733236,
0.00322,-2.659038918,0.00322,4.38516353,
0.00324,-2.293608624,0.00324,5.116024118,
0.00326,-1.562748036,0.00326,4.750593824,
0.00328,-2.659038918,0.00328,4.750593824,
0.0033,-3.024469212,0.0033,5.481454413,
0.00332,-4.851620683,0.00332,4.750593824,
0.00334,-4.486190389,0.00334,5.116024118,
0.00336,-3.389899507,0.00336,5.116024118,
0.00338,-4.851620683,0.00338,4.750593824,
0.0034,-1.197317742,0.0034,4.38516353,
0.00342,-3.755329801,0.00342,5.846884707,
0.00344,-4.486190389,0.00344,4.750593824,
0.00346,-3.755329801,0.00346,4.750593824,
0.00348,-3.024469212,0.00348,5.116024118,
0.0035,-3.024469212,0.0035,4.38516353,
0.00352,-4.486190389,0.00352,4.750593824,
0.00354,-3.024469212,0.00354,5.116024118,
0.00356,-1.197317742,0.00356,5.116024118,
0.00358,-1.197317742,0.00358,4.38516353,
0.0036,0.264403435,0.0036,5.481454413,
0.00362,0.9952640234,0.00362,4.750593824,
0.00364,-1.562748036,0.00364,4.750593824,
0.00366,1.726124612,0.00366,5.481454413,
0.00368,0.6298337292,0.00368,4.38516353,
0.0037,2.4569852,0.0037,4.38516353,
0.00372,3.553276083,0.00372,5.116024118,
0.00374,2.822415494,0.00374,4.750593824,
0.00376,3.187845788,0.00376,4.750593824,
0.00378,3.187845788,0.00378,5.116024118,
0.0038,3.553276083,0.0038,4.750593824,
0.00382,3.918706377,0.00382,4.750593824,
0.00384,3.918706377,0.00384,5.116024118,
0.00386,3.187845788,0.00386,4.38516353,
0.00388,3.553276083,0.00388,4.750593824,
0.0039,3.918706377,0.0039,5.116024118,
0.00392,2.4569852,0.00392,5.116024118,
0.00394,3.187845788,0.00394,4.38516353,
0.00396,3.187845788,0.00396,5.116024118,
0.00398,2.822415494,0.00398,5.116024118,
0.004,1.726124612,0.004,5.481454413,
0.00402,1.360694318,0.00402,4.38516353,
0.00404,3.553276083,0.00404,4.750593824,
0.00406,0.9952640234,0.00406,5.481454413,
0.00408,-0.1010268591,0.00408,5.116024118,
0.0041,-0.1010268591,0.0041,4.750593824,
0.00412,-0.8318874475,0.00412,4.38516353,
0.00414,-1.197317742,0.00414,4.38516353,
0.00416,-2.659038918,0.00416,4.750593824,
0.00418,-2.659038918,0.00418,5.116024118,
0.0042,-3.389899507,0.0042,5.116024118,
0.00422,-1.92817833,0.00422,5.116024118,
0.00424,-3.755329801,0.00424,5.116024118,
0.00426,-4.486190389,0.00426,5.116024118,
0.00428,-3.389899507,0.00428,4.750593824,
0.0043,-6.31334186,0.0043,5.481454413,
0.00432,-4.486190389,0.00432,6.212315001,
0.00434,-3.755329801,0.00434,4.750593824,
0.00436,-4.120760095,0.00436,5.116024118,
0.00438,-3.389899507,0.00438,5.116024118,
0.0044,-2.659038918,0.0044,4.750593824,
0.00442,-2.659038918,0.00442,5.481454413,
0.00444,-2.659038918,0.00444,5.116024118,
0.00446,-1.92817833,0.00446,4.750593824,
0.00448,-1.197317742,0.00448,5.116024118,
0.0045,-2.293608624,0.0045,4.38516353,
0.00452,-1.562748036,0.00452,3.654302942,
0.00454,0.264403435,0.00454,4.750593824,
0.00456,0.9952640234,0.00456,4.750593824,
0.00458,1.726124612,0.00458,4.750593824,
0.0046,1.726124612,0.0046,4.750593824,
0.00462,1.360694318,0.00462,3.654302942,
0.00464,1.726124612,0.00464,5.116024118,
0.00466,2.822415494,0.00466,5.116024118,
0.00468,1.726124612,0.00468,4.750593824,
0.0047,3.553276083,0.0047,5.116024118,
0.00472,3.187845788,0.00472,3.288872648,
0.00474,4.284136671,0.00474,5.116024118,
0.00476,4.649566965,0.00476,5.116024118,
0.00478,6.476718436,0.00478,4.750593824,
0.0048,4.284136671,0.0048,4.750593824,
0.00482,4.284136671,0.00482,7.308605883,
0.00484,4.284136671,0.00484,5.116024118,
0.00486,3.187845788,0.00486,5.116024118,
0.00488,2.822415494,0.00488,5.116024118,
0.0049,2.822415494,0.0049,5.116024118,
0.00492,2.4569852,0.00492,5.481454413,
0.00494,2.091554906,0.00494,4.38516353,
0.00496,2.091554906,0.00496,5.116024118,
0.00498,0.264403435,0.00498,5.116024118,
0.005,-0.1010268591,0.005,5.116024118,
0.00502,-0.1010268591,0.00502,3.654302942,
0.00504,-1.197317742,0.00504,5.116024118,
0.00506,-2.293608624,0.00506,4.750593824,
0.00508,-1.92817833,0.00508,4.750593824,
0.0051,-2.659038918,0.0051,5.116024118,
0.00512,-3.389899507,0.00512,5.481454413,
0.00514,-2.293608624,0.00514,5.116024118,
0.00516,-3.389899507,0.00516,5.116024118,
0.00518,-3.755329801,0.00518,4.750593824,
0.0052,-4.486190389,0.0052,5.116024118,
0.00522,-4.120760095,0.00522,6.212315001,
0.00524,-4.120760095,0.00524,5.116024118,
0.00526,-4.120760095,0.00526,4.750593824,
0.00528,-3.755329801,0.00528,5.116024118,
0.0053,-4.120760095,0.0053,4.38516353,
0.00532,-3.389899507,0.00532,5.481454413,
0.00534,-5.217050978,0.00534,4.750593824,
0.00536,-4.486190389,0.00536,4.750593824,
0.00538,-1.92817833,0.00538,5.116024118,
0.0054,-2.293608624,0.0054,5.116024118,
0.00542,-1.92817833,0.00542,4.019733236,
0.00544,-0.8318874475,0.00544,5.116024118,
0.00546,-0.4664571533,0.00546,4.750593824,
0.00548,-0.8318874475,0.00548,4.750593824,
0.0055,0.9952640234,0.0055,5.116024118,
0.00552,-0.1010268591,0.00552,4.750593824,
0.00554,2.4569852,0.00554,4.750593824,
0.00556,3.553276083,0.00556,5.116024118,
0.00558,2.4569852,0.00558,5.116024118,
0.0056,3.187845788,0.0056,5.116024118,
0.00562,3.918706377,0.00562,5.481454413,
0.00564,2.4569852,0.00564,4.750593824,
0.00566,3.918706377,0.00566,5.116024118,
0.00568,5.014997259,0.00568,5.481454413,
0.0057,3.918706377,0.0057,4.38516353,
0.00572,4.649566965,0.00572,4.38516353,
0.00574,4.284136671,0.00574,5.116024118,
0.00576,3.553276083,0.00576,4.750593824,
0.00578,4.649566965,0.00578,5.116024118,
0.0058,3.918706377,0.0058,5.116024118,
0.00582,1.726124612,0.00582,4.750593824,
0.00584,1.726124612,0.00584,4.38516353,
0.00586,2.822415494,0.00586,5.481454413,
0.00588,2.091554906,0.00588,4.38516353,
0.0059,0.6298337292,0.0059,4.38516353,
0.00592,0.6298337292,0.00592,5.116024118,
0.00594,-2.293608624,0.00594,4.750593824,
0.00596,-0.4664571533,0.00596,4.38516353,
0.00598,-3.389899507,0.00598,4.38516353,
0.006,-1.197317742,0.006,4.750593824,
0.00602,-2.293608624,0.00602,4.38516353,
0.00604,-3.389899507,0.00604,4.38516353,
0.00606,-3.389899507,0.00606,4.750593824,
0.00608,-2.659038918,0.00608,5.116024118,
0.0061,-3.389899507,0.0061,4.38516353,
0.00612,-3.024469212,0.00612,4.38516353,
0.00614,-0.4664571533,0.00614,4.750593824,
0.00616,-4.120760095,0.00616,4.38516353,
0.00618,-3.755329801,0.00618,4.750593824,
0.0062,-3.024469212,0.0062,4.750593824,
0.00622,-3.389899507,0.00622,4.38516353,
0.00624,-2.293608624,0.00624,4.750593824,
0.00626,-3.389899507,0.00626,4.750593824,
0.00628,-3.389899507,0.00628,4.019733236,
0.0063,-1.92817833,0.0063,4.750593824,
0.00632,-3.389899507,0.00632,5.116024118,
0.00634,-1.562748036,0.00634,4.38516353,
0.00636,-1.92817833,0.00636,4.750593824,
0.00638,-1.197317742,0.00638,4.750593824,
0.0064,1.360694318,0.0064,4.38516353,
0.00642,0.6298337292,0.00642,4.750593824,
0.00644,0.264403435,0.00644,4.750593824,
0.00646,2.091554906,0.00646,4.019733236,
0.00648,2.091554906,0.00648,4.750593824,
0.0065,2.822415494,0.0065,4.750593824,
0.00652,2.822415494,0.00652,4.019733236,
0.00654,2.091554906,0.00654,4.750593824,
0.00656,5.745857848,0.00656,5.116024118,
0.00658,3.187845788,0.00658,4.38516353,
0.0066,4.284136671,0.0066,5.116024118,
0.00662,6.111288142,0.00662,5.116024118,
0.00664,5.380427553,0.00664,4.38516353,
0.00666,5.014997259,0.00666,5.116024118,
0.00668,3.918706377,0.00668,4.750593824,
0.0067,4.284136671,0.0067,4.750593824,
0.00672,5.014997259,0.00672,4.750593824,
0.00674,5.380427553,0.00674,4.750593824,
0.00676,3.187845788,0.00676,4.750593824,
0.00678,2.4569852,0.00678,4.750593824,
0.0068,2.822415494,0.0068,4.38516353,
0.00682,1.726124612,0.00682,4.019733236,
0.00684,0.6298337292,0.00684,4.38516353,
0.00686,1.726124612,0.00686,4.38516353,
0.00688,-0.8318874475,0.00688,4.750593824,
0.0069,-0.4664571533,0.0069,4.750593824,
0.00692,-1.197317742,0.00692,4.750593824,
0.00694,0.264403435,0.00694,4.38516353,
0.00696,-1.92817833,0.00696,4.750593824,
0.00698,-2.293608624,0.00698,5.116024118,
0.007,-3.024469212,0.007,4.750593824,
0.00702,-3.024469212,0.00702,4.750593824,
0.00704,-3.389899507,0.00704,5.116024118,
0.00706,-2.659038918,0.00706,4.38516353,
0.00708,-3.024469212,0.00708,4.019733236,
0.0071,-3.389899507,0.0071,4.750593824,
0.00712,-2.293608624,0.00712,4.38516353,
0.00714,-3.024469212,0.00714,4.750593824,
0.00716,-4.120760095,0.00716,4.750593824,
0.00718,-3.389899507,0.00718,4.38516353,
0.0072,-3.755329801,0.0072,4.750593824,
0.00722,-4.120760095,0.00722,4.750593824,
0.00724,-1.92817833,0.00724,4.750593824,
0.00726,-2.293608624,0.00726,4.750593824,
0.00728,-1.92817833,0.00728,4.750593824,
0.0073,-2.293608624,0.0073,4.38516353,
0.00732,-0.4664571533,0.00732,4.750593824,
0.00734,0.264403435,0.00734,4.750593824,
0.00736,1.360694318,0.00736,4.38516353,
0.00738,1.360694318,0.00738,4.750593824,
0.0074,1.360694318,0.0074,5.116024118,
0.00742,2.4569852,0.00742,5.116024118,
0.00744,0.6298337292,0.00744,5.116024118,
0.00746,3.187845788,0.00746,4.750593824,
0.00748,2.822415494,0.00748,4.38516353,
0.0075,3.918706377,0.0075,4.38516353,
0.00752,4.649566965,0.00752,4.750593824,
0.00754,3.918706377,0.00754,4.750593824,
0.00756,5.014997259,0.00756,4.750593824,
0.00758,5.014997259,0.00758,4.750593824,
0.0076,4.649566965,0.0076,4.750593824,
0.00762,4.284136671,0.00762,5.116024118,
0.00764,3.918706377,0.00764,5.116024118,
0.00766,3.553276083,0.00766,4.750593824,
0.00768,3.918706377,0.00768,5.116024118,
0.0077,4.284136671,0.0077,4.750593824,
0.00772,2.091554906,0.00772,4.750593824,
0.00774,1.726124612,0.00774,5.846884707,
0.00776,2.091554906,0.00776,5.116024118,
0.00778,1.360694318,0.00778,5.116024118,
0.0078,0.6298337292,0.0078,4.750593824,
0.00782,-1.92817833,0.00782,4.750593824,
0.00784,-0.4664571533,0.00784,4.38516353,
0.00786,-0.8318874475,0.00786,5.481454413,
0.00788,-1.562748036,0.00788,5.116024118,
0.0079,-1.92817833,0.0079,4.750593824,
0.00792,-3.389899507,0.00792,4.750593824,
0.00794,-3.389899507,0.00794,4.019733236,
0.00796,-3.024469212,0.00796,5.116024118,
0.00798,-3.755329801,0.00798,5.116024118,
0.008,-4.120760095,0.008,4.38516353,
0.00802,-5.582481272,0.00802,4.750593824,
0.00804,-6.678772154,0.00804,5.846884707,
0.00806,-4.120760095,0.00806,5.481454413,
0.00808,-4.851620683,0.00808,4.38516353,
0.0081,-4.120760095,0.0081,4.750593824,
0.00812,-3.755329801,0.00812,5.116024118,
0.00814,-2.659038918,0.00814,4.38516353,
0.00816,-3.389899507,0.00816,4.38516353,
0.00818,-3.024469212,0.00818,5.116024118,
0.0082,0.264403435,0.0082,4.750593824,
0.00822,-1.562748036,0.00822,4.750593824,
0.00824,-0.8318874475,0.00824,4.750593824,
0.00826,-0.4664571533,0.00826,4.750593824,
0.00828,-0.1010268591,0.00828,4.750593824,
0.0083,0.6298337292,0.0083,5.481454413,
0.00832,0.9952640234,0.00832,5.116024118,
0.00834,0.264403435,0.00834,5.481454413,
0.00836,2.4569852,0.00836,5.116024118,
0.00838,2.4569852,0.00838,4.38516353,
0.0084,3.553276083,0.0084,4.750593824,
0.00842,3.553276083,0.00842,5.481454413,
0.00844,3.187845788,0.00844,5.846884707,
0.00846,3.918706377,0.00846,4.750593824,
0.00848,3.918706377,0.00848,5.116024118,
0.0085,6.476718436,0.0085,4.750593824,
0.00852,3.918706377,0.00852,4.750593824,
0.00854,4.649566965,0.00854,4.019733236,
0.00856,3.918706377,0.00856,4.750593824,
0.00858,3.918706377,0.00858,4.38516353,
0.0086,3.187845788,0.0086,5.481454413,
0.00862,3.918706377,0.00862,4.750593824,
0.00864,2.822415494,0.00864,4.750593824,
0.00866,1.360694318,0.00866,5.116024118,
0.00868,1.360694318,0.00868,5.116024118,
0.0087,0.6298337292,0.0087,4.38516353,
0.00872,0.6298337292,0.00872,5.116024118,
0.00874,-0.4664571533,0.00874,4.750593824,
0.00876,-0.8318874475,0.00876,4.38516353,
0.00878,-0.8318874475,0.00878,5.481454413,
0.0088,-1.92817833,0.0088,5.116024118,
0.00882,-2.293608624,0.00882,5.116024118,
0.00884,-1.562748036,0.00884,4.750593824,
0.00886,-4.851620683,0.00886,4.750593824,
0.00888,-3.755329801,0.00888,4.750593824,
0.0089,-4.486190389,0.0089,5.481454413,
0.00892,-4.120760095,0.00892,4.750593824,
0.00894,-3.024469212,0.00894,5.116024118,
0.00896,-5.217050978,0.00896,5.481454413,
0.00898,-3.755329801,0.00898,4.750593824,
0.009,-3.755329801,0.009,4.38516353,
0.00902,-4.486190389,0.00902,5.116024118,
0.00904,-6.31334186,0.00904,5.481454413,
0.00906,-1.197317742,0.00906,4.38516353,
0.00908,-3.024469212,0.00908,5.116024118,
0.0091,-3.024469212,0.0091,4.750593824,
0.00912,-1.92817833,0.00912,4.019733236,
0.00914,-1.197317742,0.00914,5.116024118,
0.00916,-0.4664571533,0.00916,5.116024118,
0.00918,-0.8318874475,0.00918,4.019733236,
0.0092,-0.1010268591,0.0092,5.481454413,
0.00922,0.264403435,0.00922,4.750593824,
0.00924,-0.1010268591,0.00924,4.019733236,
0.00926,0.9952640234,0.00926,5.116024118,
0.00928,1.360694318,0.00928,4.38516353,
0.0093,1.726124612,0.0093,4.38516353,
0.00932,3.187845788,0.00932,5.481454413,
0.00934,3.187845788,0.00934,4.750593824,
0.00936,2.4569852,0.00936,4.38516353,
0.00938,5.014997259,0.00938,5.481454413,
0.0094,3.918706377,0.0094,4.750593824,
0.00942,3.553276083,0.00942,4.38516353,
0.00944,5.380427553,0.00944,5.846884707,
0.00946,5.745857848,0.00946,4.750593824,
0.00948,3.918706377,0.00948,4.38516353,
0.0095,3.187845788,0.0095,5.116024118,
0.00952,3.187845788,0.00952,4.750593824,
0.00954,3.187845788,0.00954,4.019733236,
0.00956,3.918706377,0.00956,5.116024118,
0.00958,2.091554906,0.00958,4.750593824,
0.0096,2.091554906,0.0096,4.750593824,
0.00962,0.9952640234,0.00962,4.750593824,
0.00964,0.9952640234,0.00964,4.38516353,
0.00966,0.264403435,0.00966,4.750593824,
0.00968,-0.1010268591,0.00968,5.116024118,
0.0097,-0.8318874475,0.0097,5.116024118,
0.00972,-1.197317742,0.00972,4.750593824,
0.00974,-2.293608624,0.00974,4.750593824,
0.00976,-3.389899507,0.00976,4.750593824,
0.00978,-2.659038918,0.00978,4.750593824,
0.0098,-3.389899507,0.0098,5.116024118,
0.00982,-2.659038918,0.00982,4.750593824,
0.00984,-3.389899507,0.00984,4.38516353,
0.00986,-3.755329801,0.00986,5.116024118,
0.00988,-5.582481272,0.00988,4.750593824,
0.0099,-3.389899507,0.0099,4.750593824,
0.00992,-2.293608624,0.00992,5.116024118,
0.00994,-4.851620683,0.00994,4.750593824,
0.00996,-2.293608624,0.00996,4.750593824,
0.00998,-2.293608624,0.00998,5.481454413,
0.01,-2.293608624,0.01,4.750593824,
0.01002,-3.024469212,0.01002,4.38516353,
0.01004,-3.389899507,0.01004,5.116024118,
0.01006,-0.8318874475,0.01006,5.116024118,
0.01008,-0.8318874475,0.01008,4.750593824,
0.0101,-0.8318874475,0.0101,5.116024118,
0.01012,-1.562748036,0.01012,4.750593824,
0.01014,-0.1010268591,0.01014,4.750593824,
0.01016,-0.4664571533,0.01016,5.481454413,
0.01018,0.6298337292,0.01018,5.116024118,
0.0102,1.360694318,0.0102,4.38516353,
0.01022,2.091554906,0.01022,4.750593824,
0.01024,1.726124612,0.01024,4.750593824,
0.01026,1.726124612,0.01026,4.38516353,
0.01028,3.553276083,0.01028,5.116024118,
0.0103,3.187845788,0.0103,4.750593824,
0.01032,3.553276083,0.01032,4.38516353,
0.01034,4.284136671,0.01034,5.481454413,
0.01036,1.360694318,0.01036,5.116024118,
0.01038,3.553276083,0.01038,4.38516353,
0.0104,4.649566965,0.0104,5.481454413,
0.01042,3.553276083,0.01042,5.116024118,
0.01044,4.284136671,0.01044,4.750593824,
0.01046,3.187845788,0.01046,4.750593824,
0.01048,3.187845788,0.01048,4.750593824,
0.0105,1.360694318,0.0105,4.750593824,
0.01052,2.4569852,0.01052,5.481454413,
0.01054,0.9952640234,0.01054,5.116024118,
0.01056,1.726124612,0.01056,4.750593824,
0.01058,0.9952640234,0.01058,5.116024118,
0.0106,-0.1010268591,0.0106,5.116024118,
0.01062,-1.562748036,0.01062,4.750593824,
0.01064,-0.8318874475,0.01064,5.116024118,
0.01066,-3.024469212,0.01066,4.750593824,
0.01068,-3.024469212,0.01068,4.750593824,
0.0107,-3.024469212,0.0107,5.481454413,
0.01072,-2.659038918,0.01072,5.116024118,
0.01074,-3.024469212,0.01074,4.750593824,
0.01076,-4.120760095,0.01076,5.481454413,
0.01078,-4.851620683,0.01078,4.750593824,
0.0108,-3.755329801,0.0108,4.750593824,
0.01082,-3.755329801,0.01082,5.116024118,
0.01084,-4.486190389,0.01084,4.750593824,
0.01086,-4.851620683,0.01086,4.750593824,
0.01088,-5.947911566,0.01088,5.481454413,
0.0109,-4.120760095,0.0109,5.116024118,
0.01092,-3.024469212,0.01092,4.019733236,
0.01094,-5.582481272,0.01094,5.116024118,
0.01096,-3.389899507,0.01096,5.481454413,
0.01098,-2.293608624,0.01098,5.116024118,
0.011,-1.562748036,0.011,5.481454413,
0.01102,-3.024469212,0.01102,4.750593824,
0.01104,-0.8318874475,0.01104,4.750593824,
0.01106,0.6298337292,0.01106,5.116024118,
0.01108,-0.4664571533,0.01108,5.481454413,
0.0111,2.091554906,0.0111,4.38516353,
0.01112,2.091554906,0.01112,5.481454413,
0.01114,1.726124612,0.01114,5.116024118,
0.01116,3.918706377,0.01116,4.750593824,
0.01118,2.4569852,0.01118,4.750593824,
0.0112,2.822415494,0.0112,5.481454413,
0.01122,3.553276083,0.01122,4.750593824,
0.01124,5.014997259,0.01124,5.116024118,
0.01126,3.553276083,0.01126,4.750593824,
0.01128,4.284136671,0.01128,4.750593824,
0.0113,4.649566965,0.0113,4.750593824,
0.01132,3.918706377,0.01132,5.116024118,
0.01134,4.284136671,0.01134,4.750593824,
0.01136,3.553276083,0.01136,5.116024118,
0.01138,3.553276083,0.01138,5.116024118,
0.0114,2.822415494,0.0114,4.750593824,
0.01142,2.822415494,0.01142,5.116024118,
0.01144,2.4569852,0.01144,5.116024118,
0.01146,1.726124612,0.01146,5.116024118,
0.01148,2.4569852,0.01148,5.116024118,
0.0115,2.4569852,0.0115,5.116024118,
0.01152,0.6298337292,0.01152,5.116024118,
0.01154,-0.1010268591,0.01154,5.116024118,
0.01156,-0.1010268591,0.01156,4.750593824,
0.01158,-1.197317742,0.01158,4.750593824,
0.0116,-1.562748036,0.0116,4.38516353,
0.01162,-1.92817833,0.01162,4.750593824,
0.01164,-3.024469212,0.01164,4.38516353,
0.01166,-1.197317742,0.01166,4.38516353,
0.01168,-3.755329801,0.01168,4.750593824,
0.0117,-2.659038918,0.0117,4.38516353,
0.01172,-4.120760095,0.01172,4.750593824,
0.01174,-4.486190389,0.01174,5.116024118,
0.01176,-5.217050978,0.01176,4.019733236,
0.01178,-4.486190389,0.01178,4.38516353,
0.0118,-2.659038918,0.0118,4.750593824,
0.01182,-2.293608624,0.01182,4.750593824,
0.01184,-3.755329801,0.01184,4.38516353,
0.01186,-4.486190389,0.01186,5.116024118,
0.01188,-3.024469212,0.01188,5.116024118,
0.0119,-3.024469212,0.0119,4.750593824,
0.01192,-1.197317742,0.01192,5.116024118,
0.01194,-1.562748036,0.01194,4.750593824,
0.01196,-3.389899507,0.01196,4.750593824,
0.01198,-0.4664571533,0.01198,4.38516353,
0.012,0.9952640234,0.012,5.116024118,
0.01202,0.6298337292,0.01202,4.38516353,
0.01204,0.9952640234,0.01204,4.750593824,
0.01206,2.091554906,0.01206,4.019733236,
0.01208,4.284136671,0.01208,4.38516353,
0.0121,3.553276083,0.0121,5.116024118,
0.01212,3.553276083,0.01212,4.750593824,
0.01214,3.553276083,0.01214,4.38516353,
0.01216,5.014997259,0.01216,5.846884707,
0.01218,4.649566965,0.01218,4.750593824,
0.0122,4.649566965,0.0122,4.019733236,
0.01222,2.091554906,0.01222,4.019733236,
0.01224,5.014997259,0.01224,4.750593824,
0.01226,2.822415494,0.01226,4.750593824,
0.01228,4.649566965,0.01228,4.750593824,
0.0123,4.284136671,0.0123,4.38516353,
0.01232,4.284136671,0.01232,4.019733236,
0.01234,3.553276083,0.01234,5.116024118,
0.01236,3.187845788,0.01236,3.654302942,
0.01238,2.4569852,0.01238,4.750593824,
0.0124,1.726124612,0.0124,4.750593824,
0.01242,0.264403435,0.01242,4.750593824,
0.01244,-0.1010268591,0.01244,4.38516353,
0.01246,0.6298337292,0.01246,3.654302942,
0.01248,-0.1010268591,0.01248,4.38516353,
0.0125,-1.92817833,0.0125,4.019733236,
0.01252,-0.8318874475,0.01252,4.750593824,
0.01254,-2.659038918,0.01254,4.750593824,
0.01256,-2.293608624,0.01256,4.750593824,
0.01258,-2.293608624,0.01258,4.750593824,
0.0126,-1.92817833,0.0126,4.750593824,
0.01262,-3.389899507,0.01262,4.019733236,
0.01264,-4.120760095,0.01264,4.750593824,
0.01266,-3.755329801,0.01266,6.212315001,
0.01268,-3.024469212,0.01268,4.38516353,
0.0127,-4.120760095,0.0127,5.116024118,
0.01272,-3.389899507,0.01272,4.750593824,
0.01274,-6.31334186,0.01274,4.019733236,
0.01276,-2.293608624,0.01276,4.750593824,
0.01278,-3.755329801,0.01278,4.38516353,
0.0128,-4.486190389,0.0128,5.116024118,
0.01282,-3.024469212,0.01282,5.116024118,
0.01284,-2.293608624,0.01284,4.750593824,
0.01286,-1.562748036,0.01286,3.288872648,
0.01288,-2.659038918,0.01288,5.481454413,
0.0129,-1.92817833,0.0129,5.116024118,
0.01292,0.264403435,0.01292,5.116024118,
0.01294,-0.4664571533,0.01294,4.750593824,
0.01296,1.360694318,0.01296,4.38516353,
0.01298,1.360694318,0.01298,5.116024118,
0.013,0.9952640234,0.013,5.116024118,
0.01302,2.4569852,0.01302,5.116024118,
0.01304,3.553276083,0.01304,4.750593824,
0.01306,3.918706377,0.01306,6.212315001,
0.01308,3.553276083,0.01308,5.116024118,
0.0131,4.649566965,0.0131,4.750593824,
0.01312,5.014997259,0.01312,4.750593824,
0.01314,4.649566965,0.01314,5.116024118,
0.01316,3.187845788,0.01316,4.019733236,
0.01318,3.553276083,0.01318,4.38516353,
0.0132,3.918706377,0.0132,5.481454413,
0.01322,4.284136671,0.01322,4.750593824,
0.01324,3.187845788,0.01324,4.38516353,
0.01326,1.726124612,0.01326,4.019733236,
0.01328,2.4569852,0.01328,4.750593824,
0.0133,2.4569852,0.0133,4.38516353,
0.01332,2.091554906,0.01332,5.116024118,
0.01334,1.726124612,0.01334,4.750593824,
0.01336,2.822415494,0.01336,5.481454413,
0.01338,1.360694318,0.01338,5.116024118,
0.0134,-0.4664571533,0.0134,4.750593824,
0.01342,-0.4664571533,0.01342,4.38516353,
0.01344,-0.4664571533,0.01344,5.481454413,
0.01346,-1.92817833,0.01346,6.212315001,
0.01348,-2.293608624,0.01348,5.116024118,
0.0135,-2.293608624,0.0135,5.116024118,
0.01352,-4.120760095,0.01352,4.750593824,
0.01354,-3.389899507,0.01354,4.38516353,
0.01356,-4.486190389,0.01356,4.38516353,
0.01358,-4.120760095,0.01358,4.750593824,
0.0136,-5.217050978,0.0136,4.019733236,
0.01362,-3.755329801,0.01362,4.750593824,
0.01364,-4.851620683,0.01364,4.750593824,
0.01366,-4.851620683,0.01366,4.38516353,
0.01368,-3.389899507,0.01368,5.481454413,
0.0137,-3.755329801,0.0137,4.750593824,
0.01372,-4.486190389,0.01372,4.750593824,
0.01374,-4.851620683,0.01374,5.116024118,
0.01376,-3.389899507,0.01376,5.481454413,
0.01378,-1.92817833,0.01378,4.38516353,
0.0138,-1.92817833,0.0138,5.116024118,
0.01382,-1.92817833,0.01382,5.116024118,
0.01384,-0.8318874475,0.01384,4.750593824,
0.01386,0.264403435,0.01386,5.116024118,
0.01388,-0.4664571533,0.01388,4.38516353,
0.0139,1.360694318,0.0139,4.38516353,
0.01392,1.360694318,0.01392,5.116024118,
0.01394,1.726124612,0.01394,4.750593824,
0.01396,2.822415494,0.01396,4.019733236,
0.01398,3.918706377,0.01398,5.116024118,
0.014,2.4569852,0.014,5.116024118,
0.01402,3.187845788,0.01402,4.750593824,
0.01404,3.918706377,0.01404,5.481454413,
0.01406,3.918706377,0.01406,4.38516353,
0.01408,3.187845788,0.01408,4.750593824,
0.0141,3.187845788,0.0141,5.481454413,
0.01412,3.918706377,0.01412,4.750593824,
0.01414,4.284136671,0.01414,4.019733236,
0.01416,2.822415494,0.01416,4.750593824,
0.01418,2.4569852,0.01418,5.116024118,
0.0142,3.553276083,0.0142,4.019733236,
0.01422,3.553276083,0.01422,5.116024118,
0.01424,5.380427553,0.01424,4.750593824,
0.01426,2.4569852,0.01426,4.750593824,
0.01428,2.091554906,0.01428,5.116024118,
0.0143,0.9952640234,0.0143,4.750593824,
0.01432,-0.8318874475,0.01432,4.750593824,
0.01434,1.360694318,0.01434,5.116024118,
0.01436,-1.562748036,0.01436,4.019733236,
0.01438,-1.197317742,0.01438,4.750593824,
0.0144,-1.197317742,0.0144,5.116024118,
0.01442,-3.389899507,0.01442,4.750593824,
0.01444,-2.293608624,0.01444,4.750593824,
0.01446,-3.024469212,0.01446,5.116024118,
0.01448,-5.217050978,0.01448,4.750593824,
0.0145,-3.755329801,0.0145,4.38516353,
0.01452,-3.755329801,0.01452,5.116024118,
0.01454,-4.486190389,0.01454,4.750593824,
0.01456,-4.120760095,0.01456,4.38516353,
0.01458,-3.024469212,0.01458,5.481454413,
0.0146,-4.486190389,0.0146,4.750593824,
0.01462,-4.120760095,0.01462,4.38516353,
0.01464,-1.197317742,0.01464,4.750593824,
0.01466,-5.217050978,0.01466,4.750593824,
0.01468,-3.024469212,0.01468,4.750593824,
0.0147,-2.293608624,0.0147,4.750593824,
0.01472,-3.389899507,0.01472,4.750593824,
0.01474,-2.293608624,0.01474,5.116024118,
0.01476,-0.1010268591,0.01476,5.116024118,
0.01478,-1.562748036,0.01478,4.019733236,
0.0148,-0.4664571533,0.0148,4.750593824,
0.01482,0.9952640234,0.01482,5.116024118,
0.01484,0.9952640234,0.01484,4.750593824,
0.01486,1.360694318,0.01486,4.38516353,
0.01488,2.822415494,0.01488,5.481454413,
0.0149,2.4569852,0.0149,4.750593824,
0.01492,2.4569852,0.01492,4.38516353,
0.01494,3.553276083,0.01494,5.481454413,
0.01496,3.187845788,0.01496,4.750593824,
0.01498,3.187845788,0.01498,4.38516353,
0.015,2.822415494,0.015,5.116024118,
0.01502,3.918706377,0.01502,5.116024118,
0.01504,3.553276083,0.01504,4.750593824,
0.01506,5.014997259,0.01506,5.116024118,
0.01508,5.745857848,0.01508,4.750593824,
0.0151,2.822415494,0.0151,4.38516353,
0.01512,2.822415494,0.01512,5.481454413,
0.01514,2.822415494,0.01514,5.116024118,
0.01516,3.553276083,0.01516,4.019733236,
0.01518,2.822415494,0.01518,5.481454413,
0.0152,0.9952640234,0.0152,4.38516353,
0.01522,-0.4664571533,0.01522,4.019733236,
0.01524,0.6298337292,0.01524,5.116024118,
0.01526,-1.92817833,0.01526,4.38516353,
0.01528,0.264403435,0.01528,4.38516353,
0.0153,-0.8318874475,0.0153,5.116024118,
0.01532,-1.92817833,0.01532,4.750593824,
0.01534,-2.659038918,0.01534,4.38516353,
0.01536,-1.562748036,0.01536,5.116024118,
0.01538,-3.389899507,0.01538,5.481454413,
0.0154,-3.024469212,0.0154,4.750593824,
0.01542,-2.659038918,0.01542,5.116024118,
0.01544,-4.120760095,0.01544,5.116024118,
0.01546,-3.755329801,0.01546,4.750593824,
0.01548,-4.851620683,0.01548,5.116024118,
0.0155,-6.678772154,0.0155,5.481454413,
0.01552,-4.486190389,0.01552,4.38516353,
0.01554,-4.486190389,0.01554,5.116024118,
0.01556,-4.120760095,0.01556,5.116024118,
0.01558,-3.755329801,0.01558,4.38516353,
0.0156,-3.389899507,0.0156,4.750593824,
0.01562,-2.293608624,0.01562,4.750593824,
0.01564,-2.659038918,0.01564,4.750593824,
0.01566,-2.293608624,0.01566,5.116024118,
0.01568,-1.562748036,0.01568,5.116024118,
0.0157,-0.8318874475,0.0157,4.019733236,
0.01572,0.264403435,0.01572,5.116024118,
0.01574,-0.4664571533,0.01574,5.116024118,
0.01576,1.360694318,0.01576,4.38516353,
0.01578,0.9952640234,0.01578,5.846884707,
0.0158,0.9952640234,0.0158,5.116024118,
0.01582,2.4569852,0.01582,4.750593824,
0.01584,3.187845788,0.01584,5.116024118,
0.01586,2.822415494,0.01586,5.116024118,
0.01588,4.649566965,0.01588,4.38516353,
0.0159,4.649566965,0.0159,5.481454413,
0.01592,6.111288142,0.01592,4.750593824,
0.01594,5.014997259,0.01594,5.116024118,
0.01596,4.649566965,0.01596,5.116024118,
0.01598,4.649566965,0.01598,4.019733236,
0.016,4.649566965,0.016,4.38516353,
0.01602,5.014997259,0.01602,5.481454413,
0.01604,3.553276083,0.01604,5.481454413,
0.01606,4.284136671,0.01606,4.750593824,
0.01608,2.822415494,0.01608,5.116024118,
0.0161,2.4569852,0.0161,5.116024118,
0.01612,2.4569852,0.01612,4.750593824,
0.01614,2.091554906,0.01614,5.481454413,
0.01616,0.9952640234,0.01616,4.750593824,
0.01618,0.9952640234,0.01618,5.481454413,
0.0162,-0.1010268591,0.0162,4.750593824,
0.01622,-0.8318874475,0.01622,4.750593824,
0.01624,-1.197317742,0.01624,4.750593824,
0.01626,-0.8318874475,0.01626,5.481454413,
0.01628,-1.92817833,0.01628,4.750593824,
0.0163,-1.197317742,0.0163,5.116024118,
0.01632,-2.659038918,0.01632,5.116024118,
0.01634,-4.120760095,0.01634,4.750593824,
0.01636,-3.024469212,0.01636,4.38516353,
0.01638,-4.120760095,0.01638,4.019733236,
0.0164,-4.486190389,0.0164,5.481454413,
0.01642,-4.851620683,0.01642,4.750593824,
0.01644,-3.755329801,0.01644,4.750593824,
0.01646,-2.659038918,0.01646,4.750593824,
0.01648,-3.755329801,0.01648,5.481454413,
0.0165,-3.024469212,0.0165,5.116024118,
0.01652,-3.755329801,0.01652,4.750593824,
0.01654,-2.659038918,0.01654,4.750593824,
0.01656,-2.659038918,0.01656,5.116024118,
0.01658,-2.659038918,0.01658,5.846884707,
0.0166,-0.4664571533,0.0166,4.38516353,
0.01662,-0.8318874475,0.01662,5.116024118,
0.01664,-0.8318874475,0.01664,4.750593824,
0.01666,-0.1010268591,0.01666,4.750593824,
0.01668,0.264403435,0.01668,4.750593824,
0.0167,-0.4664571533,0.0167,4.750593824,
0.01672,1.360694318,0.01672,4.750593824,
0.01674,2.4569852,0.01674,5.116024118,
0.01676,2.091554906,0.01676,4.750593824,
0.01678,1.726124612,0.01678,4.38516353,
0.0168,1.726124612,0.0168,5.116024118,
0.01682,3.553276083,0.01682,4.750593824,
0.01684,3.553276083,0.01684,4.750593824,
0.01686,4.649566965,0.01686,5.116024118,
0.01688,3.918706377,0.01688,5.846884707,
0.0169,5.745857848,0.0169,4.750593824,
0.01692,3.918706377,0.01692,5.116024118,
0.01694,4.284136671,0.01694,5.116024118,
0.01696,6.111288142,0.01696,4.750593824,
0.01698,3.187845788,0.01698,4.750593824,
0.017,5.380427553,0.017,5.116024118,
0.01702,1.726124612,0.01702,4.750593824,
0.01704,2.091554906,0.01704,5.116024118,
0.01706,1.726124612,0.01706,4.750593824,
0.01708,1.360694318,0.01708,4.019733236,
0.0171,0.6298337292,0.0171,4.750593824,
0.01712,-1.562748036,0.01712,5.116024118,
0.01714,-0.1010268591,0.01714,4.750593824,
0.01716,-0.8318874475,0.01716,5.116024118,
0.01718,-1.562748036,0.01718,4.38516353,
0.0172,-3.024469212,0.0172,4.750593824,
0.01722,-1.562748036,0.01722,5.116024118,
0.01724,-4.120760095,0.01724,5.116024118,
0.01726,-3.024469212,0.01726,4.750593824,
0.01728,-3.024469212,0.01728,5.481454413,
0.0173,-0.8318874475,0.0173,4.38516353,
0.01732,-3.389899507,0.01732,4.38516353,
0.01734,-4.120760095,0.01734,4.750593824,
0.01736,-3.755329801,0.01736,4.38516353,
0.01738,-3.389899507,0.01738,4.38516353,
0.0174,-5.217050978,0.0174,4.750593824,
0.01742,-4.486190389,0.01742,5.116024118,
0.01744,-3.755329801,0.01744,4.750593824,
0.01746,-3.389899507,0.01746,4.38516353,
0.01748,-3.024469212,0.01748,4.38516353,
0.0175,-3.389899507,0.0175,4.750593824,
0.01752,-2.659038918,0.01752,4.38516353,
0.01754,-0.8318874475,0.01754,4.38516353,
0.01756,-0.8318874475,0.01756,4.019733236,
0.01758,-1.197317742,0.01758,4.38516353,
0.0176,1.726124612,0.0176,4.750593824,
0.01762,1.360694318,0.01762,5.116024118,
0.01764,0.9952640234,0.01764,4.019733236,
0.01766,1.726124612,0.01766,4.750593824,
0.01768,2.4569852,0.01768,5.116024118,
0.0177,4.649566965,0.0177,4.750593824,
0.01772,3.918706377,0.01772,5.116024118,
0.01774,3.187845788,0.01774,5.116024118,
0.01776,3.553276083,0.01776,4.38516353,
0.01778,4.649566965,0.01778,5.116024118,
0.0178,2.822415494,0.0178,4.750593824,
0.01782,3.918706377,0.01782,4.38516353,
0.01784,3.918706377,0.01784,4.019733236,
0.01786,6.476718436,0.01786,4.750593824,
0.01788,1.726124612,0.01788,4.38516353,
0.0179,2.4569852,0.0179,5.481454413,
0.01792,3.187845788,0.01792,4.38516353,
0.01794,3.187845788,0.01794,4.750593824,
0.01796,3.187845788,0.01796,4.750593824,
0.01798,2.822415494,0.01798,4.750593824,
0.018,0.6298337292,0.018,4.750593824,
0.01802,2.091554906,0.01802,4.750593824,
0.01804,-0.8318874475,0.01804,5.116024118,
0.01806,0.6298337292,0.01806,5.116024118,
0.01808,0.9952640234,0.01808,5.116024118,
0.0181,-0.8318874475,0.0181,4.38516353,
0.01812,-1.562748036,0.01812,4.750593824,
0.01814,-1.92817833,0.01814,4.38516353,
0.01816,-1.562748036,0.01816,5.116024118,
0.01818,-4.120760095,0.01818,5.116024118,
0.0182,-1.197317742,0.0182,4.750593824,
0.01822,-2.659038918,0.01822,4.750593824,
0.01824,-4.486190389,0.01824,4.750593824,
0.01826,-3.755329801,0.01826,5.116024118,
0.01828,-3.755329801,0.01828,4.38516353,
0.0183,-6.31334186,0.0183,5.116024118,
0.01832,-3.755329801,0.01832,4.750593824,
0.01834,-1.197317742,0.01834,5.116024118,
0.01836,-3.755329801,0.01836,5.481454413,
0.01838,-2.293608624,0.01838,4.750593824,
0.0184,-4.486190389,0.0184,5.481454413,
0.01842,-1.92817833,0.01842,5.116024118,
0.01844,-3.755329801,0.01844,5.116024118,
0.01846,-1.562748036,0.01846,4.750593824,
0.01848,-0.4664571533,0.01848,5.116024118,
0.0185,-3.755329801,0.0185,5.116024118,
0.01852,-0.4664571533,0.01852,4.750593824,
0.01854,0.6298337292,0.01854,5.481454413,
0.01856,-2.659038918,0.01856,4.38516353,
0.01858,0.9952640234,0.01858,4.750593824,
0.0186,-0.4664571533,0.0186,5.846884707,
0.01862,2.4569852,0.01862,5.116024118,
0.01864,3.553276083,0.01864,4.750593824,
0.01866,3.553276083,0.01866,5.481454413,
0.01868,3.187845788,0.01868,4.750593824,
0.0187,3.187845788,0.0187,4.750593824,
0.01872,5.014997259,0.01872,5.116024118,
0.01874,3.553276083,0.01874,4.750593824,
0.01876,4.284136671,0.01876,4.750593824,
0.01878,3.918706377,0.01878,4.750593824,
0.0188,4.649566965,0.0188,5.116024118,
0.01882,3.187845788,0.01882,4.750593824,
0.01884,4.284136671,0.01884,5.116024118,
0.01886,4.284136671,0.01886,5.116024118,
0.01888,3.918706377,0.01888,4.750593824,
0.0189,0.9952640234,0.0189,5.481454413,
0.01892,3.553276083,0.01892,4.750593824,
0.01894,2.4569852,0.01894,5.116024118,
0.01896,1.360694318,0.01896,5.116024118,
0.01898,0.6298337292,0.01898,4.750593824,
0.019,0.6298337292,0.019,4.750593824,
0.01902,0.264403435,0.01902,5.116024118,
0.01904,-0.8318874475,0.01904,5.116024118,
0.01906,-3.024469212,0.01906,4.750593824,
0.01908,-1.92817833,0.01908,5.481454413,
0.0191,-1.92817833,0.0191,5.116024118,
0.01912,-3.024469212,0.01912,4.38516353,
0.01914,-2.293608624,0.01914,5.116024118,
0.01916,-4.486190389,0.01916,5.116024118,
0.01918,-4.851620683,0.01918,4.750593824,
0.0192,-4.120760095,0.0192,5.116024118,
0.01922,-4.120760095,0.01922,5.116024118,
0.01924,-3.755329801,0.01924,4.750593824,
0.01926,-3.755329801,0.01926,5.481454413,
0.01928,-5.217050978,0.01928,5.481454413,
0.0193,-5.217050978,0.0193,4.750593824,
0.01932,-3.389899507,0.01932,5.116024118,
0.01934,-2.659038918,0.01934,5.116024118,
0.01936,-5.582481272,0.01936,4.750593824,
0.01938,-0.1010268591,0.01938,5.116024118,
0.0194,-2.293608624,0.0194,4.750593824,
0.01942,-1.197317742,0.01942,5.116024118,
0.01944,-0.4664571533,0.01944,5.481454413,
0.01946,-0.8318874475,0.01946,4.750593824,
0.01948,0.6298337292,0.01948,4.38516353,
0.0195,2.822415494,0.0195,5.116024118,
0.01952,1.360694318,0.01952,5.116024118,
0.01954,2.822415494,0.01954,4.38516353,
0.01956,2.822415494,0.01956,4.750593824,
0.01958,2.091554906,0.01958,5.116024118,
0.0196,4.649566965,0.0196,4.750593824,
0.01962,3.918706377,0.01962,5.116024118,
0.01964,3.553276083,0.01964,5.116024118,
0.01966,9.765591084,0.01966,5.116024118,
0.01968,4.284136671,0.01968,5.481454413,
0.0197,3.553276083,0.0197,4.38516353,
0.01972,3.187845788,0.01972,4.750593824,
0.01974,4.649566965,0.01974,5.116024118,
0.01976,3.553276083,0.01976,5.116024118,
0.01978,3.918706377,0.01978,4.750593824,
0.0198,3.553276083,0.0198,5.116024118,
0.01982,2.091554906,0.01982,5.116024118,
0.01984,2.822415494,0.01984,4.38516353,
0.01986,2.4569852,0.01986,4.750593824,
0.01988,2.091554906,0.01988,5.116024118,
0.0199,0.264403435,0.0199,6.212315001,
0.01992,0.6298337292,0.01992,5.116024118,
0.01994,-1.197317742,0.01994,5.116024118,
0.01996,-1.562748036,0.01996,4.750593824,
0.01998,0.6298337292,0.01998,5.481454413,
0.02,-2.659038918,0.02,4.38516353,
0.02002,-1.562748036,0.02002,4.750593824,
0.02004,-1.562748036,0.02004,5.116024118,
0.02006,-4.486190389,0.02006,5.116024118,
0.02008,-3.024469212,0.02008,4.750593824,
0.0201,-2.659038918,0.0201,4.750593824,
0.02012,-5.217050978,0.02012,4.750593824,
0.02014,-4.486190389,0.02014,4.38516353,
0.02016,-4.120760095,0.02016,4.750593824,
0.02018,-4.120760095,0.02018,4.38516353,
0.0202,-4.120760095,0.0202,5.481454413,
0.02022,-3.389899507,0.02022,4.38516353,
0.02024,-3.755329801,0.02024,4.38516353,
0.02026,-2.659038918,0.02026,4.750593824,
0.02028,-3.389899507,0.02028,4.750593824,
0.0203,-3.755329801,0.0203,2.558012059,
0.02032,-2.293608624,0.02032,4.750593824,
0.02034,-1.562748036,0.02034,4.750593824,
0.02036,-0.1010268591,0.02036,3.654302942,
0.02038,-0.1010268591,0.02038,4.750593824,
0.0204,0.6298337292,0.0204,6.212315001,
0.02042,0.6298337292,0.02042,4.38516353,
0.02044,1.360694318,0.02044,5.116024118,
0.02046,2.091554906,0.02046,4.750593824,
0.02048,2.4569852,0.02048,4.38516353,
0.0205,3.187845788,0.0205,3.654302942,
0.02052,2.4569852,0.02052,5.116024118,
0.02054,3.553276083,0.02054,4.38516353,
0.02056,4.649566965,0.02056,5.116024118,
0.02058,3.918706377,0.02058,4.750593824,
0.0206,5.014997259,0.0206,2.558012059,
0.02062,4.284136671,0.02062,4.38516353,
0.02064,4.649566965,0.02064,4.750593824,
0.02066,4.284136671,0.02066,4.38516353,
0.02068,4.284136671,0.02068,5.116024118,
0.0207,4.284136671,0.0207,5.481454413,
0.02072,4.284136671,0.02072,4.38516353,
0.02074,3.553276083,0.02074,4.38516353,
0.02076,4.649566965,0.02076,5.116024118,
0.02078,1.726124612,0.02078,4.38516353,
0.0208,1.726124612,0.0208,5.116024118,
0.02082,-1.197317742,0.02082,4.750593824,
0.02084,0.264403435,0.02084,4.38516353,
0.02086,0.264403435,0.02086,4.750593824,
0.02088,0.264403435,0.02088,4.750593824,
0.0209,-0.8318874475,0.0209,3.288872648,
0.02092,-0.4664571533,0.02092,4.019733236,
0.02094,-1.92817833,0.02094,4.750593824,
0.02096,-3.024469212,0.02096,4.38516353,
0.02098,-4.851620683,0.02098,4.750593824,
0.021,-2.293608624,0.021,5.846884707,
0.02102,-4.120760095,0.02102,4.38516353,
0.02104,-3.024469212,0.02104,5.116024118,
0.02106,-3.755329801,0.02106,4.38516353,
0.02108,-6.31334186,0.02108,4.750593824,
0.0211,-3.024469212,0.0211,4.750593824,
0.02112,-6.31334186,0.02112,4.38516353,
0.02114,-4.486190389,0.02114,3.654302942,
0.02116,-3.024469212,0.02116,4.019733236,
0.02118,-4.120760095,0.02118,5.116024118,
0.0212,-3.755329801,0.0212,3.654302942,
0.02122,-0.4664571533,0.02122,4.750593824,
0.02124,-2.293608624,0.02124,4.750593824,
0.02126,-1.92817833,0.02126,4.019733236,
0.02128,-1.197317742,0.02128,5.116024118,
0.0213,-0.8318874475,0.0213,5.846884707,
0.02132,-0.8318874475,0.02132,4.019733236,
0.02134,0.6298337292,0.02134,5.116024118,
0.02136,0.9952640234,0.02136,4.750593824,
0.02138,2.4569852,0.02138,4.750593824,
0.0214,1.726124612,0.0214,4.38516353,
0.02142,2.091554906,0.02142,4.750593824,
0.02144,4.649566965,0.02144,4.38516353,
0.02146,4.649566965,0.02146,4.750593824,
0.02148,3.553276083,0.02148,4.750593824,
0.0215,4.284136671,0.0215,4.019733236,
0.02152,5.745857848,0.02152,5.116024118,
0.02154,4.284136671,0.02154,5.116024118,
0.02156,2.4569852,0.02156,4.38516353,
0.02158,4.649566965,0.02158,4.750593824,
0.0216,3.553276083,0.0216,5.116024118,
0.02162,3.187845788,0.02162,4.750593824,
0.02164,4.649566965,0.02164,4.750593824,
0.02166,2.091554906,0.02166,4.750593824,
0.02168,3.553276083,0.02168,4.019733236,
0.0217,2.091554906,0.0217,4.750593824,
0.02172,1.726124612,0.02172,4.38516353,
0.02174,1.360694318,0.02174,4.38516353,
0.02176,-0.8318874475,0.02176,5.116024118,
0.02178,0.6298337292,0.02178,5.116024118,
0.0218,-0.4664571533,0.0218,4.019733236,
0.02182,-0.8318874475,0.02182,5.116024118,
0.02184,-0.4664571533,0.02184,4.38516353,
0.02186,-0.4664571533,0.02186,4.019733236,
0.02188,-1.92817833,0.02188,4.750593824,
0.0219,-1.92817833,0.0219,4.750593824,
0.02192,-3.389899507,0.02192,4.38516353,
0.02194,-2.659038918,0.02194,4.750593824,
0.02196,-3.024469212,0.02196,4.38516353,
0.02198,-4.486190389,0.02198,4.38516353,
0.022,-3.389899507,0.022,5.481454413,
0.02202,-3.389899507,0.02202,4.750593824,
0.02204,-4.120760095,0.02204,4.019733236,
0.02206,-4.851620683,0.02206,4.38516353,
0.02208,-5.582481272,0.02208,4.019733236,
0.0221,-3.024469212,0.0221,5.481454413,
0.02212,-3.389899507,0.02212,4.750593824,
0.02214,-3.755329801,0.02214,4.38516353,
0.02216,-2.659038918,0.02216,5.116024118,
0.02218,-1.92817833,0.02218,4.750593824,
0.0222,-4.851620683,0.0222,4.38516353,
0.02222,-2.293608624,0.02222,5.481454413,
0.02224,-0.8318874475,0.02224,4.750593824,
0.02226,-0.8318874475,0.02226,4.750593824,
0.02228,1.360694318,0.02228,5.116024118,
0.0223,0.264403435,0.0223,5.116024118,
0.02232,1.726124612,0.02232,4.750593824,
0.02234,2.091554906,0.02234,5.116024118,
0.02236,2.4569852,0.02236,5.116024118,
0.02238,2.4569852,0.02238,4.750593824,
0.0224,3.553276083,0.0224,5.116024118,
0.02242,2.822415494,0.02242,4.750593824,
0.02244,4.284136671,0.02244,4.38516353,
0.02246,5.014997259,0.02246,5.481454413,
0.02248,3.918706377,0.02248,4.750593824,
0.0225,3.553276083,0.0225,4.750593824,
0.02252,5.380427553,0.02252,5.116024118,
0.02254,4.284136671,0.02254,4.750593824,
0.02256,3.553276083,0.02256,4.750593824,
0.02258,4.284136671,0.02258,5.116024118,
0.0226,2.822415494,0.0226,4.750593824,
0.02262,2.822415494,0.02262,4.38516353,
0.02264,0.6298337292,0.02264,5.481454413,
0.02266,1.360694318,0.02266,4.750593824,
0.02268,0.264403435,0.02268,5.116024118,
0.0227,3.553276083,0.0227,5.116024118,
0.02272,0.264403435,0.02272,4.750593824,
0.02274,-0.8318874475,0.02274,4.750593824,
0.02276,-0.1010268591,0.02276,5.116024118,
0.02278,-1.92817833,0.02278,5.116024118,
0.0228,-1.92817833,0.0228,4.750593824,
0.02282,-1.92817833,0.02282,5.481454413,
0.02284,-5.217050978,0.02284,4.750593824,
0.02286,-3.389899507,0.02286,4.750593824,
0.02288,-3.389899507,0.02288,5.116024118,
0.0229,-4.486190389,0.0229,5.116024118,
0.02292,-4.120760095,0.02292,4.750593824,
0.02294,-4.120760095,0.02294,5.481454413,
0.02296,-5.582481272,0.02296,4.38516353,
0.02298,-4.120760095,0.02298,5.116024118,
0.023,-4.120760095,0.023,5.116024118,
0.02302,-4.486190389,0.02302,4.750593824,
0.02304,-5.582481272,0.02304,4.750593824,
0.02306,-3.389899507,0.02306,5.116024118,
0.02308,-6.678772154,0.02308,4.750593824,
0.0231,-1.562748036,0.0231,5.116024118,
0.02312,-3.024469212,0.02312,5.481454413,
0.02314,-1.562748036,0.02314,5.116024118,
0.02316,-0.8318874475,0.02316,4.750593824,
0.02318,-1.197317742,0.02318,4.750593824,
0.0232,-0.4664571533,0.0232,4.750593824,
0.02322,0.6298337292,0.02322,5.846884707,
0.02324,-0.8318874475,0.02324,4.750593824,
0.02326,2.091554906,0.02326,4.750593824,
0.02328,2.091554906,0.02328,5.116024118,
0.0233,0.9952640234,0.0233,4.38516353,
0.02332,3.918706377,0.02332,5.116024118,
0.02334,4.284136671,0.02334,5.116024118,
0.02336,3.187845788,0.02336,4.38516353,
0.02338,3.918706377,0.02338,4.750593824,
0.0234,3.918706377,0.0234,4.750593824,
0.02342,4.649566965,0.02342,4.38516353,
0.02344,5.014997259,0.02344,4.750593824,
0.02346,4.284136671,0.02346,4.750593824,
0.02348,5.380427553,0.02348,5.116024118,
0.0235,4.284136671,0.0235,4.750593824,
0.02352,3.553276083,0.02352,5.116024118,
0.02354,2.822415494,0.02354,4.750593824,
0.02356,3.553276083,0.02356,4.750593824,
0.02358,1.360694318,0.02358,4.750593824,
0.0236,1.726124612,0.0236,5.481454413,
0.02362,0.6298337292,0.02362,4.750593824,
0.02364,1.360694318,0.02364,5.116024118,
0.02366,-0.1010268591,0.02366,5.481454413,
0.02368,-1.562748036,0.02368,4.750593824,
0.0237,-1.92817833,0.0237,3.654302942,
0.02372,-2.293608624,0.02372,4.019733236,
0.02374,-3.024469212,0.02374,4.38516353,
0.02376,-2.293608624,0.02376,4.750593824,
0.02378,-2.659038918,0.02378,5.116024118,
0.0238,-3.755329801,0.0238,4.750593824,
0.02382,-3.755329801,0.02382,5.481454413,
0.02384,-3.755329801,0.02384,5.116024118,
0.02386,-3.755329801,0.02386,5.116024118,
0.02388,-4.486190389,0.02388,4.750593824,
0.0239,-4.120760095,0.0239,5.481454413,
0.02392,-4.486190389,0.02392,5.116024118,
0.02394,-4.486190389,0.02394,4.38516353,
0.02396,-3.389899507,0.02396,5.116024118,
0.02398,-3.024469212,0.02398,4.750593824,
0.024,-3.389899507,0.024,5.116024118,
0.02402,-3.389899507,0.02402,3.654302942,
0.02404,-2.293608624,0.02404,4.750593824,
0.02406,-1.562748036,0.02406,5.481454413,
0.02408,-1.562748036,0.02408,4.750593824,
0.0241,-0.4664571533,0.0241,4.750593824,
0.02412,-0.1010268591,0.02412,5.481454413,
0.02414,-0.8318874475,0.02414,5.116024118,
0.02416,1.360694318,0.02416,4.750593824,
0.02418,2.091554906,0.02418,5.116024118,
0.0242,0.9952640234,0.0242,5.116024118,
0.02422,4.284136671,0.02422,5.116024118,
0.02424,2.822415494,0.02424,5.116024118,
0.02426,2.822415494,0.02426,4.750593824,
0.02428,4.284136671,0.02428,4.38516353,
0.0243,4.649566965,0.0243,5.116024118,
0.02432,3.553276083,0.02432,5.846884707,
0.02434,4.649566965,0.02434,4.750593824,
0.02436,4.649566965,0.02436,4.750593824,
0.02438,4.284136671,0.02438,4.750593824,
0.0244,3.187845788,0.0244,5.116024118,
0.02442,3.918706377,0.02442,5.846884707,
0.02444,3.918706377,0.02444,4.750593824,
0.02446,4.284136671,0.02446,4.750593824,
0.02448,1.726124612,0.02448,5.116024118,
0.0245,2.091554906,0.0245,4.750593824,
0.02452,2.4569852,0.02452,4.38516353,
0.02454,3.187845788,0.02454,4.750593824,
0.02456,0.264403435,0.02456,5.116024118,
0.02458,-0.1010268591,0.02458,5.116024118,
0.0246,-0.1010268591,0.0246,5.481454413,
0.02462,-0.1010268591,0.02462,4.38516353,
0.02464,-0.1010268591,0.02464,4.750593824,
0.02466,-1.562748036,0.02466,5.116024118,
0.02468,-3.024469212,0.02468,4.750593824,
0.0247,-1.92817833,0.0247,4.750593824,
0.02472,-4.120760095,0.02472,4.38516353,
0.02474,-5.217050978,0.02474,4.750593824,
0.02476,-3.389899507,0.02476,4.750593824,
0.02478,-3.755329801,0.02478,5.116024118,
0.0248,-4.120760095,0.0248,5.116024118,
0.02482,-5.217050978,0.02482,5.481454413,
0.02484,-3.755329801,0.02484,5.481454413,
0.02486,-4.120760095,0.02486,5.116024118,
0.02488,-3.389899507,0.02488,4.750593824,
0.0249,-3.755329801,0.0249,5.481454413,
0.02492,-4.120760095,0.02492,5.116024118,
0.02494,-1.562748036,0.02494,4.750593824,
0.02496,-2.659038918,0.02496,5.116024118,
0.02498,-2.659038918,0.02498,4.38516353,
0.025,-3.755329801,0.025,5.116024118,
0.02502,-3.024469212,0.02502,4.019733236,
0.02504,-2.659038918,0.02504,5.481454413,
0.02506,-0.1010268591,0.02506,5.116024118,
0.02508,0.9952640234,0.02508,5.116024118,
0.0251,-1.197317742,0.0251,5.116024118,
0.02512,2.4569852,0.02512,4.750593824,
0.02514,0.264403435,0.02514,5.481454413,
0.02516,2.4569852,0.02516,4.750593824,
0.02518,3.187845788,0.02518,4.750593824,
0.0252,2.822415494,0.0252,5.116024118,
0.02522,2.822415494,0.02522,5.116024118,
0.02524,3.553276083,0.02524,4.750593824,
0.02526,4.649566965,0.02526,5.116024118,
0.02528,3.553276083,0.02528,5.116024118,
0.0253,5.014997259,0.0253,4.750593824,
0.02532,3.553276083,0.02532,5.481454413,
0.02534,4.649566965,0.02534,5.116024118,
0.02536,3.553276083,0.02536,4.750593824,
0.02538,4.284136671,0.02538,4.750593824,
0.0254,2.091554906,0.0254,4.750593824,
0.02542,3.187845788,0.02542,4.750593824,
0.02544,0.9952640234,0.02544,4.750593824,
0.02546,0.264403435,0.02546,4.750593824,
0.02548,1.360694318,0.02548,4.750593824,
0.0255,2.091554906,0.0255,5.116024118,
0.02552,-1.197317742,0.02552,4.750593824,
0.02554,1.360694318,0.02554,4.750593824,
0.02556,-0.1010268591,0.02556,5.116024118,
0.02558,-2.293608624,0.02558,5.116024118,
0.0256,-1.197317742,0.0256,5.116024118,
0.02562,0.6298337292,0.02562,5.116024118,
0.02564,-1.562748036,0.02564,4.750593824,
0.02566,-1.92817833,0.02566,4.750593824,
0.02568,-3.389899507,0.02568,4.750593824,
0.0257,-3.755329801,0.0257,5.116024118,
0.02572,-4.120760095,0.02572,4.38516353,
0.02574,-7.409632743,0.02574,5.116024118,
0.02576,-4.486190389,0.02576,4.750593824,
0.02578,-3.755329801,0.02578,4.750593824,
0.0258,-4.120760095,0.0258,4.750593824,
0.02582,-4.486190389,0.02582,4.38516353,
0.02584,-4.120760095,0.02584,4.750593824,
0.02586,-3.389899507,0.02586,5.846884707,
0.02588,-3.024469212,0.02588,4.38516353,
0.0259,-1.562748036,0.0259,4.750593824,
0.02592,-3.024469212,0.02592,4.38516353,
0.02594,-2.659038918,0.02594,4.750593824,
0.02596,-1.197317742,0.02596,4.750593824,
0.02598,-0.4664571533,0.02598,4.019733236,
0.026,0.9952640234,0.026,4.750593824,
0.02602,1.360694318,0.02602,5.116024118,
0.02604,1.360694318,0.02604,4.38516353,
0.02606,2.091554906,0.02606,4.750593824,
0.02608,2.4569852,0.02608,4.750593824,
0.0261,2.822415494,0.0261,4.019733236,
0.02612,3.553276083,0.02612,4.750593824,
0.02614,4.649566965,0.02614,4.750593824,
0.02616,2.822415494,0.02616,4.38516353,
0.02618,4.649566965,0.02618,4.750593824,
0.0262,5.014997259,0.0262,4.750593824,
0.02622,2.091554906,0.02622,4.019733236,
0.02624,4.649566965,0.02624,4.750593824,
0.02626,4.649566965,0.02626,4.750593824,
0.02628,5.014997259,0.02628,4.019733236,
0.0263,4.284136671,0.0263,5.116024118,
0.02632,4.284136671,0.02632,5.116024118,
0.02634,2.822415494,0.02634,4.38516353,
0.02636,3.918706377,0.02636,5.116024118,
0.02638,2.091554906,0.02638,4.750593824,
0.0264,2.091554906,0.0264,4.750593824,
0.02642,1.360694318,0.02642,4.750593824,
0.02644,0.264403435,0.02644,5.116024118,
0.02646,0.264403435,0.02646,4.019733236,
0.02648,-1.562748036,0.02648,4.750593824,
0.0265,-0.4664571533,0.0265,4.750593824,
0.02652,-3.024469212,0.02652,4.019733236,
0.02654,-1.562748036,0.02654,4.750593824,
0.02656,-1.92817833,0.02656,4.750593824,
0.02658,-3.024469212,0.02658,4.38516353,
0.0266,-2.293608624,0.0266,4.750593824,
0.02662,-3.389899507,0.02662,4.750593824,
0.02664,-4.486190389,0.02664,4.019733236,
0.02666,-6.31334186,0.02666,4.750593824,
0.02668,-4.120760095,0.02668,4.750593824,
0.0267,-4.851620683,0.0267,4.38516353,
0.02672,-5.947911566,0.02672,4.38516353,
0.02674,-2.659038918,0.02674,4.38516353,
0.02676,-4.120760095,0.02676,4.38516353,
0.02678,-3.389899507,0.02678,4.750593824,
0.0268,-1.562748036,0.0268,5.116024118,
0.02682,-2.293608624,0.02682,4.38516353,
0.02684,-1.562748036,0.02684,5.116024118,
0.02686,-1.562748036,0.02686,4.750593824,
0.02688,-0.8318874475,0.02688,4.38516353,
0.0269,-0.4664571533,0.0269,4.750593824,
0.02692,0.264403435,0.02692,4.750593824,
0.02694,0.6298337292,0.02694,4.019733236,
0.02696,2.4569852,0.02696,4.750593824,
0.02698,2.4569852,0.02698,4.750593824,
0.027,5.745857848,0.027,4.38516353,
0.02702,3.187845788,0.02702,5.116024118,
0.02704,1.726124612,0.02704,4.750593824,
0.02706,3.187845788,0.02706,5.116024118,
0.02708,3.187845788,0.02708,5.116024118,
0.0271,3.187845788,0.0271,4.750593824,
0.02712,6.476718436,0.02712,4.750593824,
0.02714,4.284136671,0.02714,4.750593824,
0.02716,3.187845788,0.02716,5.116024118,
0.02718,4.284136671,0.02718,4.019733236,
0.0272,5.014997259,0.0272,5.116024118,
0.02722,4.284136671,0.02722,4.750593824,
0.02724,3.187845788,0.02724,4.750593824,
0.02726,3.918706377,0.02726,4.750593824,
0.02728,3.918706377,0.02728,4.750593824,
0.0273,2.4569852,0.0273,4.019733236,
0.02732,2.4569852,0.02732,4.38516353,
0.02734,2.4569852,0.02734,4.750593824,
0.02736,-0.8318874475,0.02736,4.38516353,
0.02738,1.360694318,0.02738,4.750593824,
0.0274,0.6298337292,0.0274,5.116024118,
0.02742,-0.4664571533,0.02742,4.38516353,
0.02744,1.726124612,0.02744,4.019733236,
0.02746,-0.4664571533,0.02746,4.750593824,
0.02748,-2.293608624,0.02748,4.750593824,
0.0275,-2.659038918,0.0275,4.38516353,
0.02752,-3.024469212,0.02752,4.750593824,
0.02754,-3.755329801,0.02754,4.750593824,
0.02756,-3.755329801,0.02756,4.019733236,
0.02758,-3.389899507,0.02758,4.750593824,
0.0276,-4.486190389,0.0276,4.750593824,
0.02762,-3.755329801,0.02762,4.750593824,
0.02764,-3.755329801,0.02764,4.38516353,
0.02766,-3.389899507,0.02766,4.38516353,
0.02768,-3.389899507,0.02768,5.116024118,
0.0277,-2.659038918,0.0277,4.750593824,
0.02772,-3.389899507,0.02772,4.750593824,
0.02774,-3.024469212,0.02774,4.38516353,
0.02776,-3.389899507,0.02776,5.116024118,
0.02778,-2.293608624,0.02778,4.750593824,
0.0278,-3.389899507,0.0278,4.750593824,
0.02782,-1.562748036,0.02782,4.750593824,
0.02784,-0.8318874475,0.02784,4.750593824,
0.02786,-1.197317742,0.02786,5.116024118,
0.02788,0.6298337292,0.02788,4.38516353,
0.0279,0.6298337292,0.0279,5.481454413,
0.02792,-0.4664571533,0.02792,5.116024118,
0.02794,2.4569852,0.02794,5.116024118,
0.02796,3.187845788,0.02796,5.116024118,
0.02798,2.4569852,0.02798,4.750593824,
0.028,2.4569852,0.028,4.38516353,
0.02802,3.187845788,0.02802,4.750593824,
0.02804,2.4569852,0.02804,2.923442353,
0.02806,1.726124612,0.02806,4.38516353,
0.02808,3.918706377,0.02808,5.116024118,
0.0281,3.918706377,0.0281,5.116024118,
0.02812,3.187845788,0.02812,4.750593824,
0.02814,4.649566965,0.02814,6.212315001,
0.02816,3.918706377,0.02816,4.750593824,
0.02818,3.918706377,0.02818,4.38516353,
0.0282,3.918706377,0.0282,4.019733236,
0.02822,1.726124612,0.02822,4.750593824,
0.02824,2.822415494,0.02824,5.116024118,
0.02826,1.360694318,0.02826,4.750593824,
0.02828,0.264403435,0.02828,5.116024118,
0.0283,0.264403435,0.0283,4.750593824,
0.02832,-1.197317742,0.02832,4.750593824,
0.02834,0.6298337292,0.02834,3.288872648,
0.02836,-0.8318874475,0.02836,4.750593824,
0.02838,-0.8318874475,0.02838,4.750593824,
0.0284,-2.293608624,0.0284,5.116024118,
0.02842,-2.659038918,0.02842,4.750593824,
0.02844,-2.659038918,0.02844,6.212315001,
0.02846,-1.562748036,0.02846,4.38516353,
0.02848,-3.389899507,0.02848,4.750593824,
0.0285,-4.851620683,0.0285,5.116024118,
0.02852,-5.217050978,0.02852,5.116024118,
0.02854,-4.486190389,0.02854,4.019733236,
0.02856,-4.851620683,0.02856,5.116024118,
0.02858,-4.851620683,0.02858,4.750593824,
0.0286,-4.486190389,0.0286,4.38516353,
0.02862,-3.389899507,0.02862,5.481454413,
0.02864,-3.024469212,0.02864,5.116024118,
0.02866,-1.197317742,0.02866,4.750593824,
0.02868,-2.659038918,0.02868,5.116024118,
0.0287,-3.024469212,0.0287,5.116024118,
0.02872,-1.197317742,0.02872,5.116024118,
0.02874,-1.92817833,0.02874,5.846884707,
0.02876,-3.024469212,0.02876,4.38516353,
0.02878,3.553276083,0.02878,4.750593824,
0.0288,0.6298337292,0.0288,4.38516353,
0.02882,-0.4664571533,0.02882,4.750593824,
0.02884,1.726124612,0.02884,4.750593824,
0.02886,1.360694318,0.02886,3.654302942,
0.02888,2.4569852,0.02888,4.38516353,
0.0289,2.4569852,0.0289,4.750593824,
0.02892,3.187845788,0.02892,4.38516353,
0.02894,2.091554906,0.02894,3.654302942,
0.02896,5.380427553,0.02896,4.750593824,
0.02898,3.553276083,0.02898,4.750593824,
0.029,3.918706377,0.029,4.019733236,
0.02902,4.284136671,0.02902,4.38516353,
0.02904,3.918706377,0.02904,5.481454413,
0.02906,4.284136671,0.02906,4.38516353,
0.02908,4.649566965,0.02908,4.750593824,
0.0291,3.187845788,0.0291,4.750593824,
0.02912,3.553276083,0.02912,4.38516353,
0.02914,3.553276083,0.02914,5.116024118,
0.02916,2.091554906,0.02916,4.750593824,
0.02918,2.091554906,0.02918,4.019733236,
0.0292,2.091554906,0.0292,5.116024118,
0.02922,2.4569852,0.02922,4.750593824,
0.02924,1.360694318,0.02924,4.019733236,
0.02926,1.360694318,0.02926,4.750593824,
0.02928,-0.1010268591,0.02928,4.750593824,
0.0293,-1.92817833,0.0293,4.38516353,
0.02932,-1.92817833,0.02932,4.750593824,
0.02934,-2.293608624,0.02934,4.750593824,
0.02936,-2.659038918,0.02936,4.38516353,
0.02938,-2.659038918,0.02938,5.116024118,
0.0294,-2.659038918,0.0294,4.750593824,
0.02942,-3.755329801,0.02942,4.750593824,
0.02944,-3.389899507,0.02944,4.38516353,
0.02946,-5.582481272,0.02946,4.750593824,
0.02948,-5.217050978,0.02948,4.38516353,
0.0295,-3.755329801,0.0295,4.38516353,
0.02952,-4.120760095,0.02952,4.750593824,
0.02954,-4.486190389,0.02954,4.38516353,
0.02956,-5.582481272,0.02956,4.750593824,
0.02958,-3.389899507,0.02958,4.38516353,
0.0296,-3.755329801,0.0296,4.38516353,
0.02962,-2.659038918,0.02962,4.750593824,
0.02964,-1.92817833,0.02964,4.750593824,
0.02966,-1.197317742,0.02966,4.38516353,
0.02968,-0.8318874475,0.02968,4.750593824,
0.0297,-0.4664571533,0.0297,4.750593824,
0.02972,-1.197317742,0.02972,4.38516353,
0.02974,0.9952640234,0.02974,4.38516353,
0.02976,0.6298337292,0.02976,4.019733236,
0.02978,-0.1010268591,0.02978,4.38516353,
0.0298,2.822415494,0.0298,4.38516353,
0.02982,2.4569852,0.02982,4.750593824,
0.02984,2.4569852,0.02984,4.38516353,
0.02986,3.553276083,0.02986,4.750593824,
0.02988,3.187845788,0.02988,4.750593824,
0.0299,3.918706377,0.0299,4.750593824,
0.02992,4.649566965,0.02992,4.750593824,
0.02994,6.111288142,0.02994,4.750593824,
0.02996,4.649566965,0.02996,4.38516353,
0.02998,4.649566965,0.02998,4.750593824,
0.03,6.476718436,0.03,4.750593824,
0.03002,3.918706377,0.03002,4.38516353,
0.03004,3.553276083,0.03004,4.750593824,
0.03006,3.187845788,0.03006,4.750593824,
0.03008,2.822415494,0.03008,4.019733236,
0.0301,1.726124612,0.0301,5.116024118,
0.03012,3.187845788,0.03012,4.38516353,
0.03014,1.360694318,0.03014,4.38516353,
0.03016,2.091554906,0.03016,5.481454413,
0.03018,2.4569852,0.03018,4.750593824,
0.0302,0.264403435,0.0302,4.750593824,
0.03022,-0.4664571533,0.03022,4.750593824,
0.03024,-0.4664571533,0.03024,5.116024118,
0.03026,-0.8318874475,0.03026,4.019733236,
0.03028,-1.562748036,0.03028,4.750593824,
0.0303,-2.659038918,0.0303,4.38516353,
0.03032,-1.562748036,0.03032,4.38516353,
0.03034,-2.659038918,0.03034,5.116024118,
0.03036,-4.120760095,0.03036,4.750593824,
0.03038,-3.389899507,0.03038,4.38516353,
0.0304,-3.389899507,0.0304,4.750593824,
0.03042,-4.120760095,0.03042,4.750593824,
0.03044,-4.120760095,0.03044,4.38516353,
0.03046,-3.755329801,0.03046,4.750593824,
0.03048,-4.851620683,0.03048,4.750593824,
0.0305,-3.389899507,0.0305,4.019733236,
0.03052,-3.024469212,0.03052,4.750593824,
0.03054,-3.024469212,0.03054,4.38516353,
0.03056,-3.755329801,0.03056,4.38516353,
0.03058,-0.8318874475,0.03058,4.750593824,
0.0306,-1.92817833,0.0306,4.38516353,
0.03062,-1.562748036,0.03062,5.116024118,
0.03064,-1.562748036,0.03064,4.750593824,
0.03066,-0.8318874475,0.03066,4.750593824,
0.03068,-1.197317742,0.03068,5.116024118,
0.0307,0.264403435,0.0307,4.38516353,
0.03072,0.6298337292,0.03072,4.38516353,
0.03074,1.726124612,0.03074,4.750593824,
0.03076,1.360694318,0.03076,5.116024118,
0.03078,2.822415494,0.03078,4.750593824,
0.0308,3.187845788,0.0308,5.116024118,
0.03082,5.380427553,0.03082,4.750593824,
0.03084,3.187845788,0.03084,4.750593824,
0.03086,4.284136671,0.03086,4.750593824,
0.03088,3.918706377,0.03088,4.750593824,
0.0309,3.553276083,0.0309,5.116024118,
0.03092,4.649566965,0.03092,5.481454413,
0.03094,4.284136671,0.03094,5.116024118,
0.03096,4.284136671,0.03096,4.019733236,
0.03098,2.822415494,0.03098,5.481454413,
0.031,2.4569852,0.031,4.750593824,
0.03102,2.822415494,0.03102,4.38516353,
0.03104,2.822415494,0.03104,5.116024118,
0.03106,1.360694318,0.03106,4.750593824,
0.03108,2.822415494,0.03108,4.38516353,
0.0311,0.6298337292,0.0311,4.750593824,
0.03112,-0.8318874475,0.03112,5.116024118,
0.03114,-1.562748036,0.03114,4.750593824,
0.03116,-0.8318874475,0.03116,5.116024118,
0.03118,-2.293608624,0.03118,5.116024118,
0.0312,-1.197317742,0.0312,4.750593824,
0.03122,-1.92817833,0.03122,5.116024118,
0.03124,-3.389899507,0.03124,5.116024118,
0.03126,-3.389899507,0.03126,4.750593824,
0.03128,-3.024469212,0.03128,5.481454413,
0.0313,-3.389899507,0.0313,4.750593824,
0.03132,-4.851620683,0.03132,4.38516353,
0.03134,-3.755329801,0.03134,5.116024118,
0.03136,-3.755329801,0.03136,4.019733236,
0.03138,-4.120760095,0.03138,5.116024118,
0.0314,-2.659038918,0.0314,5.481454413,
0.03142,-3.389899507,0.03142,4.750593824,
0.03144,-3.389899507,0.03144,4.750593824,
0.03146,-4.120760095,0.03146,4.38516353,
0.03148,-2.659038918,0.03148,4.38516353,
0.0315,-4.120760095,0.0315,4.38516353,
0.03152,-2.293608624,0.03152,5.116024118,
0.03154,-1.92817833,0.03154,4.38516353,
0.03156,-1.562748036,0.03156,4.019733236,
0.03158,0.264403435,0.03158,4.750593824,
0.0316,-0.8318874475,0.0316,5.116024118,
0.03162,0.6298337292,0.03162,4.38516353,
0.03164,0.6298337292,0.03164,5.481454413,
0.03166,1.726124612,0.03166,4.750593824,
0.03168,2.4569852,0.03168,4.750593824,
0.0317,2.822415494,0.0317,5.116024118,
0.03172,2.091554906,0.03172,4.750593824,
0.03174,3.918706377,0.03174,4.750593824,
0.03176,4.284136671,0.03176,5.846884707,
0.03178,3.553276083,0.03178,5.116024118,
0.0318,4.284136671,0.0318,4.38516353,
0.03182,3.918706377,0.03182,5.481454413,
0.03184,3.553276083,0.03184,4.38516353,
0.03186,3.918706377,0.03186,3.288872648,
0.03188,4.284136671,0.03188,5.116024118,
0.0319,3.187845788,0.0319,5.116024118,
0.03192,3.187845788,0.03192,4.750593824,
0.03194,3.553276083,0.03194,5.116024118,
0.03196,3.187845788,0.03196,4.750593824,
0.03198,1.726124612,0.03198,4.019733236,
0.032,0.264403435,0.032,5.481454413,
0.03202,0.6298337292,0.03202,4.750593824,
0.03204,0.9952640234,0.03204,4.750593824,
0.03206,-0.8318874475,0.03206,6.212315001,
0.03208,-1.562748036,0.03208,4.750593824,
0.0321,-1.562748036,0.0321,4.750593824,
0.03212,-1.197317742,0.03212,4.750593824,
0.03214,-1.562748036,0.03214,4.750593824,
0.03216,-2.293608624,0.03216,4.750593824,
0.03218,-4.486190389,0.03218,5.481454413,
0.0322,-2.293608624,0.0322,4.750593824,
0.03222,-4.486190389,0.03222,4.38516353,
0.03224,-3.755329801,0.03224,5.116024118,
0.03226,-4.486190389,0.03226,3.654302942,
0.03228,-3.389899507,0.03228,4.750593824,
0.0323,-3.755329801,0.0323,5.116024118,
0.03232,-4.120760095,0.03232,4.750593824,
0.03234,-3.755329801,0.03234,4.750593824,
0.03236,-3.755329801,0.03236,4.38516353,
0.03238,-5.582481272,0.03238,5.116024118,
0.0324,-2.293608624,0.0324,4.38516353,
0.03242,-3.024469212,0.03242,5.481454413,
0.03244,-2.659038918,0.03244,4.38516353,
0.03246,-2.659038918,0.03246,3.654302942,
0.03248,-1.562748036,0.03248,5.116024118,
0.0325,-1.562748036,0.0325,4.750593824,
0.03252,-0.4664571533,0.03252,4.750593824,
0.03254,0.9952640234,0.03254,4.750593824,
0.03256,0.9952640234,0.03256,4.38516353,
0.03258,0.9952640234,0.03258,5.116024118,
0.0326,1.726124612,0.0326,4.750593824,
0.03262,3.918706377,0.03262,4.750593824,
0.03264,4.649566965,0.03264,5.116024118,
0.03266,2.822415494,0.03266,5.846884707,
0.03268,4.284136671,0.03268,4.750593824,
0.0327,3.553276083,0.0327,5.481454413,
0.03272,3.187845788,0.03272,5.116024118,
0.03274,4.649566965,0.03274,4.750593824,
0.03276,4.649566965,0.03276,5.481454413,
0.03278,6.111288142,0.03278,4.750593824,
0.0328,4.649566965,0.0328,4.38516353,
0.03282,3.553276083,0.03282,5.481454413,
0.03284,3.187845788,0.03284,5.116024118,
0.03286,1.726124612,0.03286,4.38516353,
0.03288,4.284136671,0.03288,5.116024118,
0.0329,3.553276083,0.0329,5.116024118,
0.03292,2.091554906,0.03292,4.750593824,
0.03294,1.360694318,0.03294,5.116024118,
0.03296,0.264403435,0.03296,4.019733236,
0.03298,-0.8318874475,0.03298,5.116024118,
0.033,-0.1010268591,0.033,5.481454413,
0.03302,-2.293608624,0.03302,5.116024118,
0.03304,0.264403435,0.03304,4.750593824,
0.03306,-1.92817833,0.03306,5.481454413,
0.03308,-3.755329801,0.03308,5.116024118,
0.0331,-3.024469212,0.0331,4.750593824,
0.03312,-3.755329801,0.03312,5.116024118,
0.03314,-3.755329801,0.03314,4.750593824,
0.03316,-4.486190389,0.03316,5.116024118,
0.03318,-5.217050978,0.03318,5.116024118,
0.0332,-5.217050978,0.0332,5.116024118,
0.03322,-3.755329801,0.03322,4.750593824,
0.03324,-3.389899507,0.03324,5.116024118,
0.03326,-3.389899507,0.03326,5.481454413,
0.03328,-4.120760095,0.03328,4.38516353,
0.0333,-3.389899507,0.0333,4.750593824,
0.03332,-3.389899507,0.03332,4.750593824,
0.03334,-2.293608624,0.03334,4.750593824,
0.03336,-3.024469212,0.03336,5.116024118,
0.03338,-1.197317742,0.03338,5.116024118,
0.0334,-0.4664571533,0.0334,4.750593824,
0.03342,-1.197317742,0.03342,4.750593824,
0.03344,-0.4664571533,0.03344,4.750593824,
0.03346,-0.1010268591,0.03346,4.38516353,
0.03348,2.091554906,0.03348,5.116024118,
0.0335,2.091554906,0.0335,5.481454413,
0.03352,0.9952640234,0.03352,5.116024118,
0.03354,0.9952640234,0.03354,4.750593824,
0.03356,2.4569852,0.03356,4.750593824,
0.03358,1.360694318,0.03358,5.116024118,
0.0336,3.187845788,0.0336,4.38516353,
0.03362,2.822415494,0.03362,5.116024118,
0.03364,2.822415494,0.03364,4.750593824,
0.03366,3.553276083,0.03366,4.750593824,
0.03368,3.187845788,0.03368,5.116024118,
0.0337,2.4569852,0.0337,4.750593824,
0.03372,3.553276083,0.03372,4.019733236,
0.03374,4.649566965,0.03374,5.116024118,
0.03376,3.187845788,0.03376,5.481454413,
0.03378,5.380427553,0.03378,4.750593824,
0.0338,5.380427553,0.0338,5.116024118,
0.03382,2.822415494,0.03382,4.750593824,
0.03384,2.822415494,0.03384,4.750593824,
0.03386,1.726124612,0.03386,5.116024118,
0.03388,0.9952640234,0.03388,4.750593824,
0.0339,0.264403435,0.0339,4.750593824,
0.03392,0.6298337292,0.03392,5.116024118,
0.03394,-0.4664571533,0.03394,4.750593824,
0.03396,-1.562748036,0.03396,4.38516353,
0.03398,-2.659038918,0.03398,5.481454413,
0.034,-1.197317742,0.034,3.288872648,
0.03402,-2.293608624,0.03402,4.750593824,
0.03404,-2.293608624,0.03404,5.481454413,
0.03406,-3.389899507,0.03406,4.38516353,
0.03408,-5.217050978,0.03408,4.750593824,
0.0341,-3.389899507,0.0341,5.481454413,
0.03412,-4.851620683,0.03412,4.750593824,
0.03414,-3.024469212,0.03414,4.38516353,
0.03416,-4.120760095,0.03416,5.116024118,
0.03418,-4.120760095,0.03418,4.750593824,
0.0342,-5.217050978,0.0342,4.750593824,
0.03422,-3.755329801,0.03422,5.116024118,
0.03424,-4.120760095,0.03424,5.116024118,
0.03426,-3.024469212,0.03426,4.750593824,
0.03428,-3.024469212,0.03428,5.116024118,
0.0343,-3.755329801,0.0343,4.750593824,
0.03432,-2.659038918,0.03432,4.750593824,
0.03434,-1.197317742,0.03434,5.481454413,
0.03436,0.264403435,0.03436,5.116024118,
0.03438,0.6298337292,0.03438,4.38516353,
0.0344,-0.1010268591,0.0344,5.116024118,
0.03442,0.264403435,0.03442,4.750593824,
0.03444,1.360694318,0.03444,4.019733236,
0.03446,0.6298337292,0.03446,5.481454413,
0.03448,2.822415494,0.03448,4.750593824,
0.0345,2.822415494,0.0345,4.750593824,
0.03452,4.284136671,0.03452,4.750593824,
0.03454,2.822415494,0.03454,4.750593824,
0.03456,3.918706377,0.03456,4.38516353,
0.03458,6.476718436,0.03458,5.481454413,
0.0346,3.553276083,0.0346,4.38516353,
0.03462,4.284136671,0.03462,4.38516353,
0.03464,4.284136671,0.03464,4.750593824,
0.03466,3.187845788,0.03466,4.750593824,
0.03468,1.726124612,0.03468,4.38516353,
0.0347,4.284136671,0.0347,4.750593824,
0.03472,3.187845788,0.03472,4.750593824,
0.03474,4.284136671,0.03474,4.38516353,
0.03476,3.187845788,0.03476,5.116024118,
0.03478,2.091554906,0.03478,4.750593824,
0.0348,1.360694318,0.0348,4.38516353,
0.03482,2.091554906,0.03482,5.481454413,
0.03484,0.264403435,0.03484,4.750593824,
0.03486,-0.8318874475,0.03486,4.750593824,
0.03488,0.264403435,0.03488,5.481454413,
0.0349,0.9952640234,0.0349,4.750593824,
0.03492,-2.659038918,0.03492,5.116024118,
0.03494,-3.024469212,0.03494,5.116024118,
0.03496,-2.659038918,0.03496,4.750593824,
0.03498,-1.562748036,0.03498,4.750593824,
0.035,-3.389899507,0.035,5.481454413,
0.03502,-4.120760095,0.03502,4.750593824,
0.03504,-4.486190389,0.03504,4.38516353,
0.03506,-5.217050978,0.03506,5.116024118,
0.03508,-3.755329801,0.03508,4.38516353,
0.0351,-5.947911566,0.0351,4.750593824,
0.03512,-4.486190389,0.03512,5.481454413,
0.03514,-7.044202448,0.03514,4.38516353,
0.03516,-4.851620683,0.03516,4.750593824,
0.03518,-3.755329801,0.03518,5.116024118,
0.0352,-2.293608624,0.0352,4.38516353,
0.03522,-3.389899507,0.03522,5.116024118,
0.03524,-1.92817833,0.03524,5.481454413,
0.03526,-0.4664571533,0.03526,4.019733236,
0.03528,-2.293608624,0.03528,4.38516353,
0.0353,-1.562748036,0.0353,5.846884707,
0.03532,-0.8318874475,0.03532,4.38516353,
0.03534,-0.1010268591,0.03534,4.38516353,
0.03536,1.360694318,0.03536,5.116024118,
0.03538,-0.1010268591,0.03538,5.116024118,
0.0354,2.4569852,0.0354,4.019733236,
0.03542,1.726124612,0.03542,5.116024118,
0.03544,1.726124612,0.03544,4.38516353,
0.03546,2.091554906,0.03546,4.38516353,
0.03548,3.918706377,0.03548,5.116024118,
0.0355,2.822415494,0.0355,4.750593824,
0.03552,5.014997259,0.03552,4.750593824,
0.03554,4.284136671,0.03554,4.750593824,
0.03556,3.918706377,0.03556,4.750593824,
0.03558,5.745857848,0.03558,4.750593824,
0.0356,3.918706377,0.0356,5.481454413,
0.03562,3.187845788,0.03562,4.750593824,
0.03564,3.553276083,0.03564,4.750593824,
0.03566,3.553276083,0.03566,5.116024118,
0.03568,2.4569852,0.03568,5.116024118,
0.0357,2.091554906,0.0357,4.750593824,
0.03572,-0.1010268591,0.03572,5.116024118,
0.03574,0.6298337292,0.03574,5.116024118,
0.03576,0.9952640234,0.03576,4.750593824,
0.03578,0.6298337292,0.03578,5.116024118,
0.0358,-2.293608624,0.0358,4.750593824,
0.03582,-0.4664571533,0.03582,4.750593824,
0.03584,-1.197317742,0.03584,4.750593824,
0.03586,-1.92817833,0.03586,5.116024118,
0.03588,-1.562748036,0.03588,4.750593824,
0.0359,-3.024469212,0.0359,5.116024118,
0.03592,-4.120760095,0.03592,5.116024118,
0.03594,-3.389899507,0.03594,4.750593824,
0.03596,-3.389899507,0.03596,5.116024118,
0.03598,-4.851620683,0.03598,5.116024118,
0.036,-4.120760095,0.036,4.38516353,
0.03602,-2.659038918,0.03602,4.750593824,
0.03604,-4.486190389,0.03604,5.116024118,
0.03606,-3.755329801,0.03606,4.750593824,
0.03608,-3.389899507,0.03608,5.481454413,
0.0361,-4.486190389,0.0361,4.750593824,
0.03612,-3.024469212,0.03612,4.38516353,
0.03614,-3.024469212,0.03614,5.116024118,
0.03616,-2.659038918,0.03616,5.116024118,
0.03618,-1.92817833,0.03618,4.750593824,
0.0362,-0.4664571533,0.0362,4.750593824,
0.03622,-1.562748036,0.03622,5.481454413,
0.03624,-0.8318874475,0.03624,4.750593824,
0.03626,0.9952640234,0.03626,5.116024118,
0.03628,1.360694318,0.03628,4.750593824,
0.0363,1.360694318,0.0363,4.38516353,
0.03632,1.726124612,0.03632,5.116024118,
0.03634,-0.8318874475,0.03634,5.481454413,
0.03636,3.187845788,0.03636,4.750593824,
0.03638,3.918706377,0.03638,5.116024118,
0.0364,3.187845788,0.0364,5.116024118,
0.03642,2.822415494,0.03642,4.750593824,
0.03644,4.284136671,0.03644,5.116024118,
0.03646,5.745857848,0.03646,5.116024118,
0.03648,3.553276083,0.03648,5.116024118,
0.0365,4.649566965,0.0365,5.116024118,
0.03652,3.918706377,0.03652,5.116024118,
0.03654,3.553276083,0.03654,4.750593824,
0.03656,3.918706377,0.03656,6.212315001,
0.03658,3.553276083,0.03658,5.481454413,
0.0366,3.553276083,0.0366,4.750593824,
0.03662,3.553276083,0.03662,5.116024118,
0.03664,1.360694318,0.03664,5.116024118,
0.03666,0.6298337292,0.03666,4.750593824,
0.03668,0.264403435,0.03668,5.481454413,
0.0367,0.6298337292,0.0367,4.750593824,
0.03672,-0.4664571533,0.03672,5.116024118,
0.03674,-0.4664571533,0.03674,4.750593824,
0.03676,-1.92817833,0.03676,4.750593824,
0.03678,-2.659038918,0.03678,4.750593824,
0.0368,-3.024469212,0.0368,5.116024118,
0.03682,-3.024469212,0.03682,4.38516353,
0.03684,-4.851620683,0.03684,4.750593824,
0.03686,-3.389899507,0.03686,4.750593824,
0.03688,-4.120760095,0.03688,4.38516353,
0.0369,-2.659038918,0.0369,4.750593824,
0.03692,-4.486190389,0.03692,5.116024118,
0.03694,-4.851620683,0.03694,4.750593824,
0.03696,-4.851620683,0.03696,4.750593824,
0.03698,-3.024469212,0.03698,5.481454413,
0.037,-4.486190389,0.037,5.116024118,
0.03702,-4.486190389,0.03702,4.38516353,
0.03704,-3.024469212,0.03704,5.116024118,
0.03706,-3.755329801,0.03706,5.116024118,
0.03708,-2.659038918,0.03708,5.846884707,
0.0371,-3.024469212,0.0371,4.750593824,
0.03712,-2.293608624,0.03712,4.750593824,
0.03714,-2.293608624,0.03714,4.750593824,
0.03716,-1.562748036,0.03716,5.116024118,
0.03718,-0.1010268591,0.03718,5.846884707,
0.0372,0.264403435,0.0372,4.38516353,
0.03722,0.6298337292,0.03722,5.116024118,
0.03724,1.360694318,0.03724,5.116024118,
0.03726,0.6298337292,0.03726,4.750593824,
0.03728,2.822415494,0.03728,5.481454413,
0.0373,3.187845788,0.0373,4.38516353,
0.03732,2.822415494,0.03732,4.750593824,
0.03734,3.553276083,0.03734,4.38516353,
0.03736,4.284136671,0.03736,4.750593824,
0.03738,4.284136671,0.03738,3.654302942,
0.0374,3.918706377,0.0374,4.019733236,
0.03742,5.014997259,0.03742,5.481454413,
0.03744,2.822415494,0.03744,4.750593824,
0.03746,4.649566965,0.03746,4.38516353,
0.03748,4.284136671,0.03748,5.116024118,
0.0375,4.284136671,0.0375,4.750593824,
0.03752,2.4569852,0.03752,4.38516353,
0.03754,3.918706377,0.03754,4.750593824,
0.03756,3.187845788,0.03756,4.750593824,
0.03758,1.726124612,0.03758,6.212315001,
0.0376,1.726124612,0.0376,4.38516353,
0.03762,2.4569852,0.03762,4.38516353,
0.03764,0.6298337292,0.03764,4.38516353,
0.03766,-0.4664571533,0.03766,4.750593824,
0.03768,-0.4664571533,0.03768,6.577745295,
0.0377,-1.92817833,0.0377,4.019733236,
0.03772,-1.562748036,0.03772,4.750593824,
0.03774,-0.8318874475,0.03774,4.750593824,
0.03776,-2.659038918,0.03776,4.38516353,
0.03778,-2.293608624,0.03778,6.212315001,
0.0378,-3.755329801,0.0378,4.38516353,
0.03782,-4.120760095,0.03782,5.116024118,
0.03784,-3.024469212,0.03784,4.38516353,
0.03786,-3.755329801,0.03786,4.38516353,
0.03788,-4.851620683,0.03788,5.116024118,
0.0379,-3.024469212,0.0379,5.116024118,
0.03792,-3.389899507,0.03792,5.116024118,
0.03794,-4.851620683,0.03794,4.750593824,
0.03796,-4.486190389,0.03796,4.750593824,
0.03798,-3.389899507,0.03798,2.923442353,
0.038,-2.659038918,0.038,4.750593824,
0.03802,-1.562748036,0.03802,4.750593824,
0.03804,-1.92817833,0.03804,4.750593824,
0.03806,-1.197317742,0.03806,4.38516353,
0.03808,-0.8318874475,0.03808,4.38516353,
0.0381,1.360694318,0.0381,4.750593824,
0.03812,-0.4664571533,0.03812,4.38516353,
0.03814,0.6298337292,0.03814,4.750593824,
0.03816,2.091554906,0.03816,5.116024118,
0.03818,1.360694318,0.03818,5.846884707,
0.0382,2.4569852,0.0382,4.38516353,
0.03822,1.360694318,0.03822,4.750593824,
0.03824,2.091554906,0.03824,4.38516353,
0.03826,3.553276083,0.03826,4.750593824,
0.03828,2.091554906,0.03828,5.481454413,
0.0383,2.4569852,0.0383,4.019733236,
0.03832,4.284136671,0.03832,4.750593824,
0.03834,4.649566965,0.03834,4.750593824,
0.03836,4.284136671,0.03836,4.38516353,
0.03838,4.649566965,0.03838,3.654302942,
0.0384,2.4569852,0.0384,4.38516353,
0.03842,2.822415494,0.03842,4.38516353,
0.03844,3.553276083,0.03844,4.38516353,
0.03846,3.187845788,0.03846,5.116024118,
0.03848,3.918706377,0.03848,5.116024118,
0.0385,3.553276083,0.0385,4.750593824,
0.03852,0.6298337292,0.03852,5.116024118,
0.03854,2.4569852,0.03854,4.750593824,
0.03856,0.6298337292,0.03856,4.750593824,
0.03858,0.9952640234,0.03858,5.481454413,
0.0386,-0.1010268591,0.0386,4.750593824,
0.03862,-1.562748036,0.03862,4.019733236,
0.03864,-1.197317742,0.03864,4.750593824,
0.03866,-1.197317742,0.03866,4.38516353,
0.03868,-2.293608624,0.03868,5.116024118,
0.0387,-3.755329801,0.0387,4.750593824,
0.03872,-0.1010268591,0.03872,4.750593824,
0.03874,-3.389899507,0.03874,4.750593824,
0.03876,-3.755329801,0.03876,4.750593824,
0.03878,-3.755329801,0.03878,3.654302942,
0.0388,-4.120760095,0.0388,5.116024118,
0.03882,-4.486190389,0.03882,5.116024118,
0.03884,-3.755329801,0.03884,4.750593824,
0.03886,-4.851620683,0.03886,4.750593824,
0.03888,-7.044202448,0.03888,5.846884707,
0.0389,-3.389899507,0.0389,4.750593824,
0.03892,-3.755329801,0.03892,4.750593824,
0.03894,-3.389899507,0.03894,4.38516353,
0.03896,-1.92817833,0.03896,5.116024118,
0.03898,-4.120760095,0.03898,5.481454413,
0.039,-1.92817833,0.039,5.116024118,
0.03902,-0.8318874475,0.03902,4.750593824,
0.03904,-0.4664571533,0.03904,5.116024118,
0.03906,-0.1010268591,0.03906,4.750593824,
0.03908,0.6298337292,0.03908,4.750593824,
0.0391,0.9952640234,0.0391,5.116024118,
0.03912,1.360694318,0.03912,3.288872648,
0.03914,2.4569852,0.03914,5.116024118,
0.03916,3.553276083,0.03916,5.116024118,
0.03918,4.284136671,0.03918,4.750593824,
0.0392,2.4569852,0.0392,4.750593824,
0.03922,6.111288142,0.03922,4.750593824,
0.03924,3.553276083,0.03924,5.116024118,
0.03926,4.649566965,0.03926,4.750593824,
0.03928,4.649566965,0.03928,4.750593824,
0.0393,5.014997259,0.0393,4.750593824,
0.03932,4.649566965,0.03932,4.750593824,
0.03934,3.918706377,0.03934,4.750593824,
0.03936,2.822415494,0.03936,5.116024118,
0.03938,3.918706377,0.03938,4.750593824,
0.0394,3.553276083,0.0394,5.116024118,
0.03942,2.4569852,0.03942,5.116024118,
0.03944,3.187845788,0.03944,4.750593824,
0.03946,2.091554906,0.03946,4.750593824,
0.03948,0.264403435,0.03948,5.481454413,
0.0395,1.360694318,0.0395,4.750593824,
0.03952,0.264403435,0.03952,5.116024118,
0.03954,-0.4664571533,0.03954,4.750593824,
0.03956,-0.1010268591,0.03956,4.750593824,
0.03958,-0.8318874475,0.03958,5.116024118,
0.0396,-3.024469212,0.0396,4.38516353,
0.03962,-1.562748036,0.03962,4.750593824,
0.03964,-3.024469212,0.03964,5.116024118,
0.03966,-3.389899507,0.03966,5.116024118,
0.03968,-3.755329801,0.03968,4.750593824,
0.0397,-3.024469212,0.0397,5.116024118,
0.03972,-4.120760095,0.03972,5.481454413,
0.03974,-3.389899507,0.03974,5.116024118,
0.03976,-2.659038918,0.03976,5.116024118,
0.03978,-4.851620683,0.03978,4.750593824,
0.0398,-3.024469212,0.0398,4.750593824,
0.03982,-3.389899507,0.03982,5.116024118,
0.03984,-3.755329801,0.03984,4.750593824,
0.03986,-4.120760095,0.03986,4.38516353,
0.03988,-3.755329801,0.03988,4.750593824,
0.0399,-3.389899507,0.0399,5.116024118,
0.03992,-2.659038918,0.03992,4.750593824,
0.03994,-1.197317742,0.03994,5.116024118,
0.03996,-0.1010268591,0.03996,5.116024118,
0.03998,-0.4664571533,0.03998,4.750593824,
0.04,1.360694318,0.04,5.116024118,
0.04002,0.9952640234,0.04002,4.38516353,
0.04004,0.9952640234,0.04004,4.750593824,
0.04006,2.091554906,0.04006,4.750593824,
0.04008,1.726124612,0.04008,5.481454413,
0.0401,3.553276083,0.0401,4.38516353,
0.04012,3.187845788,0.04012,4.750593824,
0.04014,4.284136671,0.04014,5.116024118,
0.04016,4.284136671,0.04016,4.750593824,
0.04018,5.745857848,0.04018,4.750593824,
0.0402,5.380427553,0.0402,5.481454413,
0.04022,4.649566965,0.04022,4.38516353,
0.04024,5.014997259,0.04024,4.38516353,
0.04026,4.649566965,0.04026,5.116024118,
0.04028,2.822415494,0.04028,4.750593824,
0.0403,3.553276083,0.0403,4.019733236,
0.04032,3.918706377,0.04032,4.750593824,
0.04034,3.553276083,0.04034,4.750593824,
0.04036,2.4569852,0.04036,4.38516353,
0.04038,2.822415494,0.04038,4.019733236,
0.0404,1.360694318,0.0404,4.38516353,
0.04042,0.6298337292,0.04042,5.116024118,
0.04044,1.360694318,0.04044,4.750593824,
0.04046,-0.1010268591,0.04046,4.38516353,
0.04048,-1.92817833,0.04048,4.38516353,
0.0405,-0.4664571533,0.0405,4.750593824,
0.04052,-1.92817833,0.04052,4.38516353,
0.04054,-1.92817833,0.04054,4.38516353,
0.04056,-2.293608624,0.04056,4.750593824,
0.04058,-3.389899507,0.04058,5.116024118,
0.0406,-3.389899507,0.0406,4.38516353,
0.04062,-3.755329801,0.04062,4.38516353,
0.04064,-3.755329801,0.04064,5.846884707,
0.04066,-4.486190389,0.04066,4.38516353,
0.04068,-5.217050978,0.04068,5.116024118,
0.0407,-3.755329801,0.0407,4.38516353,
0.04072,-3.389899507,0.04072,4.019733236,
0.04074,-4.486190389,0.04074,4.750593824,
0.04076,-3.389899507,0.04076,4.750593824,
0.04078,-4.120760095,0.04078,4.38516353,
0.0408,-2.659038918,0.0408,4.750593824,
0.04082,-1.92817833,0.04082,4.750593824,
0.04084,-2.293608624,0.04084,4.750593824,
0.04086,-0.8318874475,0.04086,4.750593824,
0.04088,-0.4664571533,0.04088,4.750593824,
0.0409,-1.197317742,0.0409,4.38516353,
0.04092,0.6298337292,0.04092,4.38516353,
0.04094,0.264403435,0.04094,5.116024118,
0.04096,0.6298337292,0.04096,4.38516353,
0.04098,0.264403435,0.04098,4.750593824,
0.041,2.4569852,0.041,4.750593824,
0.04102,2.822415494,0.04102,4.38516353,
0.04104,2.091554906,0.04104,4.38516353,
0.04106,2.822415494,0.04106,4.750593824,
0.04108,3.553276083,0.04108,4.019733236,
0.0411,4.649566965,0.0411,5.116024118,
0.04112,4.284136671,0.04112,4.750593824,
0.04114,2.822415494,0.04114,4.38516353,
0.04116,5.745857848,0.04116,4.750593824,
0.04118,4.284136671,0.04118,4.38516353,
0.0412,4.284136671,0.0412,4.750593824,
0.04122,2.4569852,0.04122,4.750593824,
0.04124,3.918706377,0.04124,4.38516353,
0.04126,2.822415494,0.04126,4.38516353,
0.04128,3.918706377,0.04128,4.750593824,
0.0413,2.091554906,0.0413,5.116024118,
0.04132,1.726124612,0.04132,4.38516353,
0.04134,3.187845788,0.04134,4.750593824,
0.04136,0.9952640234,0.04136,4.750593824,
0.04138,-0.4664571533,0.04138,4.750593824,
0.0414,0.264403435,0.0414,4.750593824,
0.04142,-0.1010268591,0.04142,4.750593824,
0.04144,-1.92817833,0.04144,4.38516353,
0.04146,-1.92817833,0.04146,5.116024118,
0.04148,-0.8318874475,0.04148,5.116024118,
0.0415,-3.755329801,0.0415,4.38516353,
0.04152,-1.92817833,0.04152,4.750593824,
0.04154,-4.120760095,0.04154,4.750593824,
0.04156,-4.120760095,0.04156,4.750593824,
0.04158,-4.120760095,0.04158,4.750593824,
0.0416,-7.409632743,0.0416,4.750593824,
0.04162,-4.851620683,0.04162,4.019733236,
0.04164,-4.851620683,0.04164,4.750593824,
0.04166,-3.755329801,0.04166,4.019733236,
0.04168,-3.389899507,0.04168,4.38516353,
0.0417,-3.024469212,0.0417,4.750593824,
0.04172,-3.024469212,0.04172,4.019733236,
0.04174,-2.659038918,0.04174,4.38516353,
0.04176,-2.659038918,0.04176,5.481454413,
0.04178,-1.562748036,0.04178,4.750593824,
0.0418,-1.197317742,0.0418,4.38516353,
0.04182,-1.562748036,0.04182,4.38516353,
0.04184,-0.8318874475,0.04184,4.38516353,
0.04186,-0.1010268591,0.04186,4.38516353,
0.04188,0.6298337292,0.04188,5.116024118,
0.0419,0.6298337292,0.0419,4.750593824,
0.04192,1.360694318,0.04192,4.750593824,
0.04194,3.187845788,0.04194,5.116024118,
0.04196,3.553276083,0.04196,4.750593824,
0.04198,3.553276083,0.04198,4.38516353,
0.042,3.553276083,0.042,5.481454413,
0.04202,3.553276083,0.04202,4.750593824,
0.04204,3.553276083,0.04204,4.38516353,
0.04206,4.649566965,0.04206,4.38516353,
0.04208,4.284136671,0.04208,4.38516353,
0.0421,4.649566965,0.0421,5.481454413,
0.04212,3.553276083,0.04212,5.116024118,
0.04214,4.284136671,0.04214,4.750593824,
0.04216,5.380427553,0.04216,5.116024118,
0.04218,3.187845788,0.04218,4.38516353,
0.0422,2.091554906,0.0422,4.38516353,
0.04222,3.187845788,0.04222,5.116024118,
0.04224,0.9952640234,0.04224,4.750593824,
0.04226,2.822415494,0.04226,4.38516353,
0.04228,1.726124612,0.04228,5.116024118,
0.0423,-2.293608624,0.0423,4.750593824,
0.04232,-0.1010268591,0.04232,4.38516353,
0.04234,-0.8318874475,0.04234,5.116024118,
0.04236,-0.8318874475,0.04236,4.38516353,
0.04238,-0.1010268591,0.04238,4.750593824,
0.0424,-2.293608624,0.0424,6.212315001,
0.04242,-3.024469212,0.04242,4.750593824,
0.04244,-3.755329801,0.04244,4.38516353,
0.04246,-3.024469212,0.04246,5.116024118,
0.04248,-4.486190389,0.04248,5.116024118,
0.0425,-5.947911566,0.0425,4.750593824,
0.04252,-4.120760095,0.04252,5.116024118,
0.04254,-3.389899507,0.04254,4.38516353,
0.04256,-5.582481272,0.04256,4.750593824,
0.04258,-4.120760095,0.04258,5.481454413,
0.0426,-4.120760095,0.0426,3.288872648,
0.04262,-3.389899507,0.04262,4.019733236,
0.04264,-3.755329801,0.04264,5.481454413,
0.04266,-3.389899507,0.04266,4.38516353,
0.04268,-3.024469212,0.04268,5.116024118,
0.0427,-2.659038918,0.0427,5.481454413,
0.04272,-2.293608624,0.04272,4.750593824,
0.04274,-2.293608624,0.04274,4.38516353,
0.04276,-1.562748036,0.04276,5.481454413,
0.04278,-0.4664571533,0.04278,5.116024118,
0.0428,-0.1010268591,0.0428,5.846884707,
0.04282,1.360694318,0.04282,5.116024118,
0.04284,0.9952640234,0.04284,4.750593824,
0.04286,1.360694318,0.04286,4.019733236,
0.04288,1.360694318,0.04288,5.116024118,
0.0429,2.822415494,0.0429,4.38516353,
0.04292,2.822415494,0.04292,3.654302942,
0.04294,3.187845788,0.04294,5.481454413,
0.04296,3.918706377,0.04296,4.019733236,
0.04298,3.918706377,0.04298,4.38516353,
0.043,4.284136671,0.043,4.750593824,
0.04302,4.284136671,0.04302,5.481454413,
0.04304,4.284136671,0.04304,4.750593824,
0.04306,3.553276083,0.04306,4.750593824,
0.04308,3.553276083,0.04308,4.750593824,
0.0431,3.187845788,0.0431,5.116024118,
0.04312,3.187845788,0.04312,5.116024118,
0.04314,2.822415494,0.04314,4.750593824,
0.04316,3.187845788,0.04316,4.38516353,
0.04318,2.4569852,0.04318,5.116024118,
0.0432,-0.1010268591,0.0432,4.750593824,
0.04322,0.6298337292,0.04322,4.750593824,
0.04324,0.264403435,0.04324,5.116024118,
0.04326,-0.1010268591,0.04326,4.750593824,
0.04328,-0.8318874475,0.04328,4.38516353,
0.0433,-1.92817833,0.0433,4.38516353,
0.04332,-0.8318874475,0.04332,4.750593824,
0.04334,-2.659038918,0.04334,4.38516353,
0.04336,-3.024469212,0.04336,5.481454413,
0.04338,-2.659038918,0.04338,5.481454413,
0.0434,-3.389899507,0.0434,4.750593824,
0.04342,-5.217050978,0.04342,5.116024118,
0.04344,-4.851620683,0.04344,4.38516353,
0.04346,-4.486190389,0.04346,4.750593824,
0.04348,-3.755329801,0.04348,5.846884707,
0.0435,-3.389899507,0.0435,5.481454413,
0.04352,-3.389899507,0.04352,5.116024118,
0.04354,-3.389899507,0.04354,4.750593824,
0.04356,-2.659038918,0.04356,5.116024118,
0.04358,-3.024469212,0.04358,5.116024118,
0.0436,-3.389899507,0.0436,5.116024118,
0.04362,-1.197317742,0.04362,4.38516353,
0.04364,-0.8318874475,0.04364,4.750593824,
0.04366,-1.92817833,0.04366,5.116024118,
0.04368,-2.293608624,0.04368,5.116024118,
0.0437,0.264403435,0.0437,4.750593824,
0.04372,-1.562748036,0.04372,4.750593824,
0.04374,2.091554906,0.04374,4.750593824,
0.04376,0.9952640234,0.04376,5.116024118,
0.04378,2.091554906,0.04378,4.38516353,
0.0438,2.4569852,0.0438,5.481454413,
0.04382,2.822415494,0.04382,5.116024118,
0.04384,2.822415494,0.04384,4.750593824,
0.04386,2.822415494,0.04386,4.750593824,
0.04388,3.187845788,0.04388,4.38516353,
0.0439,4.284136671,0.0439,5.481454413,
0.04392,4.649566965,0.04392,4.750593824,
0.04394,4.649566965,0.04394,4.38516353,
0.04396,3.553276083,0.04396,5.481454413,
0.04398,5.014997259,0.04398,4.750593824,
0.044,4.284136671,0.044,4.38516353,
0.04402,3.553276083,0.04402,4.750593824,
0.04404,2.4569852,0.04404,4.750593824,
0.04406,3.187845788,0.04406,5.481454413,
0.04408,2.4569852,0.04408,5.116024118,
0.0441,5.380427553,0.0441,4.019733236,
0.04412,3.187845788,0.04412,5.846884707,
0.04414,2.091554906,0.04414,4.750593824,
0.04416,1.360694318,0.04416,5.116024118,
0.04418,0.6298337292,0.04418,5.481454413,
0.0442,-0.1010268591,0.0442,4.750593824,
0.04422,0.264403435,0.04422,4.750593824,
0.04424,-1.562748036,0.04424,5.481454413,
0.04426,-1.197317742,0.04426,5.116024118,
0.04428,-2.659038918,0.04428,4.750593824,
0.0443,-2.293608624,0.0443,5.116024118,
0.04432,-4.120760095,0.04432,5.116024118,
0.04434,-3.024469212,0.04434,4.750593824,
0.04436,-3.389899507,0.04436,5.116024118,
0.04438,-4.486190389,0.04438,4.750593824,
0.0444,-5.217050978,0.0444,4.750593824,
0.04442,-5.217050978,0.04442,5.481454413,
0.04444,-5.217050978,0.04444,5.116024118,
0.04446,-4.120760095,0.04446,4.750593824,
0.04448,-4.120760095,0.04448,5.116024118,
0.0445,-3.755329801,0.0445,5.116024118,
0.04452,-4.486190389,0.04452,4.750593824,
0.04454,-2.293608624,0.04454,5.116024118,
0.04456,-3.024469212,0.04456,4.750593824,
0.04458,-2.293608624,0.04458,5.116024118,
0.0446,-0.8318874475,0.0446,5.116024118,
0.04462,-1.92817833,0.04462,5.116024118,
0.04464,-1.197317742,0.04464,4.38516353,
0.04466,-0.1010268591,0.04466,5.116024118,
0.04468,0.6298337292,0.04468,5.481454413,
0.0447,3.553276083,0.0447,4.750593824,
0.04472,2.4569852,0.04472,5.116024118,
0.04474,1.360694318,0.04474,4.750593824,
0.04476,3.187845788,0.04476,4.750593824,
0.04478,2.822415494,0.04478,5.116024118,
0.0448,3.553276083,0.0448,5.116024118,
0.04482,6.111288142,0.04482,4.750593824,
0.04484,4.284136671,0.04484,5.116024118,
0.04486,3.918706377,0.04486,5.116024118,
0.04488,4.284136671,0.04488,4.750593824,
0.0449,3.553276083,0.0449,5.116024118,
0.04492,3.553276083,0.04492,4.38516353,
0.04494,4.284136671,0.04494,5.116024118,
0.04496,3.918706377,0.04496,5.116024118,
0.04498,3.553276083,0.04498,4.38516353,
0.045,2.4569852,0.045,4.750593824,
0.04502,0.6298337292,0.04502,5.481454413,
0.04504,0.9952640234,0.04504,5.116024118,
0.04506,2.4569852,0.04506,4.750593824,
0.04508,0.6298337292,0.04508,5.481454413,
0.0451,-0.4664571533,0.0451,5.116024118,
0.04512,-0.4664571533,0.04512,4.750593824,
0.04514,-0.4664571533,0.04514,5.116024118,
0.04516,-2.293608624,0.04516,5.116024118,
0.04518,-1.562748036,0.04518,4.750593824,
0.0452,-1.92817833,0.0452,5.116024118,
0.04522,-5.217050978,0.04522,5.116024118,
0.04524,-2.293608624,0.04524,4.750593824,
0.04526,-2.659038918,0.04526,5.116024118,
0.04528,-4.486190389,0.04528,5.116024118,
0.0453,-3.755329801,0.0453,4.750593824,
0.04532,-4.120760095,0.04532,5.116024118,
0.04534,-4.851620683,0.04534,4.750593824,
0.04536,-4.120760095,0.04536,4.750593824,
0.04538,-3.755329801,0.04538,5.116024118,
0.0454,-6.678772154,0.0454,4.750593824,
0.04542,-2.293608624,0.04542,4.38516353,
0.04544,-4.486190389,0.04544,4.750593824,
0.04546,-4.120760095,0.04546,5.116024118,
0.04548,-3.755329801,0.04548,5.481454413,
0.0455,-2.659038918,0.0455,4.750593824,
0.04552,-1.562748036,0.04552,5.116024118,
0.04554,-1.562748036,0.04554,5.116024118,
0.04556,-0.1010268591,0.04556,5.116024118,
0.04558,-0.4664571533,0.04558,4.750593824,
0.0456,0.6298337292,0.0456,4.750593824,
0.04562,1.360694318,0.04562,5.116024118,
0.04564,-3.389899507,0.04564,5.116024118,
0.04566,2.4569852,0.04566,4.38516353,
0.04568,2.822415494,0.04568,4.750593824,
0.0457,1.726124612,0.0457,4.38516353,
0.04572,4.284136671,0.04572,5.116024118,
0.04574,3.187845788,0.04574,5.116024118,
0.04576,2.822415494,0.04576,4.38516353,
0.04578,3.553276083,0.04578,4.750593824,
0.0458,3.187845788,0.0458,5.116024118,
0.04582,4.649566965,0.04582,4.750593824,
0.04584,4.649566965,0.04584,4.750593824,
0.04586,4.284136671,0.04586,5.116024118,
0.04588,3.918706377,0.04588,4.38516353,
0.0459,4.284136671,0.0459,4.38516353,
0.04592,2.091554906,0.04592,4.019733236,
0.04594,3.553276083,0.04594,4.750593824,
0.04596,2.822415494,0.04596,4.750593824,
0.04598,2.4569852,0.04598,4.38516353,
0.046,2.091554906,0.046,5.116024118,
0.04602,2.091554906,0.04602,4.750593824,
0.04604,-0.4664571533,0.04604,4.750593824,
0.04606,-0.1010268591,0.04606,5.481454413,
0.04608,-0.1010268591,0.04608,4.38516353,
0.0461,-1.197317742,0.0461,4.38516353,
0.04612,-1.92817833,0.04612,4.750593824,
0.04614,-1.92817833,0.04614,4.750593824,
0.04616,-4.120760095,0.04616,4.38516353,
0.04618,-2.293608624,0.04618,5.116024118,
0.0462,-3.024469212,0.0462,4.750593824,
0.04622,-1.92817833,0.04622,4.019733236,
0.04624,-3.024469212,0.04624,4.750593824,
0.04626,-4.486190389,0.04626,4.750593824,
0.04628,-3.755329801,0.04628,4.38516353,
0.0463,-4.120760095,0.0463,4.750593824,
0.04632,-3.755329801,0.04632,4.38516353,
0.04634,-3.389899507,0.04634,4.38516353,
0.04636,-4.120760095,0.04636,4.38516353,
0.04638,-2.293608624,0.04638,4.750593824,
0.0464,-3.389899507,0.0464,4.38516353,
0.04642,-2.293608624,0.04642,4.750593824,
0.04644,-0.1010268591,0.04644,4.750593824,
0.04646,-0.8318874475,0.04646,4.38516353,
0.04648,-1.92817833,0.04648,4.38516353,
0.0465,-0.1010268591,0.0465,4.750593824,
0.04652,-1.92817833,0.04652,5.116024118,
0.04654,1.360694318,0.04654,5.116024118,
0.04656,1.726124612,0.04656,4.38516353,
0.04658,1.726124612,0.04658,4.019733236,
0.0466,0.9952640234,0.0466,5.481454413,
0.04662,2.091554906,0.04662,4.750593824,
0.04664,3.187845788,0.04664,4.019733236,
0.04666,3.918706377,0.04666,4.750593824,
0.04668,4.284136671,0.04668,4.750593824,
0.0467,3.918706377,0.0467,4.750593824,
0.04672,2.822415494,0.04672,5.116024118,
0.04674,5.014997259,0.04674,4.750593824,
0.04676,3.918706377,0.04676,3.654302942,
0.04678,4.284136671,0.04678,4.750593824,
0.0468,4.284136671,0.0468,4.019733236,
0.04682,2.4569852,0.04682,4.019733236,
0.04684,2.822415494,0.04684,4.750593824,
0.04686,2.822415494,0.04686,4.750593824,
0.04688,3.553276083,0.04688,4.38516353,
0.0469,2.4569852,0.0469,4.750593824,
0.04692,1.726124612,0.04692,4.38516353,
0.04694,0.9952640234,0.04694,4.38516353,
0.04696,1.360694318,0.04696,4.750593824,
0.04698,0.264403435,0.04698,4.750593824,
0.047,-0.1010268591,0.047,4.750593824,
0.04702,0.264403435,0.04702,4.38516353,
0.04704,-0.8318874475,0.04704,4.38516353,
0.04706,-2.293608624,0.04706,4.38516353,
0.04708,2.4569852,0.04708,4.750593824,
0.0471,-4.486190389,0.0471,4.750593824,
0.04712,-1.197317742,0.04712,5.116024118,
0.04714,-3.024469212,0.04714,4.750593824,
0.04716,-4.120760095,0.04716,4.38516353,
0.04718,-4.120760095,0.04718,4.38516353,
0.0472,-3.389899507,0.0472,4.750593824,
0.04722,-4.120760095,0.04722,4.750593824,
0.04724,-4.120760095,0.04724,4.019733236,
0.04726,-3.755329801,0.04726,5.116024118,
0.04728,-4.120760095,0.04728,4.750593824,
0.0473,-3.389899507,0.0473,4.38516353,
0.04732,-2.659038918,0.04732,4.750593824,
0.04734,-2.293608624,0.04734,5.116024118,
0.04736,-2.659038918,0.04736,4.750593824,
0.04738,-2.659038918,0.04738,4.750593824,
0.0474,-0.8318874475,0.0474,5.116024118,
0.04742,-1.197317742,0.04742,3.654302942,
0.04744,-1.562748036,0.04744,5.116024118,
0.04746,-0.1010268591,0.04746,4.750593824,
0.04748,0.264403435,0.04748,4.38516353,
0.0475,1.726124612,0.0475,4.750593824,
0.04752,1.360694318,0.04752,3.288872648,
0.04754,1.360694318,0.04754,4.750593824,
0.04756,3.187845788,0.04756,5.116024118,
0.04758,4.284136671,0.04758,4.750593824,
0.0476,3.187845788,0.0476,4.750593824,
0.04762,2.091554906,0.04762,4.750593824,
0.04764,5.014997259,0.04764,5.116024118,
0.04766,3.918706377,0.04766,4.750593824,
0.04768,4.649566965,0.04768,5.116024118,
0.0477,5.014997259,0.0477,4.750593824,
0.04772,3.553276083,0.04772,6.577745295,
0.04774,4.649566965,0.04774,4.750593824,
0.04776,3.918706377,0.04776,4.750593824,
0.04778,3.918706377,0.04778,5.116024118,
0.0478,3.918706377,0.0478,5.116024118,
0.04782,3.187845788,0.04782,4.750593824,
0.04784,1.726124612,0.04784,6.212315001,
0.04786,1.726124612,0.04786,4.38516353,
0.04788,0.9952640234,0.04788,4.750593824,
0.0479,0.9952640234,0.0479,5.481454413,
0.04792,0.9952640234,0.04792,2.923442353,
0.04794,-0.4664571533,0.04794,4.38516353,
0.04796,-0.8318874475,0.04796,5.116024118,
0.04798,-1.92817833,0.04798,4.38516353,
0.048,-1.562748036,0.048,4.750593824,
0.04802,-1.92817833,0.04802,4.38516353,
0.04804,-0.8318874475,0.04804,4.019733236,
0.04806,-4.120760095,0.04806,5.116024118,
0.04808,-4.486190389,0.04808,4.38516353,
0.0481,-4.120760095,0.0481,5.116024118,
0.04812,-4.120760095,0.04812,5.846884707,
0.04814,-3.755329801,0.04814,5.116024118,
0.04816,-4.851620683,0.04816,5.116024118,
0.04818,-5.947911566,0.04818,4.38516353,
0.0482,-3.755329801,0.0482,5.481454413,
0.04822,-4.486190389,0.04822,5.116024118,
0.04824,-4.486190389,0.04824,4.750593824,
0.04826,-3.755329801,0.04826,5.481454413,
0.04828,-2.293608624,0.04828,4.750593824,
0.0483,-3.024469212,0.0483,4.750593824,
0.04832,-1.197317742,0.04832,4.38516353,
0.04834,-1.562748036,0.04834,4.750593824,
0.04836,-0.1010268591,0.04836,4.750593824,
0.04838,0.9952640234,0.04838,5.481454413,
0.0484,-1.562748036,0.0484,4.750593824,
0.04842,1.726124612,0.04842,4.019733236,
0.04844,2.4569852,0.04844,5.481454413,
0.04846,0.9952640234,0.04846,4.750593824,
0.04848,2.4569852,0.04848,4.38516353,
0.0485,3.187845788,0.0485,5.481454413,
0.04852,3.187845788,0.04852,5.846884707,
0.04854,3.553276083,0.04854,4.750593824,
0.04856,4.284136671,0.04856,5.116024118,
0.04858,4.284136671,0.04858,4.750593824,
0.0486,3.918706377,0.0486,4.750593824,
0.04862,4.284136671,0.04862,5.481454413,
0.04864,3.918706377,0.04864,4.38516353,
0.04866,5.745857848,0.04866,5.116024118,
0.04868,3.553276083,0.04868,4.38516353,
0.0487,3.553276083,0.0487,4.38516353,
0.04872,3.918706377,0.04872,3.654302942,
0.04874,2.4569852,0.04874,5.116024118,
0.04876,2.091554906,0.04876,5.116024118,
0.04878,3.553276083,0.04878,4.750593824,
0.0488,1.726124612,0.0488,4.750593824,
0.04882,0.264403435,0.04882,4.019733236,
0.04884,1.726124612,0.04884,4.750593824,
0.04886,-0.4664571533,0.04886,4.750593824,
0.04888,0.264403435,0.04888,4.750593824,
0.0489,-1.197317742,0.0489,5.481454413,
0.04892,-3.024469212,0.04892,5.481454413,
0.04894,-1.562748036,0.04894,4.750593824,
0.04896,-1.562748036,0.04896,4.750593824,
0.04898,-2.659038918,0.04898,4.750593824,
0.049,-3.024469212,0.049,4.38516353,
0.04902,-3.755329801,0.04902,5.846884707,
0.04904,-3.755329801,0.04904,4.750593824,
0.04906,-4.486190389,0.04906,4.38516353,
0.04908,-3.755329801,0.04908,4.750593824,
0.0491,-4.486190389,0.0491,4.750593824,
0.04912,-3.389899507,0.04912,4.750593824,
0.04914,-3.755329801,0.04914,4.750593824,
0.04916,-3.389899507,0.04916,4.750593824,
0.04918,-2.659038918,0.04918,4.019733236,
0.0492,-1.197317742,0.0492,4.750593824,
0.04922,-1.562748036,0.04922,4.38516353,
0.04924,-2.293608624,0.04924,4.38516353,
0.04926,0.6298337292,0.04926,5.116024118,
0.04928,0.264403435,0.04928,5.116024118,
0.0493,-0.8318874475,0.0493,4.38516353,
0.04932,0.6298337292,0.04932,5.481454413,
0.04934,2.091554906,0.04934,4.019733236,
0.04936,1.726124612,0.04936,4.019733236,
0.04938,0.6298337292,0.04938,4.38516353,
0.0494,2.091554906,0.0494,5.116024118,
0.04942,2.4569852,0.04942,4.38516353,
0.04944,4.284136671,0.04944,4.750593824,
0.04946,4.649566965,0.04946,5.116024118,
0.04948,2.822415494,0.04948,4.019733236,
0.0495,4.284136671,0.0495,4.750593824,
0.04952,3.553276083,0.04952,4.750593824,
0.04954,3.187845788,0.04954,4.38516353,
0.04956,3.553276083,0.04956,5.116024118,
0.04958,3.918706377,0.04958,4.750593824,
0.0496,1.726124612,0.0496,4.019733236,
0.04962,4.284136671,0.04962,4.38516353,
0.04964,3.553276083,0.04964,4.750593824,
0.04966,3.187845788,0.04966,4.019733236,
0.04968,2.4569852,0.04968,4.750593824,
0.0497,2.091554906,0.0497,4.750593824,
0.04972,0.6298337292,0.04972,4.38516353,
0.04974,1.726124612,0.04974,4.38516353,
0.04976,0.6298337292,0.04976,4.750593824,
0.04978,-0.8318874475,0.04978,4.38516353,
0.0498,-0.1010268591,0.0498,4.38516353,
0.04982,-0.8318874475,0.04982,5.116024118,
0.04984,-1.562748036,0.04984,4.019733236,
0.04986,-3.024469212,0.04986,4.750593824,
0.04988,-1.92817833,0.04988,5.116024118,
0.0499,-3.024469212,0.0499,4.750593824,
0.04992,-1.562748036,0.04992,4.38516353,
0.04994,-3.024469212,0.04994,5.116024118,
0.04996,-4.120760095,0.04996,4.750593824,
0.04998,-3.024469212,0.04998,5.116024118,
0.05,-2.293608624,0.05,4.750593824,
0.05002,-3.024469212,0.05002,4.38516353,
0.05004,-4.851620683,0.05004,4.38516353,
0.05006,-4.851620683,0.05006,4.750593824,
0.05008,-4.120760095,0.05008,4.38516353,
0.0501,-3.389899507,0.0501,4.38516353,
0.05012,-3.755329801,0.05012,4.38516353,
0.05014,-4.120760095,0.05014,4.750593824,
0.05016,-1.92817833,0.05016,4.750593824,
0.05018,-1.562748036,0.05018,4.019733236,
0.0502,-2.293608624,0.0502,4.38516353,
0.05022,-0.4664571533,0.05022,5.116024118,
0.05024,0.9952640234,0.05024,4.38516353,
0.05026,0.264403435,0.05026,4.38516353,
0.05028,0.6298337292,0.05028,4.750593824,
0.0503,0.6298337292,0.0503,5.116024118,
0.05032,5.745857848,0.05032,4.38516353,
0.05034,2.091554906,0.05034,4.38516353,
0.05036,1.360694318,0.05036,5.116024118,
0.05038,2.4569852,0.05038,4.750593824,
0.0504,3.553276083,0.0504,5.116024118,
0.05042,4.649566965,0.05042,4.38516353,
0.05044,5.014997259,0.05044,4.019733236,
0.05046,4.284136671,0.05046,4.750593824,
0.05048,4.649566965,0.05048,4.750593824,
0.0505,3.918706377,0.0505,4.750593824,
0.05052,4.649566965,0.05052,4.38516353,
0.05054,4.649566965,0.05054,4.750593824,
0.05056,2.4569852,0.05056,4.38516353,
0.05058,3.918706377,0.05058,5.846884707,
0.0506,3.187845788,0.0506,4.38516353,
0.05062,2.091554906,0.05062,5.481454413,
0.05064,2.091554906,0.05064,4.750593824,
0.05066,1.726124612,0.05066,5.116024118,
0.05068,1.726124612,0.05068,4.750593824,
0.0507,-0.1010268591,0.0507,4.750593824,
0.05072,-0.4664571533,0.05072,4.38516353,
0.05074,-0.8318874475,0.05074,5.481454413,
0.05076,-3.024469212,0.05076,4.750593824,
0.05078,-2.293608624,0.05078,4.750593824,
0.0508,-2.659038918,0.0508,5.116024118,
0.05082,-3.024469212,0.05082,4.750593824,
0.05084,-3.024469212,0.05084,4.750593824,
0.05086,-3.755329801,0.05086,5.481454413,
0.05088,-3.755329801,0.05088,4.38516353,
0.0509,-4.120760095,0.0509,4.750593824,
0.05092,-3.755329801,0.05092,5.846884707,
0.05094,-5.947911566,0.05094,5.116024118,
0.05096,-3.024469212,0.05096,4.38516353,
0.05098,-4.120760095,0.05098,5.116024118,
0.051,-4.120760095,0.051,4.750593824,
0.05102,-5.582481272,0.05102,4.750593824,
0.05104,-4.120760095,0.05104,5.116024118,
0.05106,-4.120760095,0.05106,4.750593824,
0.05108,-2.659038918,0.05108,4.38516353,
0.0511,-2.293608624,0.0511,5.116024118,
0.05112,-0.4664571533,0.05112,4.750593824,
0.05114,-0.8318874475,0.05114,4.38516353,
0.05116,-0.8318874475,0.05116,5.116024118,
0.05118,-0.8318874475,0.05118,4.38516353,
0.0512,0.264403435,0.0512,4.750593824,
0.05122,5.014997259,0.05122,5.116024118,
0.05124,1.360694318,0.05124,4.38516353,
0.05126,1.726124612,0.05126,4.38516353,
0.05128,2.822415494,0.05128,5.481454413,
0.0513,2.4569852,0.0513,4.750593824,
0.05132,3.553276083,0.05132,4.38516353,
0.05134,3.553276083,0.05134,4.750593824,
0.05136,3.918706377,0.05136,5.116024118,
0.05138,3.553276083,0.05138,5.116024118,
0.0514,3.187845788,0.0514,5.116024118,
0.05142,6.111288142,0.05142,4.750593824,
0.05144,4.284136671,0.05144,4.38516353,
0.05146,5.014997259,0.05146,5.481454413,
0.05148,3.553276083,0.05148,5.116024118,
0.0515,2.091554906,0.0515,4.750593824,
0.05152,2.822415494,0.05152,5.116024118,
0.05154,1.726124612,0.05154,5.116024118,
0.05156,0.9952640234,0.05156,4.750593824,
0.05158,0.6298337292,0.05158,5.116024118,
0.0516,0.9952640234,0.0516,4.750593824,
0.05162,0.9952640234,0.05162,4.750593824,
0.05164,-0.1010268591,0.05164,5.481454413,
0.05166,-1.197317742,0.05166,4.750593824,
0.05168,-1.197317742,0.05168,4.750593824,
0.0517,-0.8318874475,0.0517,5.481454413,
0.05172,-1.92817833,0.05172,5.116024118,
0.05174,-2.659038918,0.05174,3.654302942,
0.05176,-3.755329801,0.05176,5.481454413,
0.05178,-3.389899507,0.05178,4.750593824,
0.0518,-4.486190389,0.0518,4.38516353,
0.05182,-5.582481272,0.05182,5.481454413,
0.05184,-4.486190389,0.05184,4.38516353,
0.05186,-3.389899507,0.05186,4.019733236,
0.05188,-4.486190389,0.05188,4.750593824,
0.0519,-4.851620683,0.0519,4.019733236,
0.05192,-4.120760095,0.05192,4.750593824,
0.05194,-3.024469212,0.05194,6.212315001,
0.05196,-3.389899507,0.05196,5.116024118,
0.05198,-3.389899507,0.05198,4.38516353,
0.052,-3.024469212,0.052,4.750593824,
0.05202,-3.389899507,0.05202,4.750593824,
0.05204,-2.293608624,0.05204,3.288872648,
0.05206,-1.92817833,0.05206,5.116024118,
0.05208,-3.389899507,0.05208,4.750593824,
0.0521,-0.1010268591,0.0521,4.019733236,
0.05212,-1.197317742,0.05212,5.481454413,
0.05214,0.9952640234,0.05214,4.750593824,
0.05216,0.9952640234,0.05216,4.38516353,
0.05218,2.822415494,0.05218,5.116024118,
0.0522,0.264403435,0.0522,4.750593824,
0.05222,2.091554906,0.05222,5.116024118,
0.05224,4.284136671,0.05224,6.212315001,
0.05226,2.822415494,0.05226,4.38516353,
0.05228,2.822415494,0.05228,4.750593824,
0.0523,4.284136671,0.0523,5.116024118,
0.05232,3.918706377,0.05232,4.38516353,
0.05234,4.649566965,0.05234,4.750593824,
0.05236,4.284136671,0.05236,5.116024118,
0.05238,3.918706377,0.05238,4.750593824,
0.0524,4.284136671,0.0524,4.750593824,
0.05242,3.187845788,0.05242,5.116024118,
0.05244,3.553276083,0.05244,3.654302942,
0.05246,3.918706377,0.05246,4.38516353,
0.05248,2.822415494,0.05248,5.481454413,
0.0525,2.091554906,0.0525,5.116024118,
0.05252,1.726124612,0.05252,4.38516353,
0.05254,1.726124612,0.05254,4.750593824,
0.05256,-0.1010268591,0.05256,4.750593824,
0.05258,1.726124612,0.05258,5.116024118,
0.0526,-0.4664571533,0.0526,5.116024118,
0.05262,-0.1010268591,0.05262,4.38516353,
0.05264,-1.92817833,0.05264,5.846884707,
0.05266,-2.659038918,0.05266,4.750593824,
0.05268,-2.659038918,0.05268,4.750593824,
0.0527,-2.659038918,0.0527,4.750593824,
0.05272,-3.389899507,0.05272,4.750593824,
0.05274,-3.024469212,0.05274,4.750593824,
0.05276,-3.389899507,0.05276,5.116024118,
0.05278,-3.755329801,0.05278,4.750593824,
0.0528,-3.389899507,0.0528,4.38516353,
0.05282,-4.851620683,0.05282,5.116024118,
0.05284,-4.120760095,0.05284,4.38516353,
0.05286,-4.120760095,0.05286,4.750593824,
0.05288,-3.024469212,0.05288,5.116024118,
0.0529,-3.024469212,0.0529,4.019733236,
0.05292,-3.024469212,0.05292,4.750593824,
0.05294,-0.4664571533,0.05294,4.38516353,
0.05296,-3.755329801,0.05296,5.116024118,
0.05298,-1.92817833,0.05298,5.116024118,
0.053,-2.293608624,0.053,4.750593824,
0.05302,-1.562748036,0.05302,4.750593824,
0.05304,-0.1010268591,0.05304,4.38516353,
0.05306,-0.8318874475,0.05306,5.481454413,
0.05308,0.9952640234,0.05308,4.750593824,
0.0531,1.726124612,0.0531,4.750593824,
0.05312,2.091554906,0.05312,5.481454413,
0.05314,0.9952640234,0.05314,4.750593824,
0.05316,1.726124612,0.05316,4.750593824,
0.05318,3.187845788,0.05318,4.750593824,
0.0532,2.822415494,0.0532,4.38516353,
0.05322,4.284136671,0.05322,5.116024118,
0.05324,4.284136671,0.05324,5.846884707,
0.05326,6.111288142,0.05326,4.750593824,
0.05328,4.649566965,0.05328,4.750593824,
0.0533,4.649566965,0.0533,5.116024118,
0.05332,3.918706377,0.05332,5.116024118,
0.05334,3.918706377,0.05334,4.019733236,
0.05336,5.014997259,0.05336,5.481454413,
0.05338,3.553276083,0.05338,4.38516353,
0.0534,3.553276083,0.0534,4.38516353,
0.05342,1.360694318,0.05342,5.481454413,
0.05344,1.360694318,0.05344,5.116024118,
0.05346,0.6298337292,0.05346,4.38516353,
0.05348,2.4569852,0.05348,4.750593824,
0.0535,0.264403435,0.0535,4.750593824,
0.05352,0.9952640234,0.05352,4.750593824,
0.05354,-1.197317742,0.05354,5.481454413,
0.05356,-0.8318874475,0.05356,4.750593824,
0.05358,-1.92817833,0.05358,4.750593824,
0.0536,-1.562748036,0.0536,5.116024118,
0.05362,-3.389899507,0.05362,5.116024118,
0.05364,-1.92817833,0.05364,4.750593824,
0.05366,-3.389899507,0.05366,5.116024118,
0.05368,-4.120760095,0.05368,4.750593824,
0.0537,-4.120760095,0.0537,5.116024118,
0.05372,-3.755329801,0.05372,4.750593824,
0.05374,-4.120760095,0.05374,4.38516353,
0.05376,-4.486190389,0.05376,4.38516353,
0.05378,-6.31334186,0.05378,4.38516353,
0.0538,-3.389899507,0.0538,4.38516353,
0.05382,-3.389899507,0.05382,4.750593824,
0.05384,-3.024469212,0.05384,4.750593824,
0.05386,-3.389899507,0.05386,4.38516353,
0.05388,-3.024469212,0.05388,5.116024118,
0.0539,-0.1010268591,0.0539,4.750593824,
0.05392,-2.659038918,0.05392,5.116024118,
0.05394,-1.92817833,0.05394,4.750593824,
0.05396,-1.197317742,0.05396,5.116024118,
0.05398,-0.8318874475,0.05398,5.116024118,
0.054,-0.4664571533,0.054,4.750593824,
0.05402,2.091554906,0.05402,4.750593824,
0.05404,0.6298337292,0.05404,4.750593824,
0.05406,4.284136671,0.05406,4.750593824,
0.05408,1.726124612,0.05408,5.116024118,
0.0541,2.091554906,0.0541,5.116024118,
0.05412,2.4569852,0.05412,4.750593824,
0.05414,4.649566965,0.05414,4.750593824,
0.05416,5.745857848,0.05416,4.750593824,
0.05418,3.918706377,0.05418,4.750593824,
0.0542,2.4569852,0.0542,4.750593824,
0.05422,5.380427553,0.05422,4.750593824,
0.05424,4.284136671,0.05424,4.750593824,
0.05426,4.284136671,0.05426,4.750593824,
0.05428,2.822415494,0.05428,5.116024118,
0.0543,3.187845788,0.0543,5.116024118,
0.05432,4.649566965,0.05432,4.38516353,
0.05434,3.187845788,0.05434,5.116024118,
0.05436,0.6298337292,0.05436,5.116024118,
0.05438,2.4569852,0.05438,5.116024118,
0.0544,-0.1010268591,0.0544,4.750593824,
0.05442,0.9952640234,0.05442,5.116024118,
0.05444,1.360694318,0.05444,4.750593824,
0.05446,-0.8318874475,0.05446,4.750593824,
0.05448,-0.4664571533,0.05448,4.38516353,
0.0545,-1.197317742,0.0545,4.750593824,
0.05452,-1.92817833,0.05452,4.750593824,
0.05454,-2.659038918,0.05454,4.750593824,
0.05456,-0.8318874475,0.05456,4.750593824,
0.05458,-2.293608624,0.05458,4.38516353,
0.0546,-3.024469212,0.0546,4.750593824,
0.05462,-5.947911566,0.05462,4.750593824,
0.05464,-3.755329801,0.05464,4.750593824,
0.05466,-4.120760095,0.05466,4.750593824,
0.05468,-3.755329801,0.05468,4.750593824,
0.0547,-3.389899507,0.0547,5.116024118,
0.05472,-3.389899507,0.05472,4.38516353,
0.05474,-3.755329801,0.05474,4.750593824,
0.05476,-2.659038918,0.05476,4.750593824,
0.05478,-3.024469212,0.05478,4.38516353,
0.0548,-4.486190389,0.0548,4.750593824,
0.05482,-4.120760095,0.05482,5.116024118,
0.05484,-1.92817833,0.05484,4.38516353,
0.05486,-2.293608624,0.05486,4.750593824,
0.05488,-0.8318874475,0.05488,4.38516353,
0.0549,-0.1010268591,0.0549,4.019733236,
0.05492,0.264403435,0.05492,4.750593824,
0.05494,0.9952640234,0.05494,4.750593824,
0.05496,0.264403435,0.05496,4.38516353,
0.05498,0.9952640234,0.05498,5.116024118,
0.055,2.4569852,0.055,5.116024118,
0.05502,7.207579024,0.05502,4.38516353,
0.05504,3.918706377,0.05504,4.750593824,
0.05506,3.187845788,0.05506,4.750593824,
0.05508,4.284136671,0.05508,4.38516353,
0.0551,5.014997259,0.0551,4.750593824,
0.05512,4.649566965,0.05512,4.750593824,
0.05514,4.284136671,0.05514,4.38516353,
0.05516,5.380427553,0.05516,5.116024118,
0.05518,4.649566965,0.05518,4.750593824,
0.0552,4.649566965,0.0552,4.019733236,
0.05522,4.284136671,0.05522,5.116024118,
0.05524,5.014997259,0.05524,4.019733236,
0.05526,4.649566965,0.05526,4.750593824,
0.05528,4.284136671,0.05528,4.750593824,
0.0553,2.4569852,0.0553,5.116024118,
0.05532,3.553276083,0.05532,4.019733236,
0.05534,0.9952640234,0.05534,4.750593824,
0.05536,0.6298337292,0.05536,5.116024118,
0.05538,-0.4664571533,0.05538,4.38516353,
0.0554,-0.4664571533,0.0554,4.750593824,
0.05542,-0.8318874475,0.05542,5.116024118,
0.05544,-1.92817833,0.05544,4.38516353,
0.05546,0.264403435,0.05546,4.750593824,
0.05548,-3.024469212,0.05548,4.750593824,
0.0555,-3.755329801,0.0555,4.38516353,
0.05552,-3.389899507,0.05552,5.116024118,
0.05554,-3.389899507,0.05554,4.38516353,
0.05556,-4.486190389,0.05556,4.38516353,
0.05558,-3.389899507,0.05558,5.116024118,
0.0556,-4.486190389,0.0556,4.750593824,
0.05562,-4.120760095,0.05562,4.38516353,
0.05564,-3.389899507,0.05564,5.116024118,
0.05566,-3.389899507,0.05566,4.750593824,
0.05568,-3.389899507,0.05568,4.019733236,
0.0557,-3.755329801,0.0557,5.116024118,
0.05572,-2.659038918,0.05572,5.846884707,
0.05574,-2.659038918,0.05574,4.019733236,
0.05576,1.360694318,0.05576,4.38516353,
0.05578,-0.1010268591,0.05578,4.38516353,
0.0558,-1.92817833,0.0558,4.38516353,
0.05582,-1.197317742,0.05582,4.750593824,
0.05584,-0.4664571533,0.05584,5.116024118,
0.05586,0.6298337292,0.05586,4.019733236,
0.05588,1.360694318,0.05588,4.750593824,
0.0559,1.726124612,0.0559,4.750593824,
0.05592,1.360694318,0.05592,4.38516353,
0.05594,2.091554906,0.05594,4.750593824,
0.05596,2.4569852,0.05596,5.116024118,
0.05598,2.822415494,0.05598,4.019733236,
0.056,3.553276083,0.056,4.019733236,
0.05602,3.918706377,0.05602,4.750593824,
0.05604,3.187845788,0.05604,4.019733236,
0.05606,3.553276083,0.05606,4.38516353,
0.05608,5.014997259,0.05608,4.750593824,
0.0561,4.284136671,0.0561,4.750593824,
0.05612,5.014997259,0.05612,4.750593824,
0.05614,5.380427553,0.05614,4.38516353,
0.05616,1.726124612,0.05616,4.019733236,
0.05618,3.918706377,0.05618,4.38516353,
0.0562,4.284136671,0.0562,4.38516353,
0.05622,3.187845788,0.05622,4.38516353,
0.05624,2.4569852,0.05624,4.750593824,
0.05626,3.187845788,0.05626,4.750593824,
0.05628,-0.1010268591,0.05628,4.38516353,
0.0563,-1.562748036,0.0563,4.750593824,
0.05632,-0.4664571533,0.05632,4.750593824,
0.05634,-0.1010268591,0.05634,5.116024118,
0.05636,-0.1010268591,0.05636,5.846884707,
0.05638,-0.8318874475,0.05638,4.38516353,
0.0564,-1.562748036,0.0564,4.38516353,
0.05642,-2.293608624,0.05642,5.116024118,
0.05644,-3.389899507,0.05644,4.750593824,
0.05646,-4.120760095,0.05646,5.481454413,
0.05648,-3.389899507,0.05648,5.116024118,
0.0565,-4.486190389,0.0565,4.750593824,
0.05652,-3.755329801,0.05652,4.750593824,
0.05654,-4.120760095,0.05654,4.750593824,
0.05656,-4.851620683,0.05656,4.750593824,
0.05658,-4.120760095,0.05658,4.750593824,
0.0566,-4.851620683,0.0566,5.116024118,
0.05662,-3.389899507,0.05662,4.750593824,
0.05664,-3.755329801,0.05664,4.38516353,
0.05666,-4.120760095,0.05666,3.288872648,
0.05668,-2.659038918,0.05668,4.38516353,
0.0567,-3.389899507,0.0567,4.38516353,
0.05672,-1.562748036,0.05672,5.116024118,
0.05674,-1.197317742,0.05674,4.750593824,
0.05676,-3.389899507,0.05676,4.750593824,
0.05678,0.6298337292,0.05678,5.116024118,
0.0568,0.264403435,0.0568,4.750593824,
0.05682,0.6298337292,0.05682,4.38516353,
0.05684,0.9952640234,0.05684,5.116024118,
0.05686,2.091554906,0.05686,6.577745295,
0.05688,2.4569852,0.05688,4.38516353,
0.0569,2.822415494,0.0569,5.481454413,
0.05692,3.553276083,0.05692,4.750593824,
0.05694,4.649566965,0.05694,4.38516353,
0.05696,4.284136671,0.05696,4.750593824,
0.05698,2.091554906,0.05698,5.116024118,
0.057,4.649566965,0.057,5.116024118,
0.05702,4.284136671,0.05702,6.212315001,
0.05704,3.553276083,0.05704,4.750593824,
0.05706,4.284136671,0.05706,3.288872648,
0.05708,4.649566965,0.05708,5.481454413,
0.0571,3.187845788,0.0571,4.750593824,
0.05712,2.822415494,0.05712,4.38516353,
0.05714,3.553276083,0.05714,5.116024118,
0.05716,3.187845788,0.05716,5.116024118,
0.05718,2.091554906,0.05718,4.750593824,
0.0572,-0.8318874475,0.0572,5.116024118,
0.05722,-0.4664571533,0.05722,4.750593824,
0.05724,0.6298337292,0.05724,4.38516353,
0.05726,-1.197317742,0.05726,5.481454413,
0.05728,-1.92817833,0.05728,4.750593824,
0.0573,-0.4664571533,0.0573,4.750593824,
0.05732,-2.293608624,0.05732,5.116024118,
0.05734,-1.562748036,0.05734,4.750593824,
0.05736,-2.659038918,0.05736,3.654302942,
0.05738,-2.659038918,0.05738,4.750593824,
0.0574,-4.486190389,0.0574,4.750593824,
0.05742,-3.024469212,0.05742,4.750593824,
0.05744,-4.486190389,0.05744,5.116024118,
0.05746,-3.755329801,0.05746,5.846884707,
0.05748,-4.851620683,0.05748,4.750593824,
0.0575,-4.120760095,0.0575,5.481454413,
0.05752,-3.755329801,0.05752,4.750593824,
0.05754,-2.293608624,0.05754,4.750593824,
0.05756,-3.389899507,0.05756,5.846884707,
0.05758,-4.486190389,0.05758,4.019733236,
0.0576,-3.755329801,0.0576,4.019733236,
0.05762,-2.659038918,0.05762,5.116024118,
0.05764,-2.293608624,0.05764,5.116024118,
0.05766,-1.197317742,0.05766,3.288872648,
0.05768,-0.4664571533,0.05768,5.116024118,
0.0577,0.9952640234,0.0577,5.116024118,
0.05772,-0.1010268591,0.05772,5.116024118,
0.05774,-1.197317742,0.05774,5.481454413,
0.05776,0.264403435,0.05776,4.019733236,
0.05778,2.4569852,0.05778,4.38516353,
0.0578,2.4569852,0.0578,5.116024118,
0.05782,1.726124612,0.05782,4.38516353,
0.05784,2.091554906,0.05784,4.38516353,
0.05786,0.9952640234,0.05786,5.846884707,
0.05788,3.187845788,0.05788,4.750593824,
0.0579,5.745857848,0.0579,4.750593824,
0.05792,4.284136671,0.05792,5.116024118,
0.05794,5.380427553,0.05794,4.750593824,
0.05796,4.284136671,0.05796,5.481454413,
0.05798,3.918706377,0.05798,5.116024118,
0.058,3.187845788,0.058,4.38516353,
0.05802,3.187845788,0.05802,4.38516353,
0.05804,3.553276083,0.05804,4.750593824,
0.05806,3.187845788,0.05806,4.019733236,
0.05808,1.726124612,0.05808,4.750593824,
0.0581,1.360694318,0.0581,4.750593824,
0.05812,1.360694318,0.05812,4.750593824,
0.05814,0.6298337292,0.05814,4.38516353,
0.05816,1.726124612,0.05816,5.481454413,
0.05818,2.091554906,0.05818,4.750593824,
0.0582,-0.1010268591,0.0582,5.116024118,
0.05822,-1.562748036,0.05822,5.116024118,
0.05824,-1.562748036,0.05824,4.750593824,
0.05826,-1.562748036,0.05826,5.481454413,
0.05828,-3.024469212,0.05828,5.116024118,
0.0583,-2.659038918,0.0583,5.846884707,
0.05832,-3.024469212,0.05832,5.116024118,
0.05834,-4.120760095,0.05834,4.38516353,
0.05836,-3.755329801,0.05836,4.38516353,
0.05838,-4.120760095,0.05838,5.116024118,
0.0584,-4.120760095,0.0584,4.750593824,
0.05842,-3.755329801,0.05842,5.116024118,
0.05844,-3.024469212,0.05844,5.116024118,
0.05846,-4.851620683,0.05846,5.116024118,
0.05848,-1.197317742,0.05848,4.750593824,
0.0585,-4.486190389,0.0585,5.116024118,
0.05852,-4.120760095,0.05852,5.481454413,
0.05854,-3.024469212,0.05854,4.750593824,
0.05856,-1.562748036,0.05856,5.481454413,
0.05858,-1.562748036,0.05858,4.750593824,
0.0586,-2.293608624,0.0586,4.750593824,
0.05862,-0.4664571533,0.05862,5.481454413,
