"A0_accX_x","A0_accX_y","A1_rmsX_x","A1_rmsX_y"
0,3.932402704,0,4.38516353,
2e-05,3.201542116,2e-05,4.38516353,
4e-05,2.836111822,4e-05,5.116024118,
6e-05,1.008960351,6e-05,4.750593824,
8e-05,-0.0873305317,8e-05,5.116024118,
0.0001,1.374390645,0.0001,4.750593824,
0.00012,-0.4527608259,0.00012,4.38516353,
0.00014,1.008960351,0.00014,4.750593824,
0.00016,-1.549051708,0.00016,4.750593824,
0.00018,-1.549051708,0.00018,4.019733236,
0.0002,-1.183621414,0.0002,4.750593824,
0.00022,-1.183621414,0.00022,4.750593824,
0.00024,-2.645342591,0.00024,4.750593824,
0.00026,-3.010772885,0.00026,5.116024118,
0.00028,-2.645342591,0.00028,4.019733236,
0.0003,-4.837924356,0.0003,4.38516353,
0.00032,-4.107063768,0.00032,5.116024118,
0.00034,-4.107063768,0.00034,4.750593824,
0.00036,-4.472494062,0.00036,4.019733236,
0.00038,-4.107063768,0.00038,4.750593824,
0.0004,-3.741633473,0.0004,4.750593824,
0.00042,-3.741633473,0.00042,3.654302942,
0.00044,-3.010772885,0.00044,4.38516353,
0.00046,-2.645342591,0.00046,4.750593824,
0.00048,-2.279912297,0.00048,4.38516353,
0.0005,-1.549051708,0.0005,4.750593824,
0.00052,-1.183621414,0.00052,4.019733236,
0.00054,-2.645342591,0.00054,4.38516353,
0.00056,-0.4527608259,0.00056,4.750593824,
0.00058,1.374390645,0.00058,4.38516353,
0.0006,1.374390645,0.0006,4.019733236,
0.00062,2.105251233,0.00062,4.750593824,
0.00064,2.470681527,0.00064,4.38516353,
0.00066,5.028693587,0.00066,4.38516353,
0.00068,2.836111822,0.00068,4.750593824,
0.0007,3.56697241,0.0007,4.750593824,
0.00072,3.56697241,0.00072,4.38516353,
0.00074,4.297832998,0.00074,4.750593824,
0.00076,3.932402704,0.00076,4.38516353,
0.00078,5.028693587,0.00078,4.019733236,
0.0008,3.56697241,0.0008,5.116024118,
0.00082,2.836111822,0.00082,4.750593824,
0.00084,3.932402704,0.00084,4.019733236,
0.00086,3.932402704,0.00086,4.750593824,
0.00088,3.932402704,0.00088,4.38516353,
0.0009,3.201542116,0.0009,4.38516353,
0.00092,3.56697241,0.00092,4.750593824,
0.00094,3.56697241,0.00094,4.750593824,
0.00096,1.739820939,0.00096,4.750593824,
0.00098,2.836111822,0.00098,4.750593824,
0.001,1.739820939,0.001,4.750593824,
0.00102,-1.549051708,0.00102,4.019733236,
0.00104,0.6435300566,0.00104,4.019733236,
0.00106,-0.4527608259,0.00106,4.750593824,
0.00108,-0.4527608259,0.00108,4.38516353,
0.0011,-2.279912297,0.0011,4.38516353,
0.00112,-2.279912297,0.00112,4.750593824,
0.00114,-1.549051708,0.00114,5.481454413,
0.00116,-3.376203179,0.00116,4.38516353,
0.00118,-4.107063768,0.00118,4.750593824,
0.0012,-3.010772885,0.0012,4.019733236,
0.00122,-4.107063768,0.00122,5.116024118,
0.00124,-5.568784944,0.00124,4.750593824,
0.00126,-5.20335465,0.00126,5.481454413,
0.00128,-3.010772885,0.00128,4.750593824,
0.0013,-3.376203179,0.0013,4.38516353,
0.00132,-6.299645533,0.00132,4.750593824,
0.00134,-4.107063768,0.00134,4.750593824,
0.00136,-4.107063768,0.00136,4.38516353,
0.00138,-3.010772885,0.00138,5.116024118,
0.0014,-1.549051708,0.0014,4.750593824,
0.00142,-2.279912297,0.00142,4.750593824,
0.00144,-1.914482003,0.00144,5.481454413,
0.00146,-1.549051708,0.00146,5.116024118,
0.00148,0.2780997625,0.00148,4.019733236,
0.0015,-0.0873305317,0.0015,5.481454413,
0.00152,0.2780997625,0.00152,5.116024118,
0.00154,0.2780997625,0.00154,4.38516353,
0.00156,1.374390645,0.00156,5.116024118,
0.00158,1.739820939,0.00158,4.750593824,
0.0016,1.739820939,0.0016,4.38516353,
0.00162,2.836111822,0.00162,5.116024118,
0.00164,3.56697241,0.00164,4.019733236,
0.00166,3.56697241,0.00166,4.38516353,
0.00168,4.663263293,0.00168,5.116024118,
0.0017,5.028693587,0.0017,4.750593824,
0.00172,3.201542116,0.00172,4.750593824,
0.00174,3.932402704,0.00174,5.846884707,
0.00176,3.932402704,0.00176,4.750593824,
0.00178,2.470681527,0.00178,4.38516353,
0.0018,3.932402704,0.0018,5.481454413,
0.00182,3.201542116,0.00182,4.38516353,
0.00184,4.297832998,0.00184,4.019733236,
0.00186,3.201542116,0.00186,5.116024118,
0.00188,3.201542116,0.00188,4.750593824,
0.0019,1.374390645,0.0019,4.750593824,
0.00192,1.374390645,0.00192,5.116024118,
0.00194,-1.549051708,0.00194,3.654302942,
0.00196,-0.0873305317,0.00196,4.38516353,
0.00198,-0.0873305317,0.00198,5.481454413,
0.002,-1.183621414,0.002,4.750593824,
0.00202,-1.549051708,0.00202,4.38516353,
0.00204,-2.279912297,0.00204,6.212315001,
0.00206,-1.914482003,0.00206,4.750593824,
0.00208,-4.107063768,0.00208,4.750593824,
0.0021,-2.645342591,0.0021,5.116024118,
0.00212,-3.376203179,0.00212,5.116024118,
0.00214,-4.472494062,0.00214,4.750593824,
0.00216,-3.741633473,0.00216,5.846884707,
0.00218,-4.837924356,0.00218,4.750593824,
0.0022,-4.472494062,0.0022,4.38516353,
0.00222,-5.20335465,0.00222,5.116024118,
0.00224,-4.107063768,0.00224,4.38516353,
0.00226,-4.107063768,0.00226,4.750593824,
0.00228,-3.741633473,0.00228,5.116024118,
0.0023,-4.107063768,0.0023,4.38516353,
0.00232,-3.741633473,0.00232,4.38516353,
0.00234,-4.472494062,0.00234,6.212315001,
0.00236,-2.279912297,0.00236,5.116024118,
0.00238,-0.4527608259,0.00238,4.750593824,
0.0024,-0.0873305317,0.0024,5.481454413,
0.00242,-1.183621414,0.00242,4.750593824,
0.00244,-0.4527608259,0.00244,4.750593824,
0.00246,-2.279912297,0.00246,4.750593824,
0.00248,-0.0873305317,0.00248,4.750593824,
0.0025,2.105251233,0.0025,4.750593824,
0.00252,-0.4527608259,0.00252,5.481454413,
0.00254,1.739820939,0.00254,4.750593824,
0.00256,2.105251233,0.00256,4.750593824,
0.00258,3.56697241,0.00258,5.116024118,
0.0026,3.932402704,0.0026,4.38516353,
0.00262,3.56697241,0.00262,5.116024118,
0.00264,4.297832998,0.00264,5.116024118,
0.00266,3.56697241,0.00266,4.38516353,
0.00268,5.028693587,0.00268,4.750593824,
0.0027,3.56697241,0.0027,5.116024118,
0.00272,4.297832998,0.00272,4.750593824,
0.00274,2.836111822,0.00274,4.019733236,
0.00276,2.105251233,0.00276,4.750593824,
0.00278,3.201542116,0.00278,4.750593824,
0.0028,0.6435300566,0.0028,4.750593824,
0.00282,0.6435300566,0.00282,5.481454413,
0.00284,-0.0873305317,0.00284,5.116024118,
0.00286,0.6435300566,0.00286,4.750593824,
0.00288,0.6435300566,0.00288,5.116024118,
0.0029,1.008960351,0.0029,5.116024118,
0.00292,-1.183621414,0.00292,4.750593824,
0.00294,-1.549051708,0.00294,5.116024118,
0.00296,-1.914482003,0.00296,4.750593824,
0.00298,-3.010772885,0.00298,4.019733236,
0.003,-2.279912297,0.003,5.481454413,
0.00302,-2.645342591,0.00302,4.750593824,
0.00304,-2.645342591,0.00304,4.750593824,
0.00306,-4.472494062,0.00306,5.116024118,
0.00308,-5.20335465,0.00308,4.750593824,
0.0031,-3.010772885,0.0031,5.116024118,
0.00312,-4.837924356,0.00312,5.481454413,
0.00314,-4.107063768,0.00314,4.750593824,
0.00316,-2.645342591,0.00316,5.116024118,
0.00318,-4.472494062,0.00318,5.481454413,
0.0032,-3.376203179,0.0032,4.38516353,
0.00322,-3.741633473,0.00322,5.116024118,
0.00324,-3.376203179,0.00324,4.750593824,
0.00326,-3.741633473,0.00326,4.750593824,
0.00328,-1.914482003,0.00328,5.116024118,
0.0033,-2.645342591,0.0033,4.750593824,
0.00332,-3.376203179,0.00332,4.750593824,
0.00334,0.2780997625,0.00334,5.116024118,
0.00336,1.008960351,0.00336,5.481454413,
0.00338,0.6435300566,0.00338,5.116024118,
0.0034,0.6435300566,0.0034,5.116024118,
0.00342,1.374390645,0.00342,4.750593824,
0.00344,2.470681527,0.00344,5.481454413,
0.00346,3.201542116,0.00346,5.116024118,
0.00348,1.008960351,0.00348,4.750593824,
0.0035,3.201542116,0.0035,4.750593824,
0.00352,6.490414763,0.00352,5.116024118,
0.00354,3.201542116,0.00354,5.116024118,
0.00356,3.932402704,0.00356,4.38516353,
0.00358,4.663263293,0.00358,5.116024118,
0.0036,4.297832998,0.0036,4.38516353,
0.00362,3.932402704,0.00362,4.750593824,
0.00364,5.028693587,0.00364,5.116024118,
0.00366,1.739820939,0.00366,4.750593824,
0.00368,4.297832998,0.00368,4.750593824,
0.0037,4.297832998,0.0037,5.481454413,
0.00372,3.201542116,0.00372,5.116024118,
0.00374,2.470681527,0.00374,4.38516353,
0.00376,3.201542116,0.00376,5.116024118,
0.00378,1.374390645,0.00378,4.750593824,
0.0038,3.201542116,0.0038,5.116024118,
0.00382,1.374390645,0.00382,5.481454413,
0.00384,0.2780997625,0.00384,5.116024118,
0.00386,0.2780997625,0.00386,5.116024118,
0.00388,-1.549051708,0.00388,5.481454413,
0.0039,-2.279912297,0.0039,5.116024118,
0.00392,0.2780997625,0.00392,4.750593824,
0.00394,-2.645342591,0.00394,5.116024118,
0.00396,-3.010772885,0.00396,4.750593824,
0.00398,-4.107063768,0.00398,4.750593824,
0.004,-3.741633473,0.004,5.116024118,
0.00402,-3.010772885,0.00402,5.116024118,
0.00404,-4.472494062,0.00404,4.750593824,
0.00406,-5.20335465,0.00406,4.750593824,
0.00408,-4.472494062,0.00408,5.116024118,
0.0041,-4.107063768,0.0041,4.750593824,
0.00412,-3.376203179,0.00412,5.116024118,
0.00414,-3.376203179,0.00414,4.750593824,
0.00416,-2.279912297,0.00416,4.38516353,
0.00418,-3.010772885,0.00418,4.38516353,
0.0042,-3.010772885,0.0042,4.750593824,
0.00422,-2.279912297,0.00422,4.750593824,
0.00424,-0.81819112,0.00424,4.750593824,
0.00426,0.2780997625,0.00426,4.38516353,
0.00428,-1.183621414,0.00428,4.750593824,
0.0043,1.374390645,0.0043,4.750593824,
0.00432,1.374390645,0.00432,4.750593824,
0.00434,1.374390645,0.00434,4.750593824,
0.00436,0.2780997625,0.00436,5.116024118,
0.00438,2.836111822,0.00438,4.750593824,
0.0044,3.201542116,0.0044,4.750593824,
0.00442,2.836111822,0.00442,4.750593824,
0.00444,3.932402704,0.00444,4.750593824,
0.00446,2.836111822,0.00446,5.481454413,
0.00448,4.297832998,0.00448,4.750593824,
0.0045,4.297832998,0.0045,4.750593824,
0.00452,3.932402704,0.00452,5.116024118,
0.00454,2.836111822,0.00454,4.38516353,
0.00456,4.663263293,0.00456,4.750593824,
0.00458,3.932402704,0.00458,4.750593824,
0.0046,3.932402704,0.0046,4.750593824,
0.00462,3.932402704,0.00462,5.116024118,
0.00464,2.105251233,0.00464,5.116024118,
0.00466,3.932402704,0.00466,5.116024118,
0.00468,3.932402704,0.00468,5.116024118,
0.0047,1.374390645,0.0047,4.38516353,
0.00472,2.105251233,0.00472,5.116024118,
0.00474,0.6435300566,0.00474,5.116024118,
0.00476,-0.0873305317,0.00476,5.481454413,
0.00478,0.6435300566,0.00478,4.750593824,
0.0048,-1.183621414,0.0048,5.116024118,
0.00482,-1.549051708,0.00482,4.750593824,
0.00484,-0.4527608259,0.00484,5.481454413,
0.00486,-2.279912297,0.00486,4.38516353,
0.00488,-3.010772885,0.00488,5.116024118,
0.0049,-3.376203179,0.0049,4.750593824,
0.00492,-3.010772885,0.00492,5.116024118,
0.00494,-2.645342591,0.00494,4.38516353,
0.00496,-4.472494062,0.00496,4.019733236,
0.00498,-5.20335465,0.00498,4.750593824,
0.005,-4.837924356,0.005,4.019733236,
0.00502,-6.665075827,0.00502,4.750593824,
0.00504,-3.010772885,0.00504,4.38516353,
0.00506,-4.107063768,0.00506,6.212315001,
0.00508,-3.376203179,0.00508,6.212315001,
0.0051,-2.645342591,0.0051,4.750593824,
0.00512,-3.010772885,0.00512,4.38516353,
0.00514,-2.279912297,0.00514,4.750593824,
0.00516,-1.549051708,0.00516,5.481454413,
0.00518,-1.183621414,0.00518,4.38516353,
0.0052,0.2780997625,0.0052,5.116024118,
0.00522,-0.0873305317,0.00522,4.38516353,
0.00524,-0.0873305317,0.00524,4.38516353,
0.00526,1.008960351,0.00526,2.923442353,
0.00528,1.008960351,0.00528,5.116024118,
0.0053,2.105251233,0.0053,4.38516353,
0.00532,2.470681527,0.00532,4.750593824,
0.00534,2.836111822,0.00534,4.750593824,
0.00536,3.201542116,0.00536,5.116024118,
0.00538,4.663263293,0.00538,5.116024118,
0.0054,4.663263293,0.0054,4.750593824,
0.00542,3.932402704,0.00542,4.019733236,
0.00544,4.297832998,0.00544,5.116024118,
0.00546,3.932402704,0.00546,5.116024118,
0.00548,3.201542116,0.00548,4.019733236,
0.0055,3.56697241,0.0055,5.116024118,
0.00552,4.297832998,0.00552,4.38516353,
0.00554,3.56697241,0.00554,3.654302942,
0.00556,4.297832998,0.00556,4.019733236,
0.00558,4.663263293,0.00558,4.38516353,
0.0056,1.739820939,0.0056,4.38516353,
0.00562,2.836111822,0.00562,5.116024118,
0.00564,2.105251233,0.00564,4.750593824,
0.00566,1.739820939,0.00566,5.846884707,
0.00568,0.6435300566,0.00568,5.116024118,
0.0057,-0.0873305317,0.0057,4.38516353,
0.00572,-0.0873305317,0.00572,4.750593824,
0.00574,-0.4527608259,0.00574,5.116024118,
0.00576,-2.279912297,0.00576,4.019733236,
0.00578,-2.645342591,0.00578,4.019733236,
0.0058,-1.183621414,0.0058,4.38516353,
0.00582,-3.010772885,0.00582,4.750593824,
0.00584,-4.107063768,0.00584,4.38516353,
0.00586,-3.376203179,0.00586,4.750593824,
0.00588,-3.010772885,0.00588,4.750593824,
0.0059,-3.741633473,0.0059,4.38516353,
0.00592,-3.010772885,0.00592,5.116024118,
0.00594,-2.645342591,0.00594,4.750593824,
0.00596,-4.472494062,0.00596,4.38516353,
0.00598,-4.837924356,0.00598,4.750593824,
0.006,-3.741633473,0.006,4.38516353,
0.00602,-3.741633473,0.00602,4.38516353,
0.00604,-3.741633473,0.00604,4.750593824,
0.00606,-2.645342591,0.00606,4.019733236,
0.00608,-1.914482003,0.00608,4.38516353,
0.0061,-1.914482003,0.0061,5.116024118,
0.00612,-0.81819112,0.00612,4.750593824,
0.00614,-0.4527608259,0.00614,4.38516353,
0.00616,0.2780997625,0.00616,4.750593824,
0.00618,2.105251233,0.00618,4.750593824,
0.0062,1.008960351,0.0062,4.38516353,
0.00622,1.374390645,0.00622,4.750593824,
0.00624,3.56697241,0.00624,4.750593824,
0.00626,2.470681527,0.00626,4.750593824,
0.00628,4.297832998,0.00628,5.116024118,
0.0063,4.297832998,0.0063,5.116024118,
0.00632,5.394123881,0.00632,4.750593824,
0.00634,3.932402704,0.00634,4.38516353,
0.00636,2.836111822,0.00636,4.750593824,
0.00638,3.201542116,0.00638,4.750593824,
0.0064,3.932402704,0.0064,5.116024118,
0.00642,5.394123881,0.00642,4.38516353,
0.00644,4.297832998,0.00644,4.38516353,
0.00646,3.932402704,0.00646,4.750593824,
0.00648,2.470681527,0.00648,5.116024118,
0.0065,3.56697241,0.0065,5.116024118,
0.00652,3.56697241,0.00652,4.750593824,
0.00654,1.739820939,0.00654,4.750593824,
0.00656,2.470681527,0.00656,4.38516353,
0.00658,2.105251233,0.00658,5.116024118,
0.0066,-0.0873305317,0.0066,5.116024118,
0.00662,0.6435300566,0.00662,4.38516353,
0.00664,0.2780997625,0.00664,5.116024118,
0.00666,-0.81819112,0.00666,5.116024118,
0.00668,-1.549051708,0.00668,4.38516353,
0.0067,-1.549051708,0.0067,4.750593824,
0.00672,-1.183621414,0.00672,4.750593824,
0.00674,-2.279912297,0.00674,4.38516353,
0.00676,-2.279912297,0.00676,4.750593824,
0.00678,-2.279912297,0.00678,4.38516353,
0.0068,-4.107063768,0.0068,4.38516353,
0.00682,-4.472494062,0.00682,4.750593824,
0.00684,-5.20335465,0.00684,4.750593824,
0.00686,-4.472494062,0.00686,4.750593824,
0.00688,-4.472494062,0.00688,5.481454413,
0.0069,-4.472494062,0.0069,4.38516353,
0.00692,-4.107063768,0.00692,4.38516353,
0.00694,-3.010772885,0.00694,5.481454413,
0.00696,-3.376203179,0.00696,5.116024118,
0.00698,-3.010772885,0.00698,4.750593824,
0.007,-1.914482003,0.007,5.481454413,
0.00702,-2.645342591,0.00702,4.750593824,
0.00704,-2.279912297,0.00704,4.750593824,
0.00706,-0.81819112,0.00706,5.116024118,
0.00708,-0.81819112,0.00708,4.750593824,
0.0071,-0.81819112,0.0071,4.750593824,
0.00712,-0.4527608259,0.00712,5.116024118,
0.00714,-0.4527608259,0.00714,4.38516353,
0.00716,1.374390645,0.00716,4.750593824,
0.00718,2.470681527,0.00718,5.481454413,
0.0072,1.739820939,0.0072,4.750593824,
0.00722,3.201542116,0.00722,4.750593824,
0.00724,2.836111822,0.00724,5.116024118,
0.00726,3.201542116,0.00726,4.750593824,
0.00728,2.836111822,0.00728,4.38516353,
0.0073,3.932402704,0.0073,5.116024118,
0.00732,3.201542116,0.00732,4.750593824,
0.00734,4.297832998,0.00734,4.019733236,
0.00736,4.297832998,0.00736,5.481454413,
0.00738,4.297832998,0.00738,4.38516353,
0.0074,3.56697241,0.0074,4.750593824,
0.00742,3.932402704,0.00742,5.116024118,
0.00744,2.105251233,0.00744,4.750593824,
0.00746,3.932402704,0.00746,4.750593824,
0.00748,2.470681527,0.00748,4.750593824,
0.0075,0.6435300566,0.0075,4.38516353,
0.00752,1.008960351,0.00752,4.38516353,
0.00754,1.008960351,0.00754,5.116024118,
0.00756,-0.0873305317,0.00756,4.38516353,
0.00758,-0.81819112,0.00758,4.750593824,
0.0076,-0.81819112,0.0076,5.116024118,
0.00762,-1.183621414,0.00762,4.750593824,
0.00764,-1.549051708,0.00764,4.38516353,
0.00766,-1.549051708,0.00766,5.116024118,
0.00768,-3.376203179,0.00768,4.750593824,
0.0077,-2.645342591,0.0077,4.38516353,
0.00772,-3.741633473,0.00772,4.750593824,
0.00774,-3.376203179,0.00774,4.750593824,
0.00776,-4.472494062,0.00776,4.750593824,
0.00778,-4.837924356,0.00778,5.481454413,
0.0078,-4.472494062,0.0078,4.750593824,
0.00782,-4.472494062,0.00782,4.019733236,
0.00784,-4.107063768,0.00784,5.116024118,
0.00786,-3.010772885,0.00786,4.750593824,
0.00788,-4.837924356,0.00788,5.116024118,
0.0079,-3.741633473,0.0079,5.116024118,
0.00792,-5.568784944,0.00792,4.750593824,
0.00794,-3.010772885,0.00794,4.750593824,
0.00796,-1.914482003,0.00796,5.481454413,
0.00798,-3.376203179,0.00798,4.019733236,
0.008,-1.183621414,0.008,4.38516353,
0.00802,-0.4527608259,0.00802,4.750593824,
0.00804,-0.81819112,0.00804,4.750593824,
0.00806,0.2780997625,0.00806,4.38516353,
0.00808,1.374390645,0.00808,5.481454413,
0.0081,1.739820939,0.0081,4.38516353,
0.00812,0.6435300566,0.00812,4.750593824,
0.00814,2.836111822,0.00814,5.116024118,
0.00816,2.105251233,0.00816,4.750593824,
0.00818,1.739820939,0.00818,5.116024118,
0.0082,3.56697241,0.0082,5.481454413,
0.00822,3.56697241,0.00822,4.750593824,
0.00824,5.028693587,0.00824,4.38516353,
0.00826,5.028693587,0.00826,5.116024118,
0.00828,2.836111822,0.00828,4.38516353,
0.0083,3.932402704,0.0083,4.019733236,
0.00832,6.124984469,0.00832,5.116024118,
0.00834,3.56697241,0.00834,4.750593824,
0.00836,2.105251233,0.00836,4.38516353,
0.00838,2.470681527,0.00838,4.750593824,
0.0084,1.374390645,0.0084,5.116024118,
0.00842,-0.0873305317,0.00842,4.38516353,
0.00844,1.374390645,0.00844,5.116024118,
0.00846,1.008960351,0.00846,5.116024118,
0.00848,-1.183621414,0.00848,5.481454413,
0.0085,1.008960351,0.0085,4.750593824,
0.00852,-1.914482003,0.00852,4.750593824,
0.00854,-1.183621414,0.00854,4.750593824,
0.00856,-2.279912297,0.00856,5.116024118,
0.00858,-3.376203179,0.00858,5.116024118,
0.0086,-3.376203179,0.0086,4.750593824,
0.00862,-3.741633473,0.00862,4.750593824,
0.00864,-4.107063768,0.00864,4.750593824,
0.00866,-3.741633473,0.00866,4.750593824,
0.00868,-4.472494062,0.00868,4.38516353,
0.0087,-5.20335465,0.0087,5.116024118,
0.00872,-4.472494062,0.00872,5.116024118,
0.00874,-5.20335465,0.00874,4.38516353,
0.00876,-2.645342591,0.00876,4.750593824,
0.00878,-3.376203179,0.00878,4.750593824,
0.0088,-3.741633473,0.0088,4.750593824,
0.00882,-3.376203179,0.00882,4.38516353,
0.00884,-3.376203179,0.00884,4.750593824,
0.00886,-3.376203179,0.00886,4.750593824,
0.00888,-2.645342591,0.00888,5.846884707,
0.0089,-1.183621414,0.0089,4.019733236,
0.00892,-3.010772885,0.00892,5.481454413,
0.00894,-0.0873305317,0.00894,5.116024118,
0.00896,0.2780997625,0.00896,5.481454413,
0.00898,-1.183621414,0.00898,4.38516353,
0.009,-1.549051708,0.009,4.38516353,
0.00902,1.739820939,0.00902,5.116024118,
0.00904,2.105251233,0.00904,5.116024118,
0.00906,3.201542116,0.00906,4.750593824,
0.00908,2.105251233,0.00908,4.38516353,
0.0091,1.739820939,0.0091,5.116024118,
0.00912,4.663263293,0.00912,5.116024118,
0.00914,3.932402704,0.00914,5.116024118,
0.00916,4.297832998,0.00916,4.750593824,
0.00918,4.663263293,0.00918,3.654302942,
0.0092,2.836111822,0.0092,5.116024118,
0.00922,3.932402704,0.00922,5.116024118,
0.00924,3.932402704,0.00924,4.750593824,
0.00926,4.663263293,0.00926,5.116024118,
0.00928,3.56697241,0.00928,5.116024118,
0.0093,1.739820939,0.0093,5.481454413,
0.00932,2.470681527,0.00932,5.116024118,
0.00934,1.739820939,0.00934,5.116024118,
0.00936,2.836111822,0.00936,5.116024118,
0.00938,2.105251233,0.00938,5.481454413,
0.0094,2.105251233,0.0094,4.750593824,
0.00942,1.008960351,0.00942,5.116024118,
0.00944,1.739820939,0.00944,5.116024118,
0.00946,-0.0873305317,0.00946,5.116024118,
0.00948,-1.549051708,0.00948,4.750593824,
0.0095,-1.183621414,0.0095,5.116024118,
0.00952,-1.183621414,0.00952,5.481454413,
0.00954,-2.279912297,0.00954,4.38516353,
0.00956,-3.010772885,0.00956,4.750593824,
0.00958,-5.568784944,0.00958,4.38516353,
0.0096,-6.299645533,0.0096,4.750593824,
0.00962,-4.837924356,0.00962,4.750593824,
0.00964,-5.20335465,0.00964,4.750593824,
0.00966,-4.107063768,0.00966,4.38516353,
0.00968,-5.20335465,0.00968,5.481454413,
0.0097,-5.934215238,0.0097,5.116024118,
0.00972,-3.376203179,0.00972,4.019733236,
0.00974,-3.741633473,0.00974,4.750593824,
0.00976,-3.010772885,0.00976,5.116024118,
0.00978,-3.376203179,0.00978,5.116024118,
0.0098,-2.279912297,0.0098,4.750593824,
0.00982,-2.645342591,0.00982,5.846884707,
0.00984,-3.010772885,0.00984,4.38516353,
0.00986,-1.183621414,0.00986,4.750593824,
0.00988,-0.4527608259,0.00988,5.481454413,
0.0099,-1.183621414,0.0099,4.38516353,
0.00992,0.2780997625,0.00992,4.38516353,
0.00994,2.470681527,0.00994,5.116024118,
0.00996,0.2780997625,0.00996,5.116024118,
0.00998,1.739820939,0.00998,4.750593824,
0.01,1.374390645,0.01,5.116024118,
0.01002,2.836111822,0.01002,4.750593824,
0.01004,3.56697241,0.01004,4.38516353,
0.01006,4.297832998,0.01006,5.116024118,
0.01008,2.836111822,0.01008,4.38516353,
0.0101,2.836111822,0.0101,4.38516353,
0.01012,2.105251233,0.01012,5.116024118,
0.01014,3.932402704,0.01014,4.750593824,
0.01016,3.932402704,0.01016,4.750593824,
0.01018,4.297832998,0.01018,5.481454413,
0.0102,5.759554175,0.0102,4.750593824,
0.01022,2.836111822,0.01022,4.38516353,
0.01024,2.105251233,0.01024,4.38516353,
0.01026,2.836111822,0.01026,4.750593824,
0.01028,2.105251233,0.01028,4.38516353,
0.0103,3.932402704,0.0103,5.116024118,
0.01032,1.008960351,0.01032,5.116024118,
0.01034,-0.81819112,0.01034,4.38516353,
0.01036,-0.0873305317,0.01036,5.116024118,
0.01038,-0.4527608259,0.01038,4.750593824,
0.0104,-2.279912297,0.0104,4.38516353,
0.01042,-1.183621414,0.01042,5.116024118,
0.01044,-2.279912297,0.01044,4.750593824,
0.01046,-3.010772885,0.01046,4.38516353,
0.01048,-2.279912297,0.01048,5.116024118,
0.0105,-4.837924356,0.0105,4.38516353,
0.01052,-3.741633473,0.01052,4.38516353,
0.01054,-1.183621414,0.01054,5.116024118,
0.01056,-4.837924356,0.01056,4.38516353,
0.01058,-5.568784944,0.01058,4.750593824,
0.0106,-4.472494062,0.0106,5.116024118,
0.01062,-4.472494062,0.01062,4.750593824,
0.01064,-4.107063768,0.01064,4.750593824,
0.01066,-4.472494062,0.01066,5.116024118,
0.01068,-3.741633473,0.01068,4.750593824,
0.0107,-4.472494062,0.0107,4.750593824,
0.01072,-3.376203179,0.01072,5.116024118,
0.01074,-3.010772885,0.01074,4.750593824,
0.01076,-1.914482003,0.01076,4.019733236,
0.01078,-2.279912297,0.01078,5.116024118,
0.0108,-0.81819112,0.0108,4.750593824,
0.01082,-1.549051708,0.01082,4.38516353,
0.01084,-0.4527608259,0.01084,5.116024118,
0.01086,1.374390645,0.01086,4.750593824,
0.01088,1.374390645,0.01088,4.750593824,
0.0109,3.201542116,0.0109,5.481454413,
0.01092,1.374390645,0.01092,4.38516353,
0.01094,2.836111822,0.01094,4.750593824,
0.01096,2.470681527,0.01096,5.116024118,
0.01098,3.56697241,0.01098,4.750593824,
0.011,5.028693587,0.011,4.750593824,
0.01102,6.124984469,0.01102,5.116024118,
0.01104,3.932402704,0.01104,4.750593824,
0.01106,2.836111822,0.01106,4.38516353,
0.01108,6.855845058,0.01108,5.481454413,
0.0111,3.201542116,0.0111,4.750593824,
0.01112,2.836111822,0.01112,4.750593824,
0.01114,3.932402704,0.01114,5.481454413,
0.01116,3.932402704,0.01116,4.750593824,
0.01118,3.201542116,0.01118,4.750593824,
0.0112,1.739820939,0.0112,5.116024118,
0.01122,1.374390645,0.01122,4.38516353,
0.01124,1.374390645,0.01124,4.38516353,
0.01126,1.374390645,0.01126,5.116024118,
0.01128,0.6435300566,0.01128,4.750593824,
0.0113,-0.81819112,0.0113,4.38516353,
0.01132,-0.81819112,0.01132,5.116024118,
0.01134,-1.914482003,0.01134,4.750593824,
0.01136,-4.107063768,0.01136,4.750593824,
0.01138,-2.279912297,0.01138,5.481454413,
0.0114,-2.279912297,0.0114,4.019733236,
0.01142,-5.20335465,0.01142,4.38516353,
0.01144,-2.645342591,0.01144,5.116024118,
0.01146,-4.107063768,0.01146,4.38516353,
0.01148,-3.376203179,0.01148,4.019733236,
0.0115,-3.376203179,0.0115,6.212315001,
0.01152,-4.472494062,0.01152,4.38516353,
0.01154,-4.837924356,0.01154,5.116024118,
0.01156,-3.376203179,0.01156,5.116024118,
0.01158,-6.665075827,0.01158,4.750593824,
0.0116,-4.107063768,0.0116,4.750593824,
0.01162,-3.376203179,0.01162,4.750593824,
0.01164,-3.741633473,0.01164,4.750593824,
0.01166,-1.549051708,0.01166,5.116024118,
0.01168,-4.107063768,0.01168,5.116024118,
0.0117,-3.376203179,0.0117,5.116024118,
0.01172,-1.183621414,0.01172,4.750593824,
0.01174,3.201542116,0.01174,5.116024118,
0.01176,-3.010772885,0.01176,4.38516353,
0.01178,-0.0873305317,0.01178,4.38516353,
0.0118,-0.4527608259,0.0118,5.116024118,
0.01182,-0.0873305317,0.01182,5.116024118,
0.01184,2.836111822,0.01184,4.750593824,
0.01186,2.836111822,0.01186,5.116024118,
0.01188,2.836111822,0.01188,5.116024118,
0.0119,2.105251233,0.0119,4.38516353,
0.01192,3.932402704,0.01192,5.116024118,
0.01194,4.663263293,0.01194,4.750593824,
0.01196,4.297832998,0.01196,4.019733236,
0.01198,4.297832998,0.01198,4.750593824,
0.012,3.932402704,0.012,4.38516353,
0.01202,3.932402704,0.01202,4.750593824,
0.01204,4.663263293,0.01204,5.116024118,
0.01206,3.56697241,0.01206,5.116024118,
0.01208,1.739820939,0.01208,4.750593824,
0.0121,3.932402704,0.0121,4.750593824,
0.01212,2.470681527,0.01212,5.116024118,
0.01214,1.739820939,0.01214,4.750593824,
0.01216,2.470681527,0.01216,5.116024118,
0.01218,0.2780997625,0.01218,5.116024118,
0.0122,0.6435300566,0.0122,4.750593824,
0.01222,-0.4527608259,0.01222,4.38516353,
0.01224,-0.4527608259,0.01224,5.116024118,
0.01226,-1.549051708,0.01226,4.750593824,
0.01228,-0.81819112,0.01228,4.750593824,
0.0123,-2.279912297,0.0123,5.116024118,
0.01232,-2.279912297,0.01232,4.750593824,
0.01234,-1.914482003,0.01234,5.116024118,
0.01236,-3.741633473,0.01236,4.750593824,
0.01238,-3.010772885,0.01238,4.750593824,
0.0124,-3.376203179,0.0124,4.38516353,
0.01242,-4.107063768,0.01242,5.116024118,
0.01244,-3.376203179,0.01244,4.750593824,
0.01246,-3.010772885,0.01246,5.481454413,
0.01248,-3.741633473,0.01248,5.481454413,
0.0125,-3.010772885,0.0125,5.116024118,
0.01252,-3.741633473,0.01252,4.750593824,
0.01254,-3.376203179,0.01254,5.116024118,
0.01256,-3.376203179,0.01256,4.38516353,
0.01258,-0.81819112,0.01258,5.116024118,
0.0126,-3.010772885,0.0126,5.846884707,
0.01262,-1.914482003,0.01262,4.750593824,
0.01264,-2.645342591,0.01264,5.116024118,
0.01266,-1.914482003,0.01266,4.750593824,
0.01268,-0.4527608259,0.01268,4.38516353,
0.0127,1.739820939,0.0127,4.019733236,
0.01272,-0.0873305317,0.01272,4.750593824,
0.01274,0.6435300566,0.01274,4.750593824,
0.01276,2.836111822,0.01276,5.116024118,
0.01278,2.105251233,0.01278,4.38516353,
0.0128,2.105251233,0.0128,4.38516353,
0.01282,2.470681527,0.01282,4.750593824,
0.01284,3.201542116,0.01284,4.750593824,
0.01286,3.932402704,0.01286,4.38516353,
0.01288,3.932402704,0.01288,4.750593824,
0.0129,4.297832998,0.0129,6.943175589,
0.01292,4.663263293,0.01292,4.38516353,
0.01294,6.490414763,0.01294,5.481454413,
0.01296,3.56697241,0.01296,5.116024118,
0.01298,3.201542116,0.01298,5.116024118,
0.013,5.028693587,0.013,3.654302942,
0.01302,3.201542116,0.01302,5.116024118,
0.01304,3.56697241,0.01304,4.750593824,
0.01306,5.394123881,0.01306,5.116024118,
0.01308,1.374390645,0.01308,4.750593824,
0.0131,2.470681527,0.0131,4.019733236,
0.01312,3.201542116,0.01312,4.750593824,
0.01314,1.008960351,0.01314,5.116024118,
0.01316,0.2780997625,0.01316,4.750593824,
0.01318,-0.0873305317,0.01318,4.750593824,
0.0132,-1.549051708,0.0132,5.846884707,
0.01322,-2.645342591,0.01322,4.750593824,
0.01324,-1.914482003,0.01324,5.116024118,
0.01326,-2.279912297,0.01326,5.116024118,
0.01328,-2.645342591,0.01328,5.116024118,
0.0133,-2.645342591,0.0133,5.116024118,
0.01332,-2.645342591,0.01332,5.116024118,
0.01334,-4.837924356,0.01334,4.750593824,
0.01336,-2.279912297,0.01336,5.116024118,
0.01338,-4.837924356,0.01338,5.116024118,
0.0134,-3.376203179,0.0134,4.38516353,
0.01342,-4.472494062,0.01342,5.116024118,
0.01344,-4.472494062,0.01344,4.750593824,
0.01346,-4.107063768,0.01346,4.750593824,
0.01348,-5.568784944,0.01348,4.750593824,
0.0135,-3.376203179,0.0135,4.750593824,
0.01352,-1.183621414,0.01352,4.750593824,
0.01354,-1.914482003,0.01354,4.38516353,
0.01356,-3.741633473,0.01356,4.38516353,
0.01358,-0.81819112,0.01358,4.750593824,
0.0136,-0.81819112,0.0136,4.38516353,
0.01362,-2.279912297,0.01362,5.116024118,
0.01364,-0.0873305317,0.01364,4.38516353,
0.01366,1.374390645,0.01366,4.38516353,
0.01368,0.6435300566,0.01368,5.116024118,
0.0137,2.836111822,0.0137,4.38516353,
0.01372,3.201542116,0.01372,4.019733236,
0.01374,2.836111822,0.01374,5.116024118,
0.01376,3.201542116,0.01376,4.750593824,
0.01378,3.56697241,0.01378,4.019733236,
0.0138,3.932402704,0.0138,4.750593824,
0.01382,3.201542116,0.01382,4.750593824,
0.01384,2.836111822,0.01384,4.38516353,
0.01386,4.663263293,0.01386,4.750593824,
0.01388,5.394123881,0.01388,4.38516353,
0.0139,3.56697241,0.0139,4.019733236,
0.01392,3.932402704,0.01392,4.750593824,
0.01394,4.297832998,0.01394,5.116024118,
0.01396,3.932402704,0.01396,4.38516353,
0.01398,4.663263293,0.01398,4.750593824,
0.014,2.836111822,0.014,5.116024118,
0.01402,0.6435300566,0.01402,4.38516353,
0.01404,2.470681527,0.01404,4.750593824,
0.01406,2.105251233,0.01406,4.019733236,
0.01408,0.2780997625,0.01408,4.019733236,
0.0141,0.6435300566,0.0141,4.750593824,
0.01412,0.2780997625,0.01412,5.116024118,
0.01414,-0.4527608259,0.01414,4.750593824,
0.01416,-1.183621414,0.01416,4.750593824,
0.01418,-1.914482003,0.01418,5.116024118,
0.0142,-1.914482003,0.0142,4.38516353,
0.01422,-3.376203179,0.01422,4.750593824,
0.01424,-3.010772885,0.01424,5.116024118,
0.01426,-4.472494062,0.01426,4.38516353,
0.01428,-3.376203179,0.01428,4.750593824,
0.0143,-3.741633473,0.0143,5.116024118,
0.01432,-4.107063768,0.01432,3.654302942,
0.01434,-4.472494062,0.01434,4.750593824,
0.01436,-4.107063768,0.01436,4.750593824,
0.01438,-4.472494062,0.01438,4.38516353,
0.0144,-3.741633473,0.0144,5.481454413,
0.01442,-3.741633473,0.01442,4.750593824,
0.01444,-3.376203179,0.01444,5.481454413,
0.01446,-1.183621414,0.01446,4.750593824,
0.01448,-1.549051708,0.01448,5.116024118,
0.0145,-1.914482003,0.0145,5.116024118,
0.01452,-1.183621414,0.01452,4.750593824,
0.01454,-0.4527608259,0.01454,5.481454413,
0.01456,-0.4527608259,0.01456,4.38516353,
0.01458,0.2780997625,0.01458,4.750593824,
0.0146,-0.0873305317,0.0146,4.750593824,
0.01462,2.105251233,0.01462,5.116024118,
0.01464,2.470681527,0.01464,4.750593824,
0.01466,3.201542116,0.01466,4.750593824,
0.01468,3.56697241,0.01468,4.750593824,
0.0147,4.297832998,0.0147,4.750593824,
0.01472,3.201542116,0.01472,4.38516353,
0.01474,3.932402704,0.01474,5.116024118,
0.01476,4.297832998,0.01476,4.750593824,
0.01478,6.490414763,0.01478,4.750593824,
0.0148,3.932402704,0.0148,4.750593824,
0.01482,3.932402704,0.01482,4.750593824,
0.01484,4.297832998,0.01484,4.750593824,
0.01486,3.932402704,0.01486,5.116024118,
0.01488,3.201542116,0.01488,4.750593824,
0.0149,3.201542116,0.0149,5.116024118,
0.01492,3.201542116,0.01492,5.116024118,
0.01494,2.470681527,0.01494,5.846884707,
0.01496,3.201542116,0.01496,5.116024118,
0.01498,1.739820939,0.01498,4.750593824,
0.015,0.6435300566,0.015,4.750593824,
0.01502,0.2780997625,0.01502,4.38516353,
0.01504,0.2780997625,0.01504,4.750593824,
0.01506,-1.183621414,0.01506,4.750593824,
0.01508,-1.549051708,0.01508,4.38516353,
0.0151,-0.4527608259,0.0151,5.116024118,
0.01512,-2.645342591,0.01512,4.750593824,
0.01514,-2.279912297,0.01514,4.750593824,
0.01516,-3.376203179,0.01516,5.116024118,
0.01518,-4.837924356,0.01518,5.116024118,
0.0152,-3.010772885,0.0152,5.116024118,
0.01522,-1.183621414,0.01522,5.116024118,
0.01524,-4.472494062,0.01524,5.116024118,
0.01526,-3.741633473,0.01526,4.38516353,
0.01528,-3.010772885,0.01528,5.116024118,
0.0153,-3.376203179,0.0153,5.116024118,
0.01532,-3.741633473,0.01532,4.38516353,
0.01534,-2.645342591,0.01534,5.116024118,
0.01536,-4.472494062,0.01536,4.750593824,
0.01538,-2.279912297,0.01538,4.38516353,
0.0154,-3.376203179,0.0154,5.116024118,
0.01542,-2.279912297,0.01542,4.750593824,
0.01544,-1.183621414,0.01544,4.38516353,
0.01546,0.6435300566,0.01546,5.116024118,
0.01548,-2.645342591,0.01548,5.116024118,
0.0155,-0.4527608259,0.0155,4.750593824,
0.01552,0.6435300566,0.01552,5.846884707,
0.01554,1.374390645,0.01554,5.481454413,
0.01556,1.739820939,0.01556,4.750593824,
0.01558,2.470681527,0.01558,5.116024118,
0.0156,0.6435300566,0.0156,4.750593824,
0.01562,3.201542116,0.01562,3.654302942,
0.01564,4.663263293,0.01564,5.116024118,
0.01566,2.836111822,0.01566,4.750593824,
0.01568,3.56697241,0.01568,4.750593824,
0.0157,3.932402704,0.0157,4.750593824,
0.01572,3.56697241,0.01572,4.019733236,
0.01574,6.124984469,0.01574,5.116024118,
0.01576,4.663263293,0.01576,5.116024118,
0.01578,3.932402704,0.01578,5.116024118,
0.0158,3.56697241,0.0158,4.750593824,
0.01582,1.374390645,0.01582,5.846884707,
0.01584,3.56697241,0.01584,4.750593824,
0.01586,3.56697241,0.01586,4.750593824,
0.01588,2.470681527,0.01588,4.38516353,
0.0159,3.201542116,0.0159,5.116024118,
0.01592,0.2780997625,0.01592,5.481454413,
0.01594,1.008960351,0.01594,5.116024118,
0.01596,0.2780997625,0.01596,5.116024118,
0.01598,-1.914482003,0.01598,4.38516353,
0.016,-1.183621414,0.016,4.750593824,
0.01602,-4.107063768,0.01602,4.019733236,
0.01604,-0.81819112,0.01604,5.116024118,
0.01606,-2.279912297,0.01606,4.750593824,
0.01608,-2.279912297,0.01608,4.750593824,
0.0161,-3.010772885,0.0161,4.750593824,
0.01612,-2.279912297,0.01612,5.116024118,
0.01614,-4.472494062,0.01614,4.750593824,
0.01616,-3.741633473,0.01616,4.750593824,
0.01618,-6.665075827,0.01618,5.116024118,
0.0162,-5.20335465,0.0162,4.750593824,
0.01622,-3.741633473,0.01622,5.481454413,
0.01624,-3.741633473,0.01624,4.750593824,
0.01626,-1.914482003,0.01626,4.750593824,
0.01628,-1.914482003,0.01628,4.38516353,
0.0163,-3.376203179,0.0163,5.116024118,
0.01632,-4.107063768,0.01632,4.750593824,
0.01634,-1.549051708,0.01634,4.38516353,
0.01636,-0.4527608259,0.01636,4.750593824,
0.01638,-1.914482003,0.01638,4.38516353,
0.0164,0.6435300566,0.0164,4.750593824,
0.01642,-1.183621414,0.01642,4.019733236,
0.01644,-0.4527608259,0.01644,4.38516353,
0.01646,0.6435300566,0.01646,4.750593824,
0.01648,1.374390645,0.01648,4.750593824,
0.0165,3.201542116,0.0165,4.750593824,
0.01652,1.739820939,0.01652,3.654302942,
0.01654,1.739820939,0.01654,4.750593824,
0.01656,3.201542116,0.01656,4.38516353,
0.01658,4.297832998,0.01658,4.750593824,
0.0166,4.297832998,0.0166,5.116024118,
0.01662,2.836111822,0.01662,4.019733236,
0.01664,4.297832998,0.01664,4.38516353,
0.01666,4.663263293,0.01666,4.38516353,
0.01668,3.201542116,0.01668,4.750593824,
0.0167,4.297832998,0.0167,4.750593824,
0.01672,3.201542116,0.01672,4.750593824,
0.01674,6.124984469,0.01674,4.750593824,
0.01676,3.56697241,0.01676,4.750593824,
0.01678,2.836111822,0.01678,4.750593824,
0.0168,2.836111822,0.0168,4.38516353,
0.01682,3.201542116,0.01682,4.019733236,
0.01684,2.470681527,0.01684,4.750593824,
0.01686,1.008960351,0.01686,4.019733236,
0.01688,1.374390645,0.01688,4.750593824,
0.0169,0.2780997625,0.0169,4.750593824,
0.01692,-0.0873305317,0.01692,4.019733236,
0.01694,-5.568784944,0.01694,4.750593824,
0.01696,-2.279912297,0.01696,5.116024118,
0.01698,-2.279912297,0.01698,4.38516353,
0.017,-3.741633473,0.017,4.750593824,
0.01702,-2.645342591,0.01702,5.481454413,
0.01704,-5.934215238,0.01704,4.019733236,
0.01706,-4.472494062,0.01706,4.750593824,
0.01708,-1.183621414,0.01708,4.38516353,
0.0171,-4.472494062,0.0171,4.38516353,
0.01712,-4.472494062,0.01712,4.019733236,
0.01714,-4.472494062,0.01714,4.38516353,
0.01716,-4.472494062,0.01716,4.38516353,
0.01718,-3.010772885,0.01718,4.750593824,
0.0172,-4.107063768,0.0172,5.116024118,
0.01722,-4.107063768,0.01722,4.38516353,
0.01724,-1.183621414,0.01724,4.750593824,
0.01726,-1.914482003,0.01726,4.38516353,
0.01728,-2.645342591,0.01728,4.38516353,
0.0173,-1.914482003,0.0173,4.750593824,
0.01732,-0.4527608259,0.01732,4.750593824,
0.01734,0.2780997625,0.01734,4.38516353,
0.01736,1.008960351,0.01736,4.019733236,
0.01738,0.2780997625,0.01738,4.750593824,
0.0174,2.836111822,0.0174,4.750593824,
0.01742,1.739820939,0.01742,4.750593824,
0.01744,1.739820939,0.01744,4.38516353,
0.01746,2.836111822,0.01746,5.116024118,
0.01748,3.56697241,0.01748,4.750593824,
0.0175,2.470681527,0.0175,4.750593824,
0.01752,3.932402704,0.01752,4.750593824,
0.01754,3.932402704,0.01754,4.750593824,
0.01756,3.201542116,0.01756,4.750593824,
0.01758,6.490414763,0.01758,4.38516353,
0.0176,4.663263293,0.0176,4.750593824,
0.01762,3.932402704,0.01762,4.38516353,
0.01764,5.028693587,0.01764,4.38516353,
0.01766,2.470681527,0.01766,4.750593824,
0.01768,3.56697241,0.01768,4.750593824,
0.0177,3.932402704,0.0177,4.019733236,
0.01772,2.105251233,0.01772,4.750593824,
0.01774,3.201542116,0.01774,4.38516353,
0.01776,2.105251233,0.01776,4.38516353,
0.01778,1.739820939,0.01778,5.116024118,
0.0178,1.374390645,0.0178,4.38516353,
0.01782,-1.183621414,0.01782,4.38516353,
0.01784,-0.81819112,0.01784,4.38516353,
0.01786,-0.81819112,0.01786,4.750593824,
0.01788,-1.914482003,0.01788,4.38516353,
0.0179,-2.279912297,0.0179,5.116024118,
0.01792,-3.376203179,0.01792,4.019733236,
0.01794,-5.20335465,0.01794,4.38516353,
0.01796,-3.741633473,0.01796,4.750593824,
0.01798,-4.107063768,0.01798,5.116024118,
0.018,-3.376203179,0.018,4.38516353,
0.01802,-3.376203179,0.01802,4.750593824,
0.01804,-5.568784944,0.01804,4.38516353,
0.01806,-4.107063768,0.01806,4.750593824,
0.01808,-3.376203179,0.01808,4.750593824,
0.0181,-4.472494062,0.0181,4.38516353,
0.01812,-4.107063768,0.01812,4.019733236,
0.01814,-4.107063768,0.01814,5.116024118,
0.01816,-3.741633473,0.01816,4.750593824,
0.01818,-2.645342591,0.01818,4.38516353,
0.0182,-4.107063768,0.0182,4.750593824,
0.01822,-2.645342591,0.01822,4.750593824,
0.01824,-1.549051708,0.01824,4.750593824,
0.01826,-1.914482003,0.01826,4.750593824,
0.01828,-0.81819112,0.01828,5.116024118,
0.0183,0.2780997625,0.0183,5.116024118,
0.01832,-0.0873305317,0.01832,4.38516353,
0.01834,1.739820939,0.01834,4.38516353,
0.01836,2.105251233,0.01836,4.750593824,
0.01838,1.008960351,0.01838,4.750593824,
0.0184,2.105251233,0.0184,4.750593824,
0.01842,3.201542116,0.01842,5.116024118,
0.01844,3.201542116,0.01844,4.750593824,
0.01846,2.470681527,0.01846,4.38516353,
0.01848,5.028693587,0.01848,5.116024118,
0.0185,3.201542116,0.0185,4.38516353,
0.01852,3.201542116,0.01852,4.38516353,
0.01854,3.932402704,0.01854,5.116024118,
0.01856,3.932402704,0.01856,4.750593824,
0.01858,3.56697241,0.01858,4.38516353,
0.0186,4.297832998,0.0186,4.750593824,
0.01862,3.56697241,0.01862,4.38516353,
0.01864,5.028693587,0.01864,4.38516353,
0.01866,3.201542116,0.01866,4.750593824,
0.01868,-3.010772885,0.01868,4.750593824,
0.0187,1.374390645,0.0187,4.38516353,
0.01872,1.374390645,0.01872,5.481454413,
0.01874,0.6435300566,0.01874,4.750593824,
0.01876,-2.645342591,0.01876,5.116024118,
0.01878,-0.81819112,0.01878,5.116024118,
0.0188,-0.81819112,0.0188,4.750593824,
0.01882,-1.549051708,0.01882,4.750593824,
0.01884,-1.549051708,0.01884,4.38516353,
0.01886,-1.914482003,0.01886,4.750593824,
0.01888,-3.376203179,0.01888,4.38516353,
0.0189,-2.645342591,0.0189,5.116024118,
0.01892,-4.107063768,0.01892,5.116024118,
0.01894,-4.472494062,0.01894,4.750593824,
0.01896,-3.741633473,0.01896,5.481454413,
0.01898,-4.472494062,0.01898,4.750593824,
0.019,-4.107063768,0.019,4.38516353,
0.01902,-4.107063768,0.01902,5.116024118,
0.01904,-6.665075827,0.01904,4.750593824,
0.01906,-3.376203179,0.01906,4.750593824,
0.01908,-3.010772885,0.01908,5.481454413,
0.0191,-3.741633473,0.0191,4.38516353,
0.01912,-3.010772885,0.01912,4.750593824,
0.01914,-0.4527608259,0.01914,4.38516353,
0.01916,-4.107063768,0.01916,4.750593824,
0.01918,-0.4527608259,0.01918,4.750593824,
0.0192,-0.0873305317,0.0192,5.481454413,
0.01922,-0.81819112,0.01922,4.38516353,
0.01924,0.6435300566,0.01924,5.481454413,
0.01926,0.6435300566,0.01926,5.116024118,
0.01928,1.008960351,0.01928,4.750593824,
0.0193,1.739820939,0.0193,4.019733236,
0.01932,1.374390645,0.01932,5.116024118,
0.01934,3.56697241,0.01934,6.212315001,
0.01936,4.297832998,0.01936,3.654302942,
0.01938,3.201542116,0.01938,5.116024118,
0.0194,2.470681527,0.0194,4.750593824,
0.01942,3.932402704,0.01942,4.750593824,
0.01944,2.836111822,0.01944,5.116024118,
0.01946,3.932402704,0.01946,4.750593824,
0.01948,3.56697241,0.01948,4.38516353,
0.0195,1.739820939,0.0195,5.116024118,
0.01952,4.297832998,0.01952,4.750593824,
0.01954,3.932402704,0.01954,4.750593824,
0.01956,3.932402704,0.01956,4.38516353,
0.01958,1.739820939,0.01958,4.750593824,
0.0196,3.201542116,0.0196,4.750593824,
0.01962,2.836111822,0.01962,4.38516353,
0.01964,2.470681527,0.01964,4.750593824,
0.01966,0.6435300566,0.01966,5.116024118,
0.01968,0.2780997625,0.01968,4.38516353,
0.0197,0.2780997625,0.0197,5.116024118,
0.01972,0.2780997625,0.01972,4.750593824,
0.01974,-0.4527608259,0.01974,4.38516353,
0.01976,0.2780997625,0.01976,4.750593824,
0.01978,-3.376203179,0.01978,5.116024118,
0.0198,-3.741633473,0.0198,4.38516353,
0.01982,-3.010772885,0.01982,4.38516353,
0.01984,-4.472494062,0.01984,5.481454413,
0.01986,-4.472494062,0.01986,4.38516353,
0.01988,-3.376203179,0.01988,5.116024118,
0.0199,-3.741633473,0.0199,4.750593824,
0.01992,-3.376203179,0.01992,5.116024118,
0.01994,-4.472494062,0.01994,3.288872648,
0.01996,-7.395936415,0.01996,5.116024118,
0.01998,-3.010772885,0.01998,5.116024118,
0.02,-6.299645533,0.02,5.116024118,
0.02002,-2.645342591,0.02002,4.38516353,
0.02004,-2.645342591,0.02004,4.750593824,
0.02006,-2.279912297,0.02006,5.116024118,
0.02008,-3.376203179,0.02008,4.750593824,
0.0201,-1.183621414,0.0201,5.116024118,
0.02012,-1.549051708,0.02012,4.750593824,
0.02014,-0.0873305317,0.02014,5.481454413,
0.02016,-1.549051708,0.02016,4.750593824,
0.02018,1.008960351,0.02018,4.38516353,
0.0202,3.201542116,0.0202,5.116024118,
0.02022,2.470681527,0.02022,4.750593824,
0.02024,2.836111822,0.02024,5.846884707,
0.02026,1.374390645,0.02026,4.750593824,
0.02028,2.836111822,0.02028,4.750593824,
0.0203,5.759554175,0.0203,4.750593824,
0.02032,4.297832998,0.02032,4.750593824,
0.02034,5.028693587,0.02034,4.750593824,
0.02036,3.932402704,0.02036,5.116024118,
0.02038,4.297832998,0.02038,4.750593824,
0.0204,4.663263293,0.0204,4.750593824,
0.02042,4.663263293,0.02042,5.116024118,
0.02044,3.932402704,0.02044,4.019733236,
0.02046,3.56697241,0.02046,4.750593824,
0.02048,4.297832998,0.02048,5.116024118,
0.0205,4.297832998,0.0205,5.116024118,
0.02052,4.663263293,0.02052,5.116024118,
0.02054,2.105251233,0.02054,4.019733236,
0.02056,2.470681527,0.02056,5.116024118,
0.02058,1.008960351,0.02058,4.38516353,
0.0206,0.2780997625,0.0206,4.750593824,
0.02062,-0.81819112,0.02062,4.750593824,
0.02064,-0.0873305317,0.02064,6.212315001,
0.02066,-0.4527608259,0.02066,5.116024118,
0.02068,-2.279912297,0.02068,5.116024118,
0.0207,-1.914482003,0.0207,4.750593824,
0.02072,-3.741633473,0.02072,5.116024118,
0.02074,-3.010772885,0.02074,5.481454413,
0.02076,-0.4527608259,0.02076,4.750593824,
0.02078,-3.741633473,0.02078,5.116024118,
0.0208,-3.741633473,0.0208,4.750593824,
0.02082,-3.376203179,0.02082,4.750593824,
0.02084,-4.107063768,0.02084,4.019733236,
0.02086,-3.376203179,0.02086,4.750593824,
0.02088,-4.472494062,0.02088,5.116024118,
0.0209,-5.20335465,0.0209,5.116024118,
0.02092,-3.376203179,0.02092,5.116024118,
0.02094,-3.376203179,0.02094,4.750593824,
0.02096,-2.279912297,0.02096,5.116024118,
0.02098,-2.645342591,0.02098,5.116024118,
0.021,-2.645342591,0.021,5.481454413,
0.02102,-2.279912297,0.02102,5.116024118,
0.02104,-1.914482003,0.02104,5.481454413,
0.02106,-1.549051708,0.02106,5.116024118,
0.02108,1.739820939,0.02108,5.481454413,
0.0211,-0.0873305317,0.0211,4.750593824,
0.02112,1.008960351,0.02112,5.116024118,
0.02114,0.6435300566,0.02114,4.750593824,
0.02116,0.2780997625,0.02116,4.38516353,
0.02118,2.105251233,0.02118,5.116024118,
0.0212,2.470681527,0.0212,4.750593824,
0.02122,2.836111822,0.02122,4.750593824,
0.02124,3.56697241,0.02124,5.481454413,
0.02126,2.470681527,0.02126,4.750593824,
0.02128,3.932402704,0.02128,4.750593824,
0.0213,3.56697241,0.0213,5.116024118,
0.02132,3.932402704,0.02132,4.750593824,
0.02134,3.56697241,0.02134,4.750593824,
0.02136,3.932402704,0.02136,5.481454413,
0.02138,3.56697241,0.02138,4.750593824,
0.0214,3.56697241,0.0214,4.750593824,
0.02142,2.836111822,0.02142,4.750593824,
0.02144,2.470681527,0.02144,4.750593824,
0.02146,4.297832998,0.02146,4.38516353,
0.02148,2.105251233,0.02148,5.116024118,
0.0215,1.008960351,0.0215,4.750593824,
0.02152,2.836111822,0.02152,5.116024118,
0.02154,1.008960351,0.02154,5.481454413,
0.02156,-0.4527608259,0.02156,4.750593824,
0.02158,-0.81819112,0.02158,4.38516353,
0.0216,-1.183621414,0.0216,5.116024118,
0.02162,-2.645342591,0.02162,4.750593824,
0.02164,-2.279912297,0.02164,4.38516353,
0.02166,-3.010772885,0.02166,5.481454413,
0.02168,-2.279912297,0.02168,4.019733236,
0.0217,-3.741633473,0.0217,4.750593824,
0.02172,-4.472494062,0.02172,5.116024118,
0.02174,-4.472494062,0.02174,5.116024118,
0.02176,-4.107063768,0.02176,4.019733236,
0.02178,-3.741633473,0.02178,4.750593824,
0.0218,-4.107063768,0.0218,4.019733236,
0.02182,-6.299645533,0.02182,5.116024118,
0.02184,-4.472494062,0.02184,5.116024118,
0.02186,-2.645342591,0.02186,4.750593824,
0.02188,-5.568784944,0.02188,4.38516353,
0.0219,-3.010772885,0.0219,5.116024118,
0.02192,-3.010772885,0.02192,4.750593824,
0.02194,-2.645342591,0.02194,4.38516353,
0.02196,-1.549051708,0.02196,5.116024118,
0.02198,-1.914482003,0.02198,4.750593824,
0.022,-0.0873305317,0.022,4.750593824,
0.02202,-0.4527608259,0.02202,5.481454413,
0.02204,-0.4527608259,0.02204,5.116024118,
0.02206,-0.0873305317,0.02206,4.38516353,
0.02208,2.105251233,0.02208,5.116024118,
0.0221,1.739820939,0.0221,4.750593824,
0.02212,3.56697241,0.02212,4.750593824,
0.02214,5.759554175,0.02214,5.116024118,
0.02216,3.932402704,0.02216,4.38516353,
0.02218,3.56697241,0.02218,4.38516353,
0.0222,3.201542116,0.0222,5.481454413,
0.02222,3.932402704,0.02222,4.38516353,
0.02224,2.470681527,0.02224,4.750593824,
0.02226,3.56697241,0.02226,5.846884707,
0.02228,3.932402704,0.02228,5.116024118,
0.0223,4.297832998,0.0223,4.38516353,
0.02232,3.932402704,0.02232,5.116024118,
0.02234,3.201542116,0.02234,4.750593824,
0.02236,2.836111822,0.02236,3.654302942,
0.02238,2.836111822,0.02238,5.116024118,
0.0224,2.470681527,0.0224,4.750593824,
0.02242,1.739820939,0.02242,4.750593824,
0.02244,1.008960351,0.02244,5.481454413,
0.02246,0.6435300566,0.02246,5.481454413,
0.02248,0.2780997625,0.02248,4.38516353,
0.0225,-2.279912297,0.0225,5.481454413,
0.02252,-2.279912297,0.02252,4.019733236,
0.02254,-1.914482003,0.02254,4.750593824,
0.02256,-1.914482003,0.02256,5.116024118,
0.02258,-1.914482003,0.02258,4.38516353,
0.0226,-2.645342591,0.0226,4.38516353,
0.02262,-3.010772885,0.02262,5.116024118,
0.02264,-4.107063768,0.02264,4.750593824,
0.02266,-1.914482003,0.02266,4.019733236,
0.02268,-3.376203179,0.02268,5.116024118,
0.0227,-4.472494062,0.0227,4.750593824,
0.02272,-4.107063768,0.02272,4.750593824,
0.02274,-3.741633473,0.02274,5.481454413,
0.02276,-4.837924356,0.02276,5.846884707,
0.02278,-1.183621414,0.02278,4.750593824,
0.0228,-4.837924356,0.0228,5.481454413,
0.02282,-2.645342591,0.02282,4.750593824,
0.02284,-3.010772885,0.02284,4.750593824,
0.02286,-2.279912297,0.02286,4.750593824,
0.02288,-3.741633473,0.02288,4.750593824,
0.0229,-0.81819112,0.0229,4.38516353,
0.02292,-1.549051708,0.02292,5.116024118,
0.02294,-1.183621414,0.02294,4.38516353,
0.02296,0.2780997625,0.02296,3.288872648,
0.02298,-0.0873305317,0.02298,5.116024118,
0.023,0.6435300566,0.023,5.116024118,
0.02302,2.470681527,0.02302,4.38516353,
0.02304,2.836111822,0.02304,5.846884707,
0.02306,2.470681527,0.02306,5.481454413,
0.02308,2.470681527,0.02308,4.019733236,
0.0231,2.105251233,0.0231,5.116024118,
0.02312,3.932402704,0.02312,5.116024118,
0.02314,4.663263293,0.02314,4.38516353,
0.02316,3.201542116,0.02316,5.846884707,
0.02318,3.56697241,0.02318,4.750593824,
0.0232,6.124984469,0.0232,5.116024118,
0.02322,4.663263293,0.02322,4.750593824,
0.02324,3.201542116,0.02324,4.750593824,
0.02326,4.297832998,0.02326,4.019733236,
0.02328,2.836111822,0.02328,4.750593824,
0.0233,2.836111822,0.0233,5.116024118,
0.02332,2.836111822,0.02332,4.750593824,
0.02334,2.836111822,0.02334,4.750593824,
0.02336,2.105251233,0.02336,4.750593824,
0.02338,0.6435300566,0.02338,4.750593824,
0.0234,1.008960351,0.0234,5.116024118,
0.02342,0.6435300566,0.02342,4.750593824,
0.02344,-0.4527608259,0.02344,4.38516353,
0.02346,-0.4527608259,0.02346,5.846884707,
0.02348,-1.549051708,0.02348,5.116024118,
0.0235,-1.549051708,0.0235,4.750593824,
0.02352,-1.914482003,0.02352,5.116024118,
0.02354,-1.914482003,0.02354,5.116024118,
0.02356,-3.010772885,0.02356,4.38516353,
0.02358,-5.568784944,0.02358,5.116024118,
0.0236,-4.837924356,0.0236,5.116024118,
0.02362,-2.279912297,0.02362,4.750593824,
0.02364,-3.376203179,0.02364,5.481454413,
0.02366,-4.837924356,0.02366,5.116024118,
0.02368,-3.741633473,0.02368,5.116024118,
0.0237,-4.107063768,0.0237,5.116024118,
0.02372,-5.20335465,0.02372,5.116024118,
0.02374,-3.376203179,0.02374,4.750593824,
0.02376,-0.4527608259,0.02376,5.116024118,
0.02378,-3.376203179,0.02378,5.116024118,
0.0238,-3.376203179,0.0238,4.750593824,
0.02382,-1.549051708,0.02382,5.116024118,
0.02384,-2.279912297,0.02384,4.750593824,
0.02386,-0.0873305317,0.02386,4.38516353,
0.02388,-0.81819112,0.02388,4.750593824,
0.0239,0.2780997625,0.0239,5.116024118,
0.02392,1.374390645,0.02392,5.116024118,
0.02394,2.105251233,0.02394,5.116024118,
0.02396,1.374390645,0.02396,5.481454413,
0.02398,4.297832998,0.02398,4.750593824,
0.024,2.836111822,0.024,4.750593824,
0.02402,2.836111822,0.02402,5.116024118,
0.02404,3.201542116,0.02404,4.750593824,
0.02406,3.201542116,0.02406,5.116024118,
0.02408,3.932402704,0.02408,4.750593824,
0.0241,3.932402704,0.0241,4.750593824,
0.02412,3.932402704,0.02412,5.116024118,
0.02414,4.297832998,0.02414,4.750593824,
0.02416,4.297832998,0.02416,4.750593824,
0.02418,2.836111822,0.02418,4.750593824,
0.0242,3.932402704,0.0242,4.750593824,
0.02422,3.56697241,0.02422,4.750593824,
0.02424,3.56697241,0.02424,5.116024118,
0.02426,2.105251233,0.02426,5.116024118,
0.02428,2.836111822,0.02428,5.116024118,
0.0243,1.739820939,0.0243,5.116024118,
0.02432,1.008960351,0.02432,5.116024118,
0.02434,0.2780997625,0.02434,3.654302942,
0.02436,-0.81819112,0.02436,5.116024118,
0.02438,0.2780997625,0.02438,5.481454413,
0.0244,-0.81819112,0.0244,4.750593824,
0.02442,-1.914482003,0.02442,4.750593824,
0.02444,-2.279912297,0.02444,4.750593824,
0.02446,-2.645342591,0.02446,4.750593824,
0.02448,-2.645342591,0.02448,5.481454413,
0.0245,-4.107063768,0.0245,4.750593824,
0.02452,-3.741633473,0.02452,4.750593824,
0.02454,-2.279912297,0.02454,5.116024118,
0.02456,-5.20335465,0.02456,5.116024118,
0.02458,-5.568784944,0.02458,5.116024118,
0.0246,-5.568784944,0.0246,5.116024118,
0.02462,-3.010772885,0.02462,5.116024118,
0.02464,-3.741633473,0.02464,5.116024118,
0.02466,-4.107063768,0.02466,4.38516353,
0.02468,-4.472494062,0.02468,4.019733236,
0.0247,-3.010772885,0.0247,4.750593824,
0.02472,-3.010772885,0.02472,4.750593824,
0.02474,-2.279912297,0.02474,4.750593824,
0.02476,-3.010772885,0.02476,4.38516353,
0.02478,-0.81819112,0.02478,4.38516353,
0.0248,-1.914482003,0.0248,5.116024118,
0.02482,-0.0873305317,0.02482,4.750593824,
0.02484,-1.549051708,0.02484,4.750593824,
0.02486,0.2780997625,0.02486,4.750593824,
0.02488,2.105251233,0.02488,5.116024118,
0.0249,2.836111822,0.0249,4.750593824,
0.02492,3.56697241,0.02492,5.481454413,
0.02494,3.56697241,0.02494,5.481454413,
0.02496,3.56697241,0.02496,4.38516353,
0.02498,5.028693587,0.02498,5.116024118,
0.025,3.56697241,0.025,4.750593824,
0.02502,3.201542116,0.02502,4.38516353,
0.02504,3.932402704,0.02504,5.481454413,
0.02506,4.297832998,0.02506,4.38516353,
0.02508,4.663263293,0.02508,4.38516353,
0.0251,4.297832998,0.0251,4.750593824,
0.02512,3.932402704,0.02512,4.38516353,
0.02514,3.56697241,0.02514,4.019733236,
0.02516,3.932402704,0.02516,5.116024118,
0.02518,2.470681527,0.02518,4.750593824,
0.0252,2.470681527,0.0252,4.38516353,
0.02522,1.739820939,0.02522,4.750593824,
0.02524,1.374390645,0.02524,4.38516353,
0.02526,1.374390645,0.02526,4.38516353,
0.02528,0.2780997625,0.02528,5.481454413,
0.0253,-0.4527608259,0.0253,4.750593824,
0.02532,-0.81819112,0.02532,4.38516353,
0.02534,-1.549051708,0.02534,5.481454413,
0.02536,-0.4527608259,0.02536,5.116024118,
0.02538,-2.645342591,0.02538,5.116024118,
0.0254,-2.645342591,0.0254,5.116024118,
0.02542,-3.376203179,0.02542,4.750593824,
0.02544,-4.107063768,0.02544,4.38516353,
0.02546,-4.472494062,0.02546,4.750593824,
0.02548,-3.376203179,0.02548,5.116024118,
0.0255,-3.741633473,0.0255,4.38516353,
0.02552,-4.107063768,0.02552,4.750593824,
0.02554,-4.107063768,0.02554,4.750593824,
0.02556,-3.376203179,0.02556,4.38516353,
0.02558,-3.376203179,0.02558,4.750593824,
0.0256,-3.741633473,0.0256,4.750593824,
0.02562,-4.472494062,0.02562,4.019733236,
0.02564,-6.299645533,0.02564,4.38516353,
0.02566,-3.376203179,0.02566,4.750593824,
0.02568,-3.010772885,0.02568,4.750593824,
0.0257,-1.549051708,0.0257,5.116024118,
0.02572,-0.81819112,0.02572,4.750593824,
0.02574,-0.81819112,0.02574,4.019733236,
0.02576,-0.0873305317,0.02576,5.481454413,
0.02578,-0.0873305317,0.02578,5.481454413,
0.0258,1.739820939,0.0258,4.019733236,
0.02582,1.739820939,0.02582,5.116024118,
0.02584,1.739820939,0.02584,5.116024118,
0.02586,2.836111822,0.02586,5.116024118,
0.02588,2.836111822,0.02588,4.750593824,
0.0259,2.836111822,0.0259,4.750593824,
0.02592,3.201542116,0.02592,4.750593824,
0.02594,4.297832998,0.02594,5.116024118,
0.02596,3.932402704,0.02596,5.116024118,
0.02598,5.028693587,0.02598,4.019733236,
0.026,5.028693587,0.026,5.116024118,
0.02602,4.297832998,0.02602,4.750593824,
0.02604,3.56697241,0.02604,4.750593824,
0.02606,3.932402704,0.02606,5.116024118,
0.02608,3.932402704,0.02608,5.846884707,
0.0261,3.932402704,0.0261,4.750593824,
0.02612,0.2780997625,0.02612,5.116024118,
0.02614,1.739820939,0.02614,5.116024118,
0.02616,1.374390645,0.02616,4.38516353,
0.02618,1.374390645,0.02618,3.654302942,
0.0262,0.6435300566,0.0262,5.481454413,
0.02622,-0.4527608259,0.02622,4.750593824,
0.02624,-0.4527608259,0.02624,5.116024118,
0.02626,-1.549051708,0.02626,4.750593824,
0.02628,-0.4527608259,0.02628,3.654302942,
0.0263,-2.279912297,0.0263,4.750593824,
0.02632,-2.645342591,0.02632,5.116024118,
0.02634,-2.645342591,0.02634,4.38516353,
0.02636,-3.741633473,0.02636,4.750593824,
0.02638,-4.107063768,0.02638,6.212315001,
0.0264,-3.741633473,0.0264,4.750593824,
0.02642,-3.376203179,0.02642,5.116024118,
0.02644,-4.472494062,0.02644,4.750593824,
0.02646,-4.837924356,0.02646,4.750593824,
0.02648,-5.20335465,0.02648,5.481454413,
0.0265,-6.299645533,0.0265,4.750593824,
0.02652,-3.741633473,0.02652,4.750593824,
0.02654,-2.279912297,0.02654,4.750593824,
0.02656,-3.376203179,0.02656,4.38516353,
0.02658,-1.549051708,0.02658,3.288872648,
0.0266,-2.279912297,0.0266,5.116024118,
0.02662,-1.549051708,0.02662,4.750593824,
0.02664,-1.183621414,0.02664,4.750593824,
0.02666,0.2780997625,0.02666,5.116024118,
0.02668,-0.4527608259,0.02668,6.212315001,
0.0267,1.008960351,0.0267,4.750593824,
0.02672,1.008960351,0.02672,5.116024118,
0.02674,1.008960351,0.02674,4.750593824,
0.02676,2.105251233,0.02676,4.750593824,
0.02678,2.105251233,0.02678,4.38516353,
0.0268,4.297832998,0.0268,5.116024118,
0.02682,3.56697241,0.02682,4.750593824,
0.02684,2.470681527,0.02684,4.750593824,
0.02686,3.201542116,0.02686,4.750593824,
0.02688,4.297832998,0.02688,4.38516353,
0.0269,5.028693587,0.0269,4.750593824,
0.02692,3.932402704,0.02692,5.846884707,
0.02694,3.56697241,0.02694,4.38516353,
0.02696,4.663263293,0.02696,4.750593824,
0.02698,3.932402704,0.02698,5.846884707,
0.027,2.836111822,0.027,4.38516353,
0.02702,1.374390645,0.02702,5.116024118,
0.02704,2.836111822,0.02704,5.116024118,
0.02706,3.56697241,0.02706,4.019733236,
0.02708,2.105251233,0.02708,5.116024118,
0.0271,0.6435300566,0.0271,4.750593824,
0.02712,1.374390645,0.02712,4.750593824,
0.02714,1.008960351,0.02714,5.116024118,
0.02716,-0.4527608259,0.02716,4.750593824,
0.02718,0.2780997625,0.02718,3.654302942,
0.0272,-0.4527608259,0.0272,5.116024118,
0.02722,-2.279912297,0.02722,5.116024118,
0.02724,-3.010772885,0.02724,4.750593824,
0.02726,-2.279912297,0.02726,4.750593824,
0.02728,-3.741633473,0.02728,4.38516353,
0.0273,-2.279912297,0.0273,4.38516353,
0.02732,-3.376203179,0.02732,5.116024118,
0.02734,-4.472494062,0.02734,5.116024118,
0.02736,-4.107063768,0.02736,4.38516353,
0.02738,-4.107063768,0.02738,5.481454413,
0.0274,-8.126797003,0.0274,5.116024118,
0.02742,-4.107063768,0.02742,4.750593824,
0.02744,-4.472494062,0.02744,4.750593824,
0.02746,-4.107063768,0.02746,4.750593824,
0.02748,-2.645342591,0.02748,5.116024118,
0.0275,-2.645342591,0.0275,5.116024118,
0.02752,-2.279912297,0.02752,5.116024118,
0.02754,-4.107063768,0.02754,4.750593824,
0.02756,-1.914482003,0.02756,5.846884707,
0.02758,-1.549051708,0.02758,4.38516353,
0.0276,0.2780997625,0.0276,4.750593824,
0.02762,0.6435300566,0.02762,5.116024118,
0.02764,-0.81819112,0.02764,4.750593824,
0.02766,0.6435300566,0.02766,4.750593824,
0.02768,0.2780997625,0.02768,5.481454413,
0.0277,0.6435300566,0.0277,5.116024118,
0.02772,2.470681527,0.02772,5.116024118,
0.02774,2.836111822,0.02774,5.116024118,
0.02776,4.663263293,0.02776,4.38516353,
0.02778,4.297832998,0.02778,4.38516353,
0.0278,2.470681527,0.0278,4.38516353,
0.02782,4.663263293,0.02782,4.750593824,
0.02784,5.028693587,0.02784,5.116024118,
0.02786,3.56697241,0.02786,4.019733236,
0.02788,4.297832998,0.02788,4.750593824,
0.0279,5.028693587,0.0279,4.750593824,
0.02792,4.663263293,0.02792,3.654302942,
0.02794,4.297832998,0.02794,4.019733236,
0.02796,5.028693587,0.02796,4.750593824,
0.02798,2.836111822,0.02798,4.750593824,
0.028,3.201542116,0.028,4.750593824,
0.02802,5.028693587,0.02802,4.38516353,
0.02804,0.6435300566,0.02804,4.38516353,
0.02806,0.6435300566,0.02806,5.116024118,
0.02808,1.374390645,0.02808,4.750593824,
0.0281,-0.81819112,0.0281,4.38516353,
0.02812,-0.4527608259,0.02812,4.38516353,
0.02814,-1.183621414,0.02814,5.116024118,
0.02816,-2.279912297,0.02816,4.38516353,
0.02818,-1.914482003,0.02818,4.38516353,
0.0282,-2.645342591,0.0282,4.750593824,
0.02822,-4.107063768,0.02822,4.38516353,
0.02824,-4.837924356,0.02824,5.116024118,
0.02826,-3.741633473,0.02826,4.750593824,
0.02828,-4.472494062,0.02828,4.38516353,
0.0283,-4.107063768,0.0283,4.750593824,
0.02832,-3.741633473,0.02832,5.116024118,
0.02834,-4.107063768,0.02834,4.38516353,
0.02836,-3.741633473,0.02836,4.750593824,
0.02838,-3.741633473,0.02838,4.750593824,
0.0284,-4.472494062,0.0284,4.38516353,
0.02842,-3.010772885,0.02842,5.116024118,
0.02844,-1.914482003,0.02844,4.38516353,
0.02846,-3.376203179,0.02846,4.38516353,
0.02848,-1.914482003,0.02848,4.38516353,
0.0285,-0.4527608259,0.0285,4.750593824,
0.02852,-1.183621414,0.02852,4.019733236,
0.02854,-0.4527608259,0.02854,4.750593824,
0.02856,0.6435300566,0.02856,4.750593824,
0.02858,0.6435300566,0.02858,4.750593824,
0.0286,2.105251233,0.0286,4.750593824,
0.02862,1.739820939,0.02862,4.750593824,
0.02864,2.105251233,0.02864,4.750593824,
0.02866,3.201542116,0.02866,4.38516353,
0.02868,3.56697241,0.02868,4.38516353,
0.0287,3.56697241,0.0287,4.38516353,
0.02872,4.297832998,0.02872,4.38516353,
0.02874,5.028693587,0.02874,4.38516353,
0.02876,4.663263293,0.02876,4.38516353,
0.02878,4.297832998,0.02878,4.750593824,
0.0288,5.759554175,0.0288,4.38516353,
0.02882,3.201542116,0.02882,4.750593824,
0.02884,3.56697241,0.02884,4.750593824,
0.02886,4.297832998,0.02886,4.38516353,
0.02888,3.201542116,0.02888,4.750593824,
0.0289,3.56697241,0.0289,5.116024118,
0.02892,3.56697241,0.02892,4.38516353,
0.02894,2.836111822,0.02894,4.38516353,
0.02896,2.470681527,0.02896,4.750593824,
0.02898,1.374390645,0.02898,4.750593824,
0.029,1.008960351,0.029,4.38516353,
0.02902,0.2780997625,0.02902,4.750593824,
0.02904,-0.4527608259,0.02904,4.750593824,
0.02906,-1.549051708,0.02906,4.38516353,
0.02908,-1.914482003,0.02908,4.750593824,
0.0291,-1.183621414,0.0291,4.750593824,
0.02912,-3.010772885,0.02912,4.38516353,
0.02914,-1.183621414,0.02914,4.750593824,
0.02916,-3.741633473,0.02916,4.38516353,
0.02918,-4.107063768,0.02918,4.38516353,
0.0292,-3.010772885,0.0292,4.38516353,
0.02922,-4.472494062,0.02922,4.38516353,
0.02924,-3.376203179,0.02924,4.38516353,
0.02926,-4.107063768,0.02926,5.116024118,
0.02928,-2.645342591,0.02928,4.750593824,
0.0293,-4.472494062,0.0293,4.38516353,
0.02932,-3.010772885,0.02932,4.750593824,
0.02934,-3.741633473,0.02934,4.750593824,
0.02936,-5.568784944,0.02936,4.38516353,
0.02938,-1.914482003,0.02938,5.116024118,
0.0294,-2.645342591,0.0294,4.38516353,
0.02942,-4.837924356,0.02942,4.750593824,
0.02944,-1.183621414,0.02944,4.750593824,
0.02946,-0.81819112,0.02946,4.750593824,
0.02948,-1.183621414,0.02948,4.38516353,
0.0295,-0.0873305317,0.0295,4.750593824,
0.02952,1.739820939,0.02952,4.750593824,
0.02954,1.008960351,0.02954,4.019733236,
0.02956,3.201542116,0.02956,4.750593824,
0.02958,3.201542116,0.02958,4.750593824,
0.0296,2.836111822,0.0296,5.116024118,
0.02962,3.56697241,0.02962,4.750593824,
0.02964,4.297832998,0.02964,4.38516353,
0.02966,3.201542116,0.02966,4.38516353,
0.02968,3.201542116,0.02968,4.750593824,
0.0297,2.836111822,0.0297,5.481454413,
0.02972,3.201542116,0.02972,4.750593824,
0.02974,3.932402704,0.02974,5.116024118,
0.02976,3.932402704,0.02976,5.116024118,
0.02978,4.297832998,0.02978,5.116024118,
0.0298,3.201542116,0.0298,4.38516353,
0.02982,3.201542116,0.02982,5.116024118,
0.02984,2.105251233,0.02984,4.750593824,
0.02986,2.470681527,0.02986,4.38516353,
0.02988,1.739820939,0.02988,5.116024118,
0.0299,1.739820939,0.0299,5.116024118,
0.02992,0.6435300566,0.02992,4.750593824,
0.02994,-1.549051708,0.02994,4.750593824,
0.02996,0.6435300566,0.02996,5.116024118,
0.02998,-0.4527608259,0.02998,5.116024118,
0.03,-0.0873305317,0.03,6.212315001,
0.03002,-1.914482003,0.03002,5.116024118,
0.03004,-0.81819112,0.03004,4.750593824,
0.03006,-2.279912297,0.03006,4.750593824,
0.03008,-3.741633473,0.03008,5.116024118,
0.0301,-1.914482003,0.0301,4.750593824,
0.03012,-3.741633473,0.03012,4.750593824,
0.03014,-3.741633473,0.03014,5.116024118,
0.03016,-4.837924356,0.03016,4.38516353,
0.03018,-5.20335465,0.03018,4.38516353,
0.0302,-4.472494062,0.0302,4.38516353,
0.03022,-3.741633473,0.03022,4.019733236,
0.03024,-4.837924356,0.03024,4.38516353,
0.03026,-3.376203179,0.03026,5.116024118,
0.03028,-2.645342591,0.03028,4.750593824,
0.0303,-3.376203179,0.0303,5.116024118,
0.03032,-1.549051708,0.03032,4.750593824,
0.03034,-3.376203179,0.03034,5.116024118,
0.03036,-2.645342591,0.03036,4.38516353,
0.03038,-0.0873305317,0.03038,5.481454413,
0.0304,-1.549051708,0.0304,4.019733236,
0.03042,-0.81819112,0.03042,4.38516353,
0.03044,1.374390645,0.03044,5.481454413,
0.03046,-2.279912297,0.03046,4.750593824,
0.03048,1.739820939,0.03048,4.019733236,
0.0305,1.008960351,0.0305,4.750593824,
0.03052,0.2780997625,0.03052,4.750593824,
0.03054,1.374390645,0.03054,4.019733236,
0.03056,2.836111822,0.03056,5.481454413,
0.03058,4.297832998,0.03058,4.38516353,
0.0306,3.56697241,0.0306,5.481454413,
0.03062,5.394123881,0.03062,5.116024118,
0.03064,3.932402704,0.03064,4.38516353,
0.03066,3.932402704,0.03066,4.38516353,
0.03068,5.394123881,0.03068,5.116024118,
0.0307,4.663263293,0.0307,4.38516353,
0.03072,-0.0873305317,0.03072,4.38516353,
0.03074,3.932402704,0.03074,5.481454413,
0.03076,2.836111822,0.03076,5.481454413,
0.03078,3.201542116,0.03078,4.750593824,
0.0308,2.105251233,0.0308,5.481454413,
0.03082,1.739820939,0.03082,4.750593824,
0.03084,0.2780997625,0.03084,5.116024118,
0.03086,-0.4527608259,0.03086,5.481454413,
0.03088,-0.4527608259,0.03088,4.750593824,
0.0309,-0.4527608259,0.0309,4.750593824,
0.03092,-0.0873305317,0.03092,5.116024118,
0.03094,-2.279912297,0.03094,4.750593824,
0.03096,-3.741633473,0.03096,4.750593824,
0.03098,-2.645342591,0.03098,4.750593824,
0.031,-2.645342591,0.031,4.750593824,
0.03102,-4.107063768,0.03102,4.38516353,
0.03104,-3.376203179,0.03104,4.750593824,
0.03106,-4.837924356,0.03106,4.38516353,
0.03108,-3.741633473,0.03108,4.750593824,
0.0311,-3.376203179,0.0311,5.481454413,
0.03112,-1.549051708,0.03112,4.38516353,
0.03114,-7.761366709,0.03114,4.38516353,
0.03116,-4.472494062,0.03116,5.116024118,
0.03118,-3.741633473,0.03118,4.750593824,
0.0312,-3.741633473,0.0312,4.750593824,
0.03122,-3.010772885,0.03122,5.116024118,
0.03124,-3.010772885,0.03124,4.38516353,
0.03126,-3.741633473,0.03126,4.750593824,
0.03128,-2.279912297,0.03128,5.481454413,
0.0313,-1.914482003,0.0313,4.38516353,
0.03132,-2.279912297,0.03132,4.38516353,
0.03134,0.6435300566,0.03134,5.116024118,
0.03136,1.008960351,0.03136,5.116024118,
0.03138,1.008960351,0.03138,4.38516353,
0.0314,2.836111822,0.0314,5.116024118,
0.03142,0.2780997625,0.03142,4.750593824,
0.03144,2.836111822,0.03144,4.750593824,
0.03146,2.836111822,0.03146,4.750593824,
0.03148,2.470681527,0.03148,4.750593824,
0.0315,3.201542116,0.0315,4.750593824,
0.03152,5.028693587,0.03152,5.116024118,
0.03154,3.932402704,0.03154,4.750593824,
0.03156,3.932402704,0.03156,4.750593824,
0.03158,4.297832998,0.03158,4.750593824,
0.0316,3.201542116,0.0316,4.38516353,
0.03162,4.663263293,0.03162,5.481454413,
0.03164,3.932402704,0.03164,5.481454413,
0.03166,4.663263293,0.03166,4.750593824,
0.03168,3.201542116,0.03168,5.116024118,
0.0317,2.105251233,0.0317,4.750593824,
0.03172,3.201542116,0.03172,4.750593824,
0.03174,4.297832998,0.03174,5.116024118,
0.03176,-0.0873305317,0.03176,5.116024118,
0.03178,1.374390645,0.03178,4.750593824,
0.0318,1.008960351,0.0318,5.481454413,
0.03182,-1.549051708,0.03182,4.750593824,
0.03184,-0.0873305317,0.03184,4.750593824,
0.03186,-0.4527608259,0.03186,5.116024118,
0.03188,-2.645342591,0.03188,4.750593824,
0.0319,-2.279912297,0.0319,4.750593824,
0.03192,-3.741633473,0.03192,5.481454413,
0.03194,-3.741633473,0.03194,4.750593824,
0.03196,-3.376203179,0.03196,4.750593824,
0.03198,-3.376203179,0.03198,4.750593824,
0.032,-6.299645533,0.032,4.750593824,
0.03202,-3.741633473,0.03202,4.38516353,
0.03204,-3.741633473,0.03204,5.846884707,
0.03206,-2.645342591,0.03206,4.750593824,
0.03208,-3.741633473,0.03208,4.750593824,
0.0321,-3.376203179,0.0321,5.481454413,
0.03212,-3.376203179,0.03212,5.116024118,
0.03214,-4.107063768,0.03214,4.750593824,
0.03216,-4.472494062,0.03216,5.116024118,
0.03218,-4.107063768,0.03218,4.750593824,
0.0322,-1.549051708,0.0322,4.750593824,
0.03222,-0.81819112,0.03222,5.116024118,
0.03224,-1.549051708,0.03224,5.116024118,
0.03226,-0.81819112,0.03226,4.750593824,
0.03228,-0.81819112,0.03228,5.116024118,
0.0323,0.6435300566,0.0323,5.116024118,
0.03232,0.2780997625,0.03232,5.116024118,
0.03234,0.2780997625,0.03234,5.481454413,
0.03236,1.739820939,0.03236,5.116024118,
0.03238,0.6435300566,0.03238,4.750593824,
0.0324,3.201542116,0.0324,5.116024118,
0.03242,2.105251233,0.03242,4.750593824,
0.03244,4.663263293,0.03244,4.750593824,
0.03246,3.932402704,0.03246,5.481454413,
0.03248,3.56697241,0.03248,5.116024118,
0.0325,5.759554175,0.0325,4.750593824,
0.03252,3.932402704,0.03252,5.116024118,
0.03254,3.56697241,0.03254,4.750593824,
0.03256,3.932402704,0.03256,4.750593824,
0.03258,3.932402704,0.03258,4.750593824,
0.0326,3.201542116,0.0326,5.116024118,
0.03262,4.297832998,0.03262,4.750593824,
0.03264,2.836111822,0.03264,5.116024118,
0.03266,2.105251233,0.03266,5.116024118,
0.03268,2.836111822,0.03268,4.750593824,
0.0327,2.836111822,0.0327,4.38516353,
0.03272,1.739820939,0.03272,5.481454413,
0.03274,0.6435300566,0.03274,4.38516353,
0.03276,-1.914482003,0.03276,4.750593824,
0.03278,-0.4527608259,0.03278,4.750593824,
0.0328,-1.549051708,0.0328,4.38516353,
0.03282,-2.279912297,0.03282,5.846884707,
0.03284,-3.741633473,0.03284,5.116024118,
0.03286,-0.81819112,0.03286,4.38516353,
0.03288,-3.741633473,0.03288,5.116024118,
0.0329,-3.741633473,0.0329,5.116024118,
0.03292,-4.107063768,0.03292,4.750593824,
0.03294,-3.741633473,0.03294,4.750593824,
0.03296,-5.934215238,0.03296,4.38516353,
0.03298,-3.741633473,0.03298,4.38516353,
0.033,-4.107063768,0.033,5.116024118,
0.03302,-4.837924356,0.03302,4.38516353,
0.03304,-4.107063768,0.03304,4.750593824,
0.03306,-3.376203179,0.03306,5.481454413,
0.03308,-3.010772885,0.03308,4.750593824,
0.0331,-3.010772885,0.0331,4.750593824,
0.03312,-0.81819112,0.03312,5.481454413,
0.03314,-2.645342591,0.03314,5.116024118,
0.03316,-0.81819112,0.03316,5.116024118,
0.03318,-1.549051708,0.03318,5.116024118,
0.0332,-0.4527608259,0.0332,5.116024118,
0.03322,0.6435300566,0.03322,5.481454413,
0.03324,0.6435300566,0.03324,5.116024118,
0.03326,0.2780997625,0.03326,4.750593824,
0.03328,3.56697241,0.03328,4.750593824,
0.0333,2.105251233,0.0333,5.116024118,
0.03332,1.374390645,0.03332,3.654302942,
0.03334,3.201542116,0.03334,4.750593824,
0.03336,3.56697241,0.03336,5.116024118,
0.03338,2.105251233,0.03338,5.116024118,
0.0334,3.932402704,0.0334,4.750593824,
0.03342,4.297832998,0.03342,4.019733236,
0.03344,3.56697241,0.03344,4.38516353,
0.03346,2.470681527,0.03346,4.750593824,
0.03348,4.663263293,0.03348,4.38516353,
0.0335,4.297832998,0.0335,4.750593824,
0.03352,4.297832998,0.03352,5.846884707,
0.03354,2.836111822,0.03354,4.38516353,
0.03356,2.836111822,0.03356,4.750593824,
0.03358,2.836111822,0.03358,4.750593824,
0.0336,2.105251233,0.0336,4.019733236,
0.03362,3.201542116,0.03362,2.923442353,
0.03364,1.739820939,0.03364,4.38516353,
0.03366,0.6435300566,0.03366,4.019733236,
0.03368,-0.0873305317,0.03368,4.750593824,
0.0337,-0.4527608259,0.0337,4.019733236,
0.03372,-0.81819112,0.03372,5.481454413,
0.03374,-0.4527608259,0.03374,4.750593824,
0.03376,-1.549051708,0.03376,4.38516353,
0.03378,-1.549051708,0.03378,4.38516353,
0.0338,-0.81819112,0.0338,4.750593824,
0.03382,-3.741633473,0.03382,5.116024118,
0.03384,-4.837924356,0.03384,4.019733236,
0.03386,-3.010772885,0.03386,4.750593824,
0.03388,-4.472494062,0.03388,4.38516353,
0.0339,-3.741633473,0.0339,4.019733236,
0.03392,-4.837924356,0.03392,3.654302942,
0.03394,-3.010772885,0.03394,4.750593824,
0.03396,-4.472494062,0.03396,4.750593824,
0.03398,-3.741633473,0.03398,4.750593824,
0.034,-3.376203179,0.034,4.38516353,
0.03402,-3.010772885,0.03402,5.116024118,
0.03404,-2.645342591,0.03404,5.116024118,
0.03406,-2.279912297,0.03406,4.750593824,
0.03408,-2.279912297,0.03408,4.38516353,
0.0341,-1.549051708,0.0341,5.116024118,
0.03412,-0.81819112,0.03412,3.654302942,
0.03414,-0.4527608259,0.03414,4.019733236,
0.03416,-0.0873305317,0.03416,4.750593824,
0.03418,1.374390645,0.03418,4.750593824,
0.0342,1.374390645,0.0342,3.654302942,
0.03422,2.836111822,0.03422,5.116024118,
0.03424,2.470681527,0.03424,4.38516353,
0.03426,2.836111822,0.03426,4.019733236,
0.03428,3.932402704,0.03428,5.116024118,
0.0343,3.56697241,0.0343,4.750593824,
0.03432,3.56697241,0.03432,5.116024118,
0.03434,5.028693587,0.03434,5.116024118,
0.03436,4.297832998,0.03436,4.38516353,
0.03438,2.836111822,0.03438,4.38516353,
0.0344,4.663263293,0.0344,4.750593824,
0.03442,5.028693587,0.03442,4.38516353,
0.03444,5.394123881,0.03444,4.38516353,
0.03446,6.124984469,0.03446,4.750593824,
0.03448,3.201542116,0.03448,4.750593824,
0.0345,2.836111822,0.0345,4.38516353,
0.03452,3.56697241,0.03452,4.750593824,
0.03454,2.836111822,0.03454,4.750593824,
0.03456,2.470681527,0.03456,4.38516353,
0.03458,0.6435300566,0.03458,5.116024118,
0.0346,1.739820939,0.0346,4.750593824,
0.03462,-0.0873305317,0.03462,4.750593824,
0.03464,-0.4527608259,0.03464,4.750593824,
0.03466,-0.81819112,0.03466,4.750593824,
0.03468,-1.183621414,0.03468,4.38516353,
0.0347,-1.549051708,0.0347,5.116024118,
0.03472,-1.183621414,0.03472,4.38516353,
0.03474,-5.568784944,0.03474,4.019733236,
0.03476,-3.376203179,0.03476,4.38516353,
0.03478,-3.741633473,0.03478,4.750593824,
0.0348,-3.741633473,0.0348,4.38516353,
0.03482,-4.107063768,0.03482,4.750593824,
0.03484,-4.837924356,0.03484,4.750593824,
0.03486,-3.376203179,0.03486,4.38516353,
0.03488,-4.837924356,0.03488,5.116024118,
0.0349,-6.665075827,0.0349,5.846884707,
0.03492,-3.010772885,0.03492,5.116024118,
0.03494,-3.010772885,0.03494,4.750593824,
0.03496,-3.376203179,0.03496,5.116024118,
0.03498,-3.741633473,0.03498,4.38516353,
0.035,-1.549051708,0.035,5.116024118,
0.03502,-1.549051708,0.03502,5.116024118,
0.03504,-0.4527608259,0.03504,4.750593824,
0.03506,-0.4527608259,0.03506,4.750593824,
0.03508,-3.741633473,0.03508,5.116024118,
0.0351,-0.81819112,0.0351,5.116024118,
0.03512,1.374390645,0.03512,4.750593824,
0.03514,0.6435300566,0.03514,4.750593824,
0.03516,3.201542116,0.03516,5.481454413,
0.03518,2.836111822,0.03518,4.750593824,
0.0352,3.201542116,0.0352,4.750593824,
0.03522,2.470681527,0.03522,5.116024118,
0.03524,1.739820939,0.03524,4.750593824,
0.03526,2.836111822,0.03526,4.750593824,
0.03528,4.297832998,0.03528,5.481454413,
0.0353,4.297832998,0.0353,4.38516353,
0.03532,4.297832998,0.03532,4.38516353,
0.03534,4.297832998,0.03534,5.846884707,
0.03536,4.297832998,0.03536,4.750593824,
0.03538,3.56697241,0.03538,4.750593824,
0.0354,3.56697241,0.0354,5.116024118,
0.03542,0.2780997625,0.03542,4.750593824,
0.03544,2.470681527,0.03544,5.116024118,
0.03546,2.470681527,0.03546,4.750593824,
0.03548,-0.0873305317,0.03548,4.750593824,
0.0355,2.105251233,0.0355,5.481454413,
0.03552,-0.4527608259,0.03552,5.116024118,
0.03554,-0.0873305317,0.03554,4.750593824,
0.03556,1.008960351,0.03556,5.481454413,
0.03558,-1.183621414,0.03558,5.116024118,
0.0356,-0.0873305317,0.0356,4.38516353,
0.03562,-1.914482003,0.03562,5.116024118,
0.03564,-3.376203179,0.03564,4.750593824,
0.03566,-3.010772885,0.03566,5.116024118,
0.03568,-1.183621414,0.03568,5.481454413,
0.0357,-3.010772885,0.0357,5.116024118,
0.03572,-3.010772885,0.03572,4.38516353,
0.03574,-4.472494062,0.03574,5.481454413,
0.03576,-4.107063768,0.03576,4.750593824,
0.03578,-5.20335465,0.03578,5.116024118,
0.0358,-3.741633473,0.0358,5.116024118,
0.03582,-3.741633473,0.03582,4.750593824,
0.03584,-5.20335465,0.03584,4.750593824,
0.03586,-3.376203179,0.03586,5.116024118,
0.03588,-3.741633473,0.03588,4.38516353,
0.0359,-2.645342591,0.0359,4.750593824,
0.03592,-2.645342591,0.03592,5.116024118,
0.03594,-2.279912297,0.03594,4.750593824,
0.03596,-2.279912297,0.03596,5.846884707,
0.03598,-1.183621414,0.03598,5.116024118,
0.036,-2.279912297,0.036,5.116024118,
0.03602,-0.0873305317,0.03602,4.750593824,
0.03604,0.6435300566,0.03604,5.481454413,
0.03606,1.374390645,0.03606,4.750593824,
0.03608,1.374390645,0.03608,4.38516353,
0.0361,2.470681527,0.0361,5.116024118,
0.03612,2.105251233,0.03612,5.116024118,
0.03614,2.836111822,0.03614,4.750593824,
0.03616,3.201542116,0.03616,5.481454413,
0.03618,3.201542116,0.03618,4.750593824,
0.0362,3.56697241,0.0362,4.750593824,
0.03622,5.028693587,0.03622,5.481454413,
0.03624,4.297832998,0.03624,4.750593824,
0.03626,3.932402704,0.03626,4.750593824,
0.03628,4.663263293,0.03628,5.116024118,
0.0363,2.836111822,0.0363,4.750593824,
0.03632,3.932402704,0.03632,4.38516353,
0.03634,5.394123881,0.03634,5.116024118,
0.03636,2.836111822,0.03636,4.750593824,
0.03638,2.470681527,0.03638,4.38516353,
0.0364,2.470681527,0.0364,5.116024118,
0.03642,2.105251233,0.03642,4.750593824,
0.03644,1.374390645,0.03644,4.38516353,
0.03646,1.008960351,0.03646,5.116024118,
0.03648,0.6435300566,0.03648,5.116024118,
0.0365,-2.279912297,0.0365,4.750593824,
0.03652,-1.183621414,0.03652,5.116024118,
0.03654,-2.645342591,0.03654,5.481454413,
0.03656,-2.279912297,0.03656,4.750593824,
0.03658,-2.279912297,0.03658,5.116024118,
0.0366,-3.741633473,0.0366,4.750593824,
0.03662,-4.107063768,0.03662,4.750593824,
0.03664,-3.741633473,0.03664,4.750593824,
0.03666,-4.837924356,0.03666,5.116024118,
0.03668,-4.837924356,0.03668,4.750593824,
0.0367,-4.107063768,0.0367,5.481454413,
0.03672,-3.376203179,0.03672,5.116024118,
0.03674,-4.107063768,0.03674,3.654302942,
0.03676,-3.741633473,0.03676,5.116024118,
0.03678,-4.107063768,0.03678,4.38516353,
0.0368,-3.376203179,0.0368,4.38516353,
0.03682,-2.645342591,0.03682,5.116024118,
0.03684,-2.645342591,0.03684,5.481454413,
0.03686,-3.741633473,0.03686,4.38516353,
0.03688,1.739820939,0.03688,5.116024118,
0.0369,-0.4527608259,0.0369,5.116024118,
0.03692,-0.0873305317,0.03692,4.019733236,
0.03694,-0.81819112,0.03694,5.481454413,
0.03696,-0.0873305317,0.03696,4.750593824,
0.03698,0.6435300566,0.03698,3.654302942,
0.037,0.2780997625,0.037,5.116024118,
0.03702,0.2780997625,0.03702,4.38516353,
0.03704,1.739820939,0.03704,3.654302942,
0.03706,2.105251233,0.03706,5.481454413,
0.03708,2.836111822,0.03708,4.38516353,
0.0371,3.201542116,0.0371,4.38516353,
0.03712,4.297832998,0.03712,5.481454413,
0.03714,3.932402704,0.03714,5.481454413,
0.03716,3.932402704,0.03716,5.116024118,
0.03718,6.124984469,0.03718,5.481454413,
0.0372,3.56697241,0.0372,4.750593824,
0.03722,3.932402704,0.03722,5.846884707,
0.03724,5.759554175,0.03724,6.212315001,
0.03726,3.932402704,0.03726,5.116024118,
0.03728,3.201542116,0.03728,4.750593824,
0.0373,2.836111822,0.0373,5.116024118,
0.03732,1.374390645,0.03732,4.750593824,
0.03734,2.105251233,0.03734,4.38516353,
0.03736,1.374390645,0.03736,5.116024118,
0.03738,-0.4527608259,0.03738,4.750593824,
0.0374,0.6435300566,0.0374,4.750593824,
0.03742,0.2780997625,0.03742,4.750593824,
0.03744,0.2780997625,0.03744,4.019733236,
0.03746,-0.4527608259,0.03746,4.750593824,
0.03748,-0.81819112,0.03748,5.116024118,
0.0375,-3.010772885,0.0375,4.750593824,
0.03752,-3.010772885,0.03752,4.750593824,
0.03754,-3.010772885,0.03754,5.481454413,
0.03756,-3.376203179,0.03756,4.750593824,
0.03758,-3.010772885,0.03758,4.750593824,
0.0376,-3.010772885,0.0376,4.750593824,
0.03762,-4.107063768,0.03762,4.750593824,
0.03764,-1.914482003,0.03764,5.116024118,
0.03766,-3.376203179,0.03766,5.116024118,
0.03768,-3.741633473,0.03768,4.750593824,
0.0377,-3.741633473,0.0377,5.481454413,
0.03772,-3.376203179,0.03772,5.116024118,
0.03774,-3.741633473,0.03774,4.019733236,
0.03776,-4.472494062,0.03776,4.750593824,
0.03778,-3.741633473,0.03778,5.116024118,
0.0378,-1.914482003,0.0378,5.116024118,
0.03782,1.008960351,0.03782,4.750593824,
0.03784,-1.549051708,0.03784,3.654302942,
0.03786,-1.183621414,0.03786,4.750593824,
0.03788,0.2780997625,0.03788,4.750593824,
0.0379,1.008960351,0.0379,4.750593824,
0.03792,1.008960351,0.03792,5.116024118,
0.03794,1.739820939,0.03794,5.481454413,
0.03796,2.836111822,0.03796,4.750593824,
0.03798,2.836111822,0.03798,4.750593824,
0.038,4.297832998,0.038,4.750593824,
0.03802,3.56697241,0.03802,5.116024118,
0.03804,3.201542116,0.03804,4.750593824,
0.03806,5.394123881,0.03806,4.750593824,
0.03808,4.297832998,0.03808,5.116024118,
0.0381,4.297832998,0.0381,4.750593824,
0.03812,5.394123881,0.03812,4.38516353,
0.03814,4.663263293,0.03814,4.750593824,
0.03816,4.297832998,0.03816,4.750593824,
0.03818,4.297832998,0.03818,4.750593824,
0.0382,4.297832998,0.0382,5.116024118,
0.03822,3.201542116,0.03822,4.38516353,
0.03824,3.56697241,0.03824,4.38516353,
0.03826,1.374390645,0.03826,5.116024118,
0.03828,2.105251233,0.03828,4.750593824,
0.0383,2.836111822,0.0383,4.750593824,
0.03832,1.374390645,0.03832,4.750593824,
0.03834,0.2780997625,0.03834,5.116024118,
0.03836,1.739820939,0.03836,5.116024118,
0.03838,-0.81819112,0.03838,5.116024118,
0.0384,-2.279912297,0.0384,5.116024118,
0.03842,-0.4527608259,0.03842,4.750593824,
0.03844,-3.376203179,0.03844,4.750593824,
0.03846,-3.741633473,0.03846,5.116024118,
0.03848,-3.010772885,0.03848,4.750593824,
0.0385,-2.645342591,0.0385,5.846884707,
0.03852,-4.107063768,0.03852,5.116024118,
0.03854,-3.376203179,0.03854,5.116024118,
0.03856,-2.645342591,0.03856,4.750593824,
0.03858,-4.472494062,0.03858,4.750593824,
0.0386,-3.741633473,0.0386,5.116024118,
0.03862,-5.568784944,0.03862,4.750593824,
0.03864,-4.837924356,0.03864,4.750593824,
0.03866,-1.183621414,0.03866,4.750593824,
0.03868,-3.376203179,0.03868,4.750593824,
0.0387,-3.376203179,0.0387,4.750593824,
0.03872,-2.279912297,0.03872,4.750593824,
0.03874,-0.4527608259,0.03874,4.750593824,
0.03876,-1.914482003,0.03876,5.116024118,
0.03878,-1.183621414,0.03878,4.38516353,
0.0388,0.6435300566,0.0388,5.116024118,
0.03882,0.6435300566,0.03882,4.750593824,
0.03884,1.008960351,0.03884,4.750593824,
0.03886,0.6435300566,0.03886,4.750593824,
0.03888,1.008960351,0.03888,4.750593824,
0.0389,2.105251233,0.0389,4.750593824,
0.03892,3.201542116,0.03892,4.750593824,
0.03894,2.470681527,0.03894,5.116024118,
0.03896,1.008960351,0.03896,4.750593824,
0.03898,4.663263293,0.03898,5.481454413,
0.039,3.932402704,0.039,5.116024118,
0.03902,4.297832998,0.03902,4.750593824,
0.03904,4.663263293,0.03904,5.116024118,
0.03906,5.028693587,0.03906,5.116024118,
0.03908,5.028693587,0.03908,4.750593824,
0.0391,4.297832998,0.0391,4.750593824,
0.03912,4.297832998,0.03912,5.116024118,
0.03914,3.932402704,0.03914,4.750593824,
0.03916,3.932402704,0.03916,5.481454413,
0.03918,3.201542116,0.03918,5.116024118,
0.0392,2.470681527,0.0392,4.38516353,
0.03922,2.105251233,0.03922,4.38516353,
0.03924,1.739820939,0.03924,4.750593824,
0.03926,0.6435300566,0.03926,5.116024118,
0.03928,-0.0873305317,0.03928,4.750593824,
0.0393,1.374390645,0.0393,5.116024118,
0.03932,-3.741633473,0.03932,5.116024118,
0.03934,1.008960351,0.03934,4.750593824,
0.03936,-3.010772885,0.03936,4.750593824,
0.03938,-0.4527608259,0.03938,4.750593824,
0.0394,-3.376203179,0.0394,4.750593824,
0.03942,-1.183621414,0.03942,4.750593824,
0.03944,-2.279912297,0.03944,4.750593824,
0.03946,-5.20335465,0.03946,4.019733236,
0.03948,-3.010772885,0.03948,4.750593824,
0.0395,-3.376203179,0.0395,5.116024118,
0.03952,-4.472494062,0.03952,4.38516353,
0.03954,-4.107063768,0.03954,4.750593824,
0.03956,-5.568784944,0.03956,4.750593824,
0.03958,-4.837924356,0.03958,4.38516353,
0.0396,-3.376203179,0.0396,4.750593824,
0.03962,-4.107063768,0.03962,5.116024118,
0.03964,-2.279912297,0.03964,4.38516353,
0.03966,-0.4527608259,0.03966,4.750593824,
0.03968,-3.376203179,0.03968,4.750593824,
0.0397,0.2780997625,0.0397,4.750593824,
0.03972,-1.183621414,0.03972,4.750593824,
0.03974,0.2780997625,0.03974,4.38516353,
0.03976,-0.4527608259,0.03976,4.750593824,
0.03978,0.6435300566,0.03978,4.019733236,
0.0398,0.6435300566,0.0398,4.38516353,
0.03982,1.374390645,0.03982,4.750593824,
0.03984,1.739820939,0.03984,4.750593824,
0.03986,2.470681527,0.03986,4.38516353,
0.03988,2.470681527,0.03988,3.654302942,
0.0399,5.028693587,0.0399,4.750593824,
0.03992,4.297832998,0.03992,4.750593824,
0.03994,3.201542116,0.03994,4.38516353,
0.03996,3.932402704,0.03996,5.116024118,
0.03998,4.663263293,0.03998,4.38516353,
0.04,5.028693587,0.04,5.116024118,
0.04002,4.297832998,0.04002,5.116024118,
0.04004,3.56697241,0.04004,4.750593824,
0.04006,3.201542116,0.04006,5.116024118,
0.04008,3.201542116,0.04008,4.750593824,
0.0401,2.105251233,0.0401,4.750593824,
0.04012,3.201542116,0.04012,4.38516353,
0.04014,1.739820939,0.04014,4.750593824,
0.04016,3.56697241,0.04016,5.116024118,
0.04018,1.374390645,0.04018,4.750593824,
0.0402,1.008960351,0.0402,5.116024118,
0.04022,0.2780997625,0.04022,4.750593824,
0.04024,-0.81819112,0.04024,4.750593824,
0.04026,-1.183621414,0.04026,4.750593824,
0.04028,-0.81819112,0.04028,5.116024118,
0.0403,-2.279912297,0.0403,4.750593824,
0.04032,-1.549051708,0.04032,5.116024118,
0.04034,-3.010772885,0.04034,5.116024118,
0.04036,-3.376203179,0.04036,5.116024118,
0.04038,-1.914482003,0.04038,4.750593824,
0.0404,-4.837924356,0.0404,4.750593824,
0.04042,-4.472494062,0.04042,5.116024118,
0.04044,-4.107063768,0.04044,4.38516353,
0.04046,-6.665075827,0.04046,5.846884707,
0.04048,-3.741633473,0.04048,4.750593824,
0.0405,-4.837924356,0.0405,4.38516353,
0.04052,-4.107063768,0.04052,5.116024118,
0.04054,-4.837924356,0.04054,4.750593824,
0.04056,-4.107063768,0.04056,4.38516353,
0.04058,-2.279912297,0.04058,4.750593824,
0.0406,-3.010772885,0.0406,5.481454413,
0.04062,-1.549051708,0.04062,4.750593824,
0.04064,-1.549051708,0.04064,5.116024118,
0.04066,-1.183621414,0.04066,5.116024118,
0.04068,-0.0873305317,0.04068,4.38516353,
0.0407,0.6435300566,0.0407,5.116024118,
0.04072,-0.81819112,0.04072,5.116024118,
0.04074,1.374390645,0.04074,4.38516353,
0.04076,2.470681527,0.04076,5.481454413,
0.04078,0.6435300566,0.04078,4.750593824,
0.0408,3.932402704,0.0408,4.38516353,
0.04082,2.836111822,0.04082,5.116024118,
0.04084,3.56697241,0.04084,4.38516353,
0.04086,3.932402704,0.04086,3.654302942,
0.04088,4.297832998,0.04088,5.116024118,
0.0409,4.663263293,0.0409,4.38516353,
0.04092,7.221275352,0.04092,4.750593824,
0.04094,4.297832998,0.04094,4.750593824,
0.04096,3.56697241,0.04096,6.577745295,
0.04098,4.297832998,0.04098,4.750593824,
0.041,3.932402704,0.041,5.116024118,
0.04102,3.201542116,0.04102,4.750593824,
0.04104,2.105251233,0.04104,4.750593824,
0.04106,3.201542116,0.04106,5.116024118,
0.04108,1.008960351,0.04108,3.654302942,
0.0411,1.374390645,0.0411,5.116024118,
0.04112,1.008960351,0.04112,4.750593824,
0.04114,-1.183621414,0.04114,4.750593824,
0.04116,0.6435300566,0.04116,3.288872648,
0.04118,-0.0873305317,0.04118,5.116024118,
0.0412,-1.183621414,0.0412,4.750593824,
0.04122,-1.183621414,0.04122,4.38516353,
0.04124,-1.914482003,0.04124,5.116024118,
0.04126,-3.376203179,0.04126,5.481454413,
0.04128,-3.010772885,0.04128,4.019733236,
0.0413,-3.376203179,0.0413,5.116024118,
0.04132,-4.107063768,0.04132,4.38516353,
0.04134,-3.741633473,0.04134,4.019733236,
0.04136,-5.20335465,0.04136,6.212315001,
0.04138,-5.934215238,0.04138,4.750593824,
0.0414,-7.395936415,0.0414,4.38516353,
0.04142,-4.472494062,0.04142,5.116024118,
0.04144,-4.472494062,0.04144,4.019733236,
0.04146,-4.472494062,0.04146,4.019733236,
0.04148,-1.549051708,0.04148,5.481454413,
0.0415,-2.645342591,0.0415,4.750593824,
0.04152,-3.376203179,0.04152,4.38516353,
0.04154,-2.279912297,0.04154,4.750593824,
0.04156,-1.549051708,0.04156,5.846884707,
0.04158,-1.183621414,0.04158,4.750593824,
0.0416,-0.4527608259,0.0416,4.38516353,
0.04162,0.2780997625,0.04162,4.750593824,
0.04164,1.374390645,0.04164,4.750593824,
0.04166,0.2780997625,0.04166,4.38516353,
0.04168,1.008960351,0.04168,4.38516353,
0.0417,1.739820939,0.0417,4.750593824,
0.04172,2.105251233,0.04172,5.116024118,
0.04174,4.663263293,0.04174,4.750593824,
0.04176,3.201542116,0.04176,4.38516353,
0.04178,4.297832998,0.04178,5.116024118,
0.0418,3.56697241,0.0418,5.116024118,
0.04182,3.201542116,0.04182,5.116024118,
0.04184,3.201542116,0.04184,5.481454413,
0.04186,3.56697241,0.04186,5.481454413,
0.04188,3.201542116,0.04188,4.38516353,
0.0419,5.759554175,0.0419,5.481454413,
0.04192,3.932402704,0.04192,4.750593824,
0.04194,4.297832998,0.04194,4.750593824,
0.04196,3.56697241,0.04196,5.481454413,
0.04198,1.739820939,0.04198,4.750593824,
0.042,2.470681527,0.042,4.38516353,
0.04202,1.374390645,0.04202,5.481454413,
0.04204,0.6435300566,0.04204,5.116024118,
0.04206,0.2780997625,0.04206,4.019733236,
0.04208,0.2780997625,0.04208,5.116024118,
0.0421,-1.914482003,0.0421,4.38516353,
0.04212,-0.81819112,0.04212,4.750593824,
0.04214,-0.81819112,0.04214,4.750593824,
0.04216,-1.914482003,0.04216,4.750593824,
0.04218,-3.010772885,0.04218,4.750593824,
0.0422,-3.010772885,0.0422,5.481454413,
0.04222,-3.741633473,0.04222,4.750593824,
0.04224,-5.20335465,0.04224,4.38516353,
0.04226,-4.472494062,0.04226,5.116024118,
0.04228,-5.568784944,0.04228,4.38516353,
0.0423,-3.741633473,0.0423,5.116024118,
0.04232,-4.837924356,0.04232,5.116024118,
0.04234,-4.107063768,0.04234,5.116024118,
0.04236,-3.741633473,0.04236,4.750593824,
0.04238,-3.741633473,0.04238,5.846884707,
0.0424,-4.472494062,0.0424,4.38516353,
0.04242,-4.837924356,0.04242,4.750593824,
0.04244,-1.183621414,0.04244,5.116024118,
0.04246,-3.010772885,0.04246,4.750593824,
0.04248,-1.914482003,0.04248,5.116024118,
0.0425,-1.183621414,0.0425,5.116024118,
0.04252,-1.549051708,0.04252,5.116024118,
0.04254,-0.4527608259,0.04254,4.750593824,
0.04256,0.6435300566,0.04256,5.481454413,
0.04258,0.2780997625,0.04258,4.750593824,
0.0426,0.6435300566,0.0426,4.750593824,
0.04262,2.105251233,0.04262,5.116024118,
0.04264,0.2780997625,0.04264,5.116024118,
0.04266,2.470681527,0.04266,4.38516353,
0.04268,3.201542116,0.04268,5.481454413,
0.0427,2.836111822,0.0427,4.750593824,
0.04272,3.56697241,0.04272,4.750593824,
0.04274,3.932402704,0.04274,5.116024118,
0.04276,3.201542116,0.04276,5.116024118,
0.04278,3.201542116,0.04278,4.38516353,
0.0428,4.297832998,0.0428,5.116024118,
0.04282,3.201542116,0.04282,4.38516353,
0.04284,1.739820939,0.04284,4.750593824,
0.04286,3.56697241,0.04286,5.481454413,
0.04288,2.836111822,0.04288,4.750593824,
0.0429,3.201542116,0.0429,4.38516353,
0.04292,2.836111822,0.04292,5.116024118,
0.04294,1.374390645,0.04294,4.750593824,
0.04296,2.105251233,0.04296,4.750593824,
0.04298,1.008960351,0.04298,5.481454413,
0.043,-0.0873305317,0.043,4.750593824,
0.04302,-0.0873305317,0.04302,4.750593824,
0.04304,-0.4527608259,0.04304,5.116024118,
0.04306,-2.645342591,0.04306,4.750593824,
0.04308,-1.914482003,0.04308,4.750593824,
0.0431,-3.376203179,0.0431,4.750593824,
0.04312,-3.010772885,0.04312,5.116024118,
0.04314,-2.645342591,0.04314,4.750593824,
0.04316,-3.376203179,0.04316,4.750593824,
0.04318,-4.107063768,0.04318,5.116024118,
0.0432,-3.741633473,0.0432,4.38516353,
0.04322,-4.107063768,0.04322,5.116024118,
0.04324,-4.837924356,0.04324,5.116024118,
0.04326,-4.107063768,0.04326,4.750593824,
0.04328,-6.299645533,0.04328,5.116024118,
0.0433,-4.107063768,0.0433,5.116024118,
0.04332,-3.376203179,0.04332,4.750593824,
0.04334,-3.376203179,0.04334,5.116024118,
0.04336,-3.376203179,0.04336,5.116024118,
0.04338,-2.645342591,0.04338,4.750593824,
0.0434,-2.645342591,0.0434,4.750593824,
0.04342,-2.279912297,0.04342,5.116024118,
0.04344,-0.81819112,0.04344,4.750593824,
0.04346,-0.81819112,0.04346,5.116024118,
0.04348,-0.0873305317,0.04348,5.116024118,
0.0435,-0.0873305317,0.0435,4.750593824,
0.04352,1.008960351,0.04352,5.116024118,
0.04354,1.374390645,0.04354,5.116024118,
0.04356,2.105251233,0.04356,4.750593824,
0.04358,2.105251233,0.04358,5.846884707,
0.0436,3.201542116,0.0436,4.750593824,
0.04362,1.739820939,0.04362,4.38516353,
0.04364,3.56697241,0.04364,4.750593824,
0.04366,2.836111822,0.04366,5.846884707,
0.04368,3.932402704,0.04368,5.116024118,
0.0437,5.028693587,0.0437,5.116024118,
0.04372,4.297832998,0.04372,4.750593824,
0.04374,4.297832998,0.04374,4.750593824,
0.04376,5.028693587,0.04376,5.116024118,
0.04378,2.836111822,0.04378,4.38516353,
0.0438,4.297832998,0.0438,4.750593824,
0.04382,3.56697241,0.04382,4.750593824,
0.04384,2.470681527,0.04384,5.116024118,
0.04386,2.836111822,0.04386,5.116024118,
0.04388,2.470681527,0.04388,5.481454413,
0.0439,2.470681527,0.0439,4.750593824,
0.04392,1.008960351,0.04392,4.750593824,
0.04394,-0.0873305317,0.04394,5.116024118,
0.04396,0.6435300566,0.04396,5.116024118,
0.04398,0.2780997625,0.04398,5.116024118,
0.044,-0.4527608259,0.044,5.116024118,
0.04402,-2.279912297,0.04402,5.116024118,
0.04404,-3.376203179,0.04404,4.750593824,
0.04406,-3.010772885,0.04406,4.38516353,
0.04408,-3.741633473,0.04408,4.019733236,
0.0441,-3.376203179,0.0441,4.750593824,
0.04412,-3.376203179,0.04412,5.116024118,
0.04414,-4.107063768,0.04414,4.750593824,
0.04416,-4.107063768,0.04416,4.750593824,
0.04418,-3.741633473,0.04418,4.019733236,
0.0442,-4.472494062,0.0442,5.116024118,
0.04422,-3.741633473,0.04422,4.750593824,
0.04424,-4.472494062,0.04424,5.116024118,
0.04426,-3.741633473,0.04426,5.481454413,
0.04428,-3.376203179,0.04428,5.846884707,
0.0443,-3.376203179,0.0443,5.481454413,
0.04432,-3.010772885,0.04432,5.116024118,
0.04434,-3.376203179,0.04434,5.116024118,
0.04436,-1.183621414,0.04436,5.116024118,
0.04438,-0.81819112,0.04438,5.481454413,
0.0444,-0.81819112,0.0444,4.750593824,
0.04442,0.2780997625,0.04442,5.116024118,
0.04444,0.2780997625,0.04444,4.750593824,
0.04446,1.008960351,0.04446,4.750593824,
0.04448,1.739820939,0.04448,4.019733236,
0.0445,2.836111822,0.0445,4.750593824,
0.04452,2.470681527,0.04452,4.750593824,
0.04454,3.932402704,0.04454,4.750593824,
0.04456,2.105251233,0.04456,4.38516353,
0.04458,2.470681527,0.04458,4.38516353,
0.0446,4.297832998,0.0446,5.116024118,
0.04462,3.56697241,0.04462,4.750593824,
0.04464,3.932402704,0.04464,4.750593824,
0.04466,5.028693587,0.04466,4.750593824,
0.04468,3.201542116,0.04468,5.846884707,
0.0447,2.836111822,0.0447,4.750593824,
0.04472,4.297832998,0.04472,5.116024118,
0.04474,3.201542116,0.04474,5.116024118,
0.04476,2.836111822,0.04476,4.38516353,
0.04478,3.201542116,0.04478,4.750593824,
0.0448,2.105251233,0.0448,5.481454413,
0.04482,2.470681527,0.04482,4.019733236,
0.04484,1.739820939,0.04484,5.116024118,
0.04486,-0.0873305317,0.04486,5.116024118,
0.04488,0.2780997625,0.04488,3.654302942,
0.0449,-1.549051708,0.0449,4.750593824,
0.04492,-0.81819112,0.04492,4.019733236,
0.04494,-1.549051708,0.04494,5.116024118,
0.04496,-2.645342591,0.04496,4.019733236,
0.04498,-2.645342591,0.04498,5.116024118,
0.045,-3.741633473,0.045,4.38516353,
0.04502,-2.645342591,0.04502,4.38516353,
0.04504,-3.010772885,0.04504,5.116024118,
0.04506,-3.376203179,0.04506,4.750593824,
0.04508,-4.472494062,0.04508,4.38516353,
0.0451,-2.279912297,0.0451,4.019733236,
0.04512,-5.20335465,0.04512,4.750593824,
0.04514,-4.107063768,0.04514,4.750593824,
0.04516,-3.741633473,0.04516,4.38516353,
0.04518,-3.741633473,0.04518,4.38516353,
0.0452,-3.376203179,0.0452,4.750593824,
0.04522,-3.376203179,0.04522,5.116024118,
0.04524,-3.010772885,0.04524,4.750593824,
0.04526,-1.549051708,0.04526,4.750593824,
0.04528,-2.279912297,0.04528,4.019733236,
0.0453,-1.914482003,0.0453,4.750593824,
0.04532,-1.183621414,0.04532,4.750593824,
0.04534,-0.81819112,0.04534,4.750593824,
0.04536,-0.81819112,0.04536,4.38516353,
0.04538,1.008960351,0.04538,3.654302942,
0.0454,0.6435300566,0.0454,4.750593824,
0.04542,2.105251233,0.04542,4.750593824,
0.04544,1.374390645,0.04544,4.38516353,
0.04546,1.739820939,0.04546,4.750593824,
0.04548,2.836111822,0.04548,5.481454413,
0.0455,4.663263293,0.0455,4.750593824,
0.04552,3.932402704,0.04552,5.116024118,
0.04554,3.932402704,0.04554,5.116024118,
0.04556,4.297832998,0.04556,4.38516353,
0.04558,3.56697241,0.04558,5.116024118,
0.0456,3.932402704,0.0456,5.116024118,
0.04562,4.297832998,0.04562,4.750593824,
0.04564,4.297832998,0.04564,5.116024118,
0.04566,3.201542116,0.04566,4.750593824,
0.04568,3.56697241,0.04568,4.750593824,
0.0457,3.56697241,0.0457,5.481454413,
0.04572,2.836111822,0.04572,5.846884707,
0.04574,-0.4527608259,0.04574,4.38516353,
0.04576,2.470681527,0.04576,4.750593824,
0.04578,1.374390645,0.04578,5.116024118,
0.0458,1.374390645,0.0458,4.750593824,
0.04582,0.2780997625,0.04582,5.481454413,
0.04584,-1.549051708,0.04584,4.750593824,
0.04586,-2.279912297,0.04586,4.38516353,
0.04588,-1.183621414,0.04588,5.116024118,
0.0459,-4.472494062,0.0459,4.750593824,
0.04592,-2.645342591,0.04592,4.750593824,
0.04594,-3.010772885,0.04594,5.116024118,
0.04596,-3.376203179,0.04596,4.750593824,
0.04598,-3.010772885,0.04598,5.116024118,
0.046,-4.472494062,0.046,4.750593824,
0.04602,-4.107063768,0.04602,4.750593824,
0.04604,-5.20335465,0.04604,5.116024118,
0.04606,-4.107063768,0.04606,4.750593824,
0.04608,-4.107063768,0.04608,5.116024118,
0.0461,-4.472494062,0.0461,4.019733236,
0.04612,-4.837924356,0.04612,4.38516353,
0.04614,-3.741633473,0.04614,5.116024118,
0.04616,-3.376203179,0.04616,5.116024118,
0.04618,-1.914482003,0.04618,4.750593824,
0.0462,-0.0873305317,0.0462,4.750593824,
0.04622,-2.645342591,0.04622,5.116024118,
0.04624,-0.81819112,0.04624,5.116024118,
0.04626,-0.0873305317,0.04626,4.750593824,
0.04628,0.2780997625,0.04628,4.750593824,
0.0463,-0.4527608259,0.0463,5.116024118,
0.04632,1.374390645,0.04632,4.38516353,
0.04634,1.374390645,0.04634,5.116024118,
0.04636,2.105251233,0.04636,4.750593824,
0.04638,2.470681527,0.04638,4.750593824,
0.0464,1.374390645,0.0464,5.116024118,
0.04642,2.105251233,0.04642,5.116024118,
0.04644,1.739820939,0.04644,4.750593824,
0.04646,3.201542116,0.04646,5.481454413,
0.04648,3.201542116,0.04648,5.116024118,
0.0465,4.663263293,0.0465,4.750593824,
0.04652,4.297832998,0.04652,5.481454413,
0.04654,3.56697241,0.04654,4.750593824,
0.04656,4.663263293,0.04656,4.750593824,
0.04658,3.56697241,0.04658,5.116024118,
0.0466,3.56697241,0.0466,5.116024118,
0.04662,3.56697241,0.04662,5.116024118,
0.04664,2.836111822,0.04664,5.116024118,
0.04666,1.739820939,0.04666,4.750593824,
0.04668,1.739820939,0.04668,4.750593824,
0.0467,2.105251233,0.0467,5.116024118,
0.04672,-0.81819112,0.04672,4.750593824,
0.04674,0.6435300566,0.04674,5.116024118,
0.04676,-0.4527608259,0.04676,5.116024118,
0.04678,-0.81819112,0.04678,5.116024118,
0.0468,1.739820939,0.0468,4.750593824,
0.04682,-1.549051708,0.04682,5.481454413,
0.04684,-3.010772885,0.04684,5.116024118,
0.04686,-1.914482003,0.04686,5.481454413,
0.04688,-3.010772885,0.04688,5.116024118,
0.0469,-4.837924356,0.0469,5.116024118,
0.04692,-1.914482003,0.04692,4.38516353,
0.04694,-4.107063768,0.04694,4.750593824,
0.04696,-4.107063768,0.04696,5.481454413,
0.04698,-4.472494062,0.04698,4.750593824,
0.047,-4.837924356,0.047,4.750593824,
0.04702,-4.472494062,0.04702,4.750593824,
0.04704,-3.741633473,0.04704,4.750593824,
0.04706,-4.107063768,0.04706,5.116024118,
0.04708,-4.107063768,0.04708,4.750593824,
0.0471,-2.279912297,0.0471,4.38516353,
0.04712,-2.279912297,0.04712,5.116024118,
0.04714,-4.837924356,0.04714,5.116024118,
0.04716,-1.549051708,0.04716,4.750593824,
0.04718,-0.81819112,0.04718,4.750593824,
0.0472,0.6435300566,0.0472,4.38516353,
0.04722,1.374390645,0.04722,4.750593824,
0.04724,1.374390645,0.04724,5.116024118,
0.04726,2.105251233,0.04726,5.116024118,
0.04728,3.56697241,0.04728,5.116024118,
0.0473,2.105251233,0.0473,5.116024118,
0.04732,2.470681527,0.04732,5.116024118,
0.04734,3.56697241,0.04734,4.750593824,
0.04736,2.470681527,0.04736,5.116024118,
0.04738,4.297832998,0.04738,4.750593824,
0.0474,3.56697241,0.0474,4.750593824,
0.04742,6.124984469,0.04742,4.750593824,
0.04744,3.201542116,0.04744,4.750593824,
0.04746,5.028693587,0.04746,4.750593824,
0.04748,5.028693587,0.04748,4.019733236,
0.0475,3.932402704,0.0475,4.019733236,
0.04752,4.297832998,0.04752,5.116024118,
0.04754,4.297832998,0.04754,5.116024118,
0.04756,3.932402704,0.04756,4.750593824,
0.04758,3.201542116,0.04758,4.750593824,
0.0476,4.297832998,0.0476,4.750593824,
0.04762,1.739820939,0.04762,4.750593824,
0.04764,1.008960351,0.04764,4.38516353,
0.04766,0.2780997625,0.04766,4.750593824,
0.04768,-1.183621414,0.04768,4.750593824,
0.0477,-0.0873305317,0.0477,5.481454413,
0.04772,-1.183621414,0.04772,4.750593824,
0.04774,-1.914482003,0.04774,4.750593824,
0.04776,-1.914482003,0.04776,4.38516353,
0.04778,-0.4527608259,0.04778,4.38516353,
0.0478,-3.376203179,0.0478,4.750593824,
0.04782,-2.279912297,0.04782,4.750593824,
0.04784,-3.010772885,0.04784,4.38516353,
0.04786,-3.741633473,0.04786,4.38516353,
0.04788,-1.183621414,0.04788,4.750593824,
0.0479,-3.376203179,0.0479,2.923442353,
0.04792,-5.20335465,0.04792,4.38516353,
0.04794,-2.279912297,0.04794,4.750593824,
0.04796,-3.741633473,0.04796,4.750593824,
0.04798,-4.472494062,0.04798,4.38516353,
0.048,-2.645342591,0.048,3.654302942,
0.04802,-4.472494062,0.04802,4.750593824,
0.04804,-1.914482003,0.04804,4.019733236,
0.04806,-1.914482003,0.04806,4.750593824,
0.04808,-1.549051708,0.04808,5.116024118,
0.0481,-3.010772885,0.0481,2.923442353,
0.04812,0.2780997625,0.04812,4.750593824,
0.04814,-0.0873305317,0.04814,4.750593824,
0.04816,-0.4527608259,0.04816,4.019733236,
0.04818,0.6435300566,0.04818,5.116024118,
0.0482,1.374390645,0.0482,5.846884707,
0.04822,1.739820939,0.04822,4.019733236,
0.04824,3.201542116,0.04824,4.750593824,
0.04826,2.836111822,0.04826,4.750593824,
0.04828,1.739820939,0.04828,4.750593824,
0.0483,5.028693587,0.0483,6.212315001,
0.04832,4.663263293,0.04832,4.38516353,
0.04834,4.297832998,0.04834,4.38516353,
0.04836,5.759554175,0.04836,4.38516353,
0.04838,4.297832998,0.04838,4.38516353,
0.0484,4.663263293,0.0484,3.288872648,
0.04842,3.932402704,0.04842,4.38516353,
0.04844,3.56697241,0.04844,5.116024118,
0.04846,2.470681527,0.04846,4.38516353,
0.04848,4.297832998,0.04848,4.019733236,
0.0485,3.201542116,0.0485,3.288872648,
0.04852,2.470681527,0.04852,5.116024118,
0.04854,2.836111822,0.04854,4.750593824,
0.04856,0.2780997625,0.04856,4.750593824,
0.04858,1.008960351,0.04858,4.019733236,
0.0486,4.297832998,0.0486,4.019733236,
0.04862,1.008960351,0.04862,5.116024118,
0.04864,-0.4527608259,0.04864,4.38516353,
0.04866,-0.4527608259,0.04866,4.38516353,
0.04868,-1.183621414,0.04868,4.750593824,
0.0487,-2.645342591,0.0487,5.481454413,
0.04872,-3.376203179,0.04872,4.38516353,
0.04874,-3.376203179,0.04874,5.116024118,
0.04876,-5.934215238,0.04876,4.019733236,
0.04878,-4.107063768,0.04878,4.019733236,
0.0488,-3.010772885,0.0488,3.288872648,
0.04882,-4.837924356,0.04882,4.38516353,
0.04884,-4.107063768,0.04884,4.750593824,
0.04886,-3.010772885,0.04886,4.38516353,
0.04888,-4.107063768,0.04888,4.38516353,
0.0489,-3.741633473,0.0489,3.654302942,
0.04892,-3.010772885,0.04892,4.750593824,
0.04894,-4.472494062,0.04894,4.38516353,
0.04896,-0.81819112,0.04896,4.38516353,
0.04898,-0.0873305317,0.04898,4.750593824,
0.049,-1.914482003,0.049,5.116024118,
0.04902,-1.549051708,0.04902,4.750593824,
0.04904,1.008960351,0.04904,4.750593824,
0.04906,-0.0873305317,0.04906,4.019733236,
0.04908,-1.914482003,0.04908,4.38516353,
0.0491,1.374390645,0.0491,5.846884707,
0.04912,0.6435300566,0.04912,4.38516353,
0.04914,2.105251233,0.04914,4.38516353,
0.04916,2.836111822,0.04916,5.116024118,
0.04918,1.374390645,0.04918,4.38516353,
0.0492,3.201542116,0.0492,4.38516353,
0.04922,2.836111822,0.04922,4.38516353,
0.04924,3.56697241,0.04924,4.750593824,
0.04926,5.759554175,0.04926,4.750593824,
0.04928,3.56697241,0.04928,4.750593824,
0.0493,3.932402704,0.0493,4.38516353,
0.04932,4.297832998,0.04932,4.38516353,
0.04934,4.663263293,0.04934,4.750593824,
0.04936,3.932402704,0.04936,4.38516353,
0.04938,3.56697241,0.04938,4.750593824,
0.0494,4.663263293,0.0494,5.116024118,
0.04942,2.836111822,0.04942,4.38516353,
0.04944,5.394123881,0.04944,4.750593824,
0.04946,2.836111822,0.04946,4.750593824,
0.04948,2.470681527,0.04948,4.750593824,
0.0495,1.739820939,0.0495,5.481454413,
0.04952,0.6435300566,0.04952,4.38516353,
0.04954,0.2780997625,0.04954,4.38516353,
0.04956,0.2780997625,0.04956,5.116024118,
0.04958,-0.4527608259,0.04958,4.750593824,
0.0496,-0.4527608259,0.0496,3.654302942,
0.04962,-0.81819112,0.04962,4.750593824,
0.04964,-2.279912297,0.04964,4.750593824,
0.04966,-2.645342591,0.04966,5.481454413,
0.04968,-3.376203179,0.04968,5.116024118,
0.0497,-4.107063768,0.0497,4.019733236,
0.04972,-3.010772885,0.04972,5.116024118,
0.04974,-6.299645533,0.04974,4.38516353,
0.04976,-3.741633473,0.04976,4.750593824,
0.04978,-3.741633473,0.04978,5.116024118,
0.0498,-4.472494062,0.0498,4.750593824,
0.04982,-3.741633473,0.04982,4.750593824,
0.04984,-3.741633473,0.04984,5.116024118,
0.04986,-4.472494062,0.04986,4.38516353,
0.04988,-4.107063768,0.04988,4.38516353,
0.0499,-3.741633473,0.0499,5.116024118,
0.04992,-3.376203179,0.04992,4.750593824,
0.04994,-3.010772885,0.04994,4.38516353,
0.04996,-1.183621414,0.04996,5.116024118,
0.04998,-1.549051708,0.04998,4.750593824,
0.05,-0.81819112,0.05,4.750593824,
0.05002,-1.183621414,0.05002,5.846884707,
0.05004,0.2780997625,0.05004,4.019733236,
0.05006,1.008960351,0.05006,4.750593824,
0.05008,1.374390645,0.05008,4.750593824,
0.0501,2.105251233,0.0501,4.750593824,
0.05012,3.201542116,0.05012,4.750593824,
0.05014,2.836111822,0.05014,5.116024118,
0.05016,3.201542116,0.05016,4.750593824,
0.05018,3.932402704,0.05018,4.750593824,
0.0502,5.028693587,0.0502,4.750593824,
0.05022,3.932402704,0.05022,4.750593824,
0.05024,3.932402704,0.05024,5.116024118,
0.05026,3.56697241,0.05026,4.750593824,
0.05028,3.932402704,0.05028,4.750593824,
0.0503,4.663263293,0.0503,5.116024118,
0.05032,4.297832998,0.05032,4.750593824,
0.05034,3.932402704,0.05034,4.750593824,
0.05036,3.201542116,0.05036,5.481454413,
0.05038,-0.4527608259,0.05038,5.116024118,
0.0504,3.56697241,0.0504,4.750593824,
0.05042,2.470681527,0.05042,4.750593824,
0.05044,0.6435300566,0.05044,5.116024118,
0.05046,1.008960351,0.05046,5.116024118,
0.05048,1.374390645,0.05048,5.116024118,
0.0505,-0.4527608259,0.0505,4.750593824,
0.05052,-0.4527608259,0.05052,5.481454413,
0.05054,-2.279912297,0.05054,5.116024118,
0.05056,-2.279912297,0.05056,5.116024118,
0.05058,-3.010772885,0.05058,4.750593824,
0.0506,-3.376203179,0.0506,4.38516353,
0.05062,-3.010772885,0.05062,5.116024118,
0.05064,-4.107063768,0.05064,4.38516353,
0.05066,-4.107063768,0.05066,4.38516353,
0.05068,-3.376203179,0.05068,5.481454413,
0.0507,-4.107063768,0.0507,5.116024118,
0.05072,-5.20335465,0.05072,4.38516353,
0.05074,-3.010772885,0.05074,5.116024118,
0.05076,-4.837924356,0.05076,4.750593824,
0.05078,-3.741633473,0.05078,4.750593824,
0.0508,-4.472494062,0.0508,4.750593824,
0.05082,-0.81819112,0.05082,4.38516353,
0.05084,-3.741633473,0.05084,4.750593824,
0.05086,-2.645342591,0.05086,5.116024118,
0.05088,-0.81819112,0.05088,4.750593824,
0.0509,-1.914482003,0.0509,4.38516353,
0.05092,-0.81819112,0.05092,5.116024118,
0.05094,-0.4527608259,0.05094,4.750593824,
0.05096,-0.0873305317,0.05096,4.019733236,
0.05098,0.6435300566,0.05098,4.750593824,
0.051,0.2780997625,0.051,4.750593824,
0.05102,1.008960351,0.05102,4.38516353,
0.05104,2.105251233,0.05104,4.750593824,
0.05106,3.201542116,0.05106,4.750593824,
0.05108,3.932402704,0.05108,4.38516353,
0.0511,3.201542116,0.0511,5.116024118,
0.05112,3.932402704,0.05112,4.750593824,
0.05114,3.201542116,0.05114,4.38516353,
0.05116,3.56697241,0.05116,5.116024118,
0.05118,3.56697241,0.05118,4.750593824,
0.0512,5.028693587,0.0512,4.38516353,
0.05122,5.394123881,0.05122,5.116024118,
0.05124,3.932402704,0.05124,4.38516353,
0.05126,3.56697241,0.05126,4.38516353,
0.05128,3.201542116,0.05128,5.116024118,
0.0513,2.105251233,0.0513,4.38516353,
0.05132,2.470681527,0.05132,4.750593824,
0.05134,1.739820939,0.05134,5.846884707,
0.05136,-0.0873305317,0.05136,4.750593824,
0.05138,0.6435300566,0.05138,4.750593824,
0.0514,1.008960351,0.0514,5.481454413,
0.05142,-0.81819112,0.05142,5.116024118,
0.05144,-1.183621414,0.05144,4.750593824,
0.05146,-1.914482003,0.05146,4.750593824,
0.05148,-2.645342591,0.05148,4.750593824,
0.0515,-2.645342591,0.0515,4.750593824,
0.05152,-2.645342591,0.05152,5.116024118,
0.05154,-3.376203179,0.05154,5.116024118,
0.05156,-3.376203179,0.05156,4.38516353,
0.05158,-4.107063768,0.05158,5.116024118,
0.0516,-3.741633473,0.0516,4.750593824,
0.05162,-5.568784944,0.05162,4.38516353,
0.05164,-3.741633473,0.05164,4.38516353,
0.05166,-3.376203179,0.05166,4.750593824,
0.05168,-3.741633473,0.05168,5.116024118,
0.0517,-4.107063768,0.0517,4.750593824,
0.05172,-3.376203179,0.05172,4.019733236,
0.05174,-3.376203179,0.05174,5.116024118,
0.05176,-3.376203179,0.05176,4.750593824,
0.05178,-2.279912297,0.05178,4.38516353,
0.0518,-1.549051708,0.0518,5.116024118,
0.05182,-1.183621414,0.05182,4.38516353,
0.05184,-0.0873305317,0.05184,4.750593824,
0.05186,-0.0873305317,0.05186,5.481454413,
0.05188,-0.0873305317,0.05188,4.750593824,
0.0519,0.6435300566,0.0519,4.750593824,
0.05192,1.739820939,0.05192,5.846884707,
0.05194,-0.0873305317,0.05194,5.116024118,
0.05196,0.2780997625,0.05196,4.38516353,
0.05198,3.56697241,0.05198,5.116024118,
0.052,3.56697241,0.052,4.750593824,
0.05202,3.201542116,0.05202,4.019733236,
0.05204,3.201542116,0.05204,5.116024118,
0.05206,3.201542116,0.05206,5.116024118,
0.05208,5.028693587,0.05208,4.750593824,
0.0521,6.490414763,0.0521,5.116024118,
0.05212,3.932402704,0.05212,4.019733236,
0.05214,4.297832998,0.05214,4.750593824,
0.05216,4.297832998,0.05216,5.116024118,
0.05218,3.56697241,0.05218,5.116024118,
0.0522,2.836111822,0.0522,4.750593824,
0.05222,3.932402704,0.05222,6.577745295,
0.05224,2.105251233,0.05224,4.750593824,
0.05226,2.836111822,0.05226,4.38516353,
0.05228,2.470681527,0.05228,5.481454413,
0.0523,0.2780997625,0.0523,4.750593824,
0.05232,1.374390645,0.05232,5.846884707,
0.05234,0.6435300566,0.05234,4.750593824,
0.05236,-0.81819112,0.05236,4.750593824,
0.05238,-0.4527608259,0.05238,5.116024118,
0.0524,-1.549051708,0.0524,4.750593824,
0.05242,-2.645342591,0.05242,3.654302942,
0.05244,-1.914482003,0.05244,4.750593824,
0.05246,-3.376203179,0.05246,4.750593824,
0.05248,-3.010772885,0.05248,4.750593824,
0.0525,-3.010772885,0.0525,4.750593824,
0.05252,-4.472494062,0.05252,5.116024118,
0.05254,-4.107063768,0.05254,5.116024118,
0.05256,-3.010772885,0.05256,5.116024118,
0.05258,-4.472494062,0.05258,5.116024118,
0.0526,-2.279912297,0.0526,4.750593824,
0.05262,-4.107063768,0.05262,5.116024118,
0.05264,-4.472494062,0.05264,5.481454413,
0.05266,-4.107063768,0.05266,5.116024118,
0.05268,-3.376203179,0.05268,4.750593824,
0.0527,-2.279912297,0.0527,4.750593824,
0.05272,-3.376203179,0.05272,4.38516353,
0.05274,-2.279912297,0.05274,4.750593824,
0.05276,-1.549051708,0.05276,5.116024118,
0.05278,-1.914482003,0.05278,4.750593824,
0.0528,-0.81819112,0.0528,4.38516353,
0.05282,0.6435300566,0.05282,5.116024118,
0.05284,-1.914482003,0.05284,4.750593824,
0.05286,1.008960351,0.05286,4.38516353,
0.05288,2.105251233,0.05288,4.750593824,
0.0529,2.105251233,0.0529,4.750593824,
0.05292,2.470681527,0.05292,5.481454413,
0.05294,5.028693587,0.05294,5.116024118,
0.05296,3.56697241,0.05296,5.116024118,
0.05298,3.932402704,0.05298,4.750593824,
0.053,3.56697241,0.053,4.750593824,
0.05302,3.932402704,0.05302,4.38516353,
0.05304,3.932402704,0.05304,4.750593824,
0.05306,3.932402704,0.05306,5.116024118,
0.05308,3.201542116,0.05308,4.750593824,
0.0531,3.932402704,0.0531,5.116024118,
0.05312,3.932402704,0.05312,5.481454413,
0.05314,1.008960351,0.05314,4.750593824,
0.05316,3.201542116,0.05316,4.750593824,
0.05318,3.56697241,0.05318,5.116024118,
0.0532,1.739820939,0.0532,5.481454413,
0.05322,1.739820939,0.05322,5.116024118,
0.05324,1.374390645,0.05324,5.481454413,
0.05326,-0.81819112,0.05326,4.750593824,
0.05328,-0.0873305317,0.05328,4.38516353,
0.0533,-0.0873305317,0.0533,4.750593824,
0.05332,-1.549051708,0.05332,5.116024118,
0.05334,-0.4527608259,0.05334,4.750593824,
0.05336,-2.279912297,0.05336,4.750593824,
0.05338,-2.645342591,0.05338,4.750593824,
0.0534,-2.645342591,0.0534,4.750593824,
0.05342,-3.741633473,0.05342,5.116024118,
0.05344,-2.645342591,0.05344,4.750593824,
0.05346,-5.568784944,0.05346,4.750593824,
0.05348,-3.010772885,0.05348,4.38516353,
0.0535,-4.107063768,0.0535,4.750593824,
0.05352,-3.010772885,0.05352,4.38516353,
0.05354,-5.568784944,0.05354,4.019733236,
0.05356,-3.741633473,0.05356,4.750593824,
0.05358,-3.010772885,0.05358,4.750593824,
0.0536,-5.568784944,0.0536,4.750593824,
0.05362,-4.107063768,0.05362,4.38516353,
0.05364,-3.741633473,0.05364,5.116024118,
0.05366,-2.645342591,0.05366,4.750593824,
0.05368,-1.183621414,0.05368,4.750593824,
0.0537,-1.914482003,0.0537,4.38516353,
0.05372,-0.81819112,0.05372,4.38516353,
0.05374,1.008960351,0.05374,4.750593824,
0.05376,0.2780997625,0.05376,4.750593824,
0.05378,1.008960351,0.05378,4.38516353,
0.0538,1.739820939,0.0538,4.019733236,
0.05382,2.470681527,0.05382,4.750593824,
0.05384,4.663263293,0.05384,4.019733236,
0.05386,2.470681527,0.05386,4.750593824,
0.05388,3.56697241,0.05388,4.38516353,
0.0539,3.932402704,0.0539,4.750593824,
0.05392,3.56697241,0.05392,4.38516353,
0.05394,2.836111822,0.05394,4.38516353,
0.05396,5.028693587,0.05396,4.38516353,
0.05398,4.297832998,0.05398,5.116024118,
0.054,4.663263293,0.054,4.38516353,
0.05402,4.297832998,0.05402,5.116024118,
0.05404,2.836111822,0.05404,5.481454413,
0.05406,6.855845058,0.05406,4.750593824,
0.05408,3.56697241,0.05408,4.38516353,
0.0541,3.201542116,0.0541,5.116024118,
0.05412,2.470681527,0.05412,4.750593824,
0.05414,1.374390645,0.05414,4.019733236,
0.05416,1.739820939,0.05416,5.116024118,
0.05418,1.374390645,0.05418,4.750593824,
0.0542,0.6435300566,0.0542,4.38516353,
0.05422,-0.0873305317,0.05422,4.750593824,
0.05424,0.6435300566,0.05424,4.750593824,
0.05426,-0.81819112,0.05426,4.019733236,
0.05428,-0.0873305317,0.05428,4.750593824,
0.0543,-3.741633473,0.0543,4.750593824,
0.05432,-3.010772885,0.05432,4.019733236,
0.05434,-2.645342591,0.05434,5.116024118,
0.05436,-2.279912297,0.05436,4.750593824,
0.05438,-3.376203179,0.05438,4.750593824,
0.0544,-3.741633473,0.0544,4.750593824,
0.05442,-4.107063768,0.05442,4.750593824,
0.05444,-5.568784944,0.05444,4.38516353,
0.05446,-3.741633473,0.05446,4.750593824,
0.05448,-4.107063768,0.05448,4.750593824,
0.0545,-4.472494062,0.0545,4.38516353,
0.05452,-3.010772885,0.05452,4.750593824,
0.05454,-1.914482003,0.05454,4.750593824,
0.05456,-3.376203179,0.05456,4.019733236,
0.05458,-0.4527608259,0.05458,4.750593824,
0.0546,-0.0873305317,0.0546,4.38516353,
0.05462,-1.914482003,0.05462,4.38516353,
0.05464,-0.4527608259,0.05464,4.750593824,
0.05466,-0.81819112,0.05466,4.38516353,
0.05468,-0.0873305317,0.05468,4.750593824,
0.0547,1.008960351,0.0547,5.116024118,
0.05472,0.6435300566,0.05472,4.750593824,
0.05474,2.470681527,0.05474,4.38516353,
0.05476,2.105251233,0.05476,4.750593824,
0.05478,2.470681527,0.05478,5.116024118,
0.0548,2.836111822,0.0548,4.38516353,
0.05482,4.297832998,0.05482,4.750593824,
0.05484,3.201542116,0.05484,4.38516353,
0.05486,2.470681527,0.05486,4.38516353,
0.05488,5.028693587,0.05488,4.38516353,
0.0549,6.124984469,0.0549,4.750593824,
0.05492,4.663263293,0.05492,4.38516353,
0.05494,4.663263293,0.05494,4.750593824,
0.05496,4.297832998,0.05496,4.38516353,
0.05498,1.374390645,0.05498,4.750593824,
0.055,4.663263293,0.055,5.116024118,
0.05502,3.56697241,0.05502,4.750593824,
0.05504,2.836111822,0.05504,4.38516353,
0.05506,2.470681527,0.05506,4.38516353,
0.05508,2.105251233,0.05508,4.750593824,
0.0551,2.105251233,0.0551,4.38516353,
0.05512,-0.0873305317,0.05512,4.750593824,
0.05514,1.008960351,0.05514,4.750593824,
0.05516,-1.914482003,0.05516,4.019733236,
0.05518,1.008960351,0.05518,4.019733236,
0.0552,-0.4527608259,0.0552,4.750593824,
0.05522,-4.472494062,0.05522,4.019733236,
0.05524,-0.0873305317,0.05524,4.38516353,
0.05526,-3.010772885,0.05526,4.38516353,
0.05528,-3.010772885,0.05528,4.38516353,
0.0553,-3.741633473,0.0553,4.38516353,
0.05532,-4.472494062,0.05532,4.750593824,
0.05534,-3.376203179,0.05534,4.019733236,
0.05536,-4.107063768,0.05536,4.750593824,
0.05538,-3.741633473,0.05538,5.116024118,
0.0554,-3.010772885,0.0554,5.116024118,
0.05542,-3.741633473,0.05542,5.116024118,
0.05544,-4.837924356,0.05544,5.481454413,
0.05546,-4.837924356,0.05546,4.750593824,
0.05548,-3.741633473,0.05548,4.750593824,
0.0555,-2.645342591,0.0555,5.116024118,
0.05552,-1.183621414,0.05552,4.38516353,
0.05554,-2.279912297,0.05554,4.38516353,
0.05556,-0.81819112,0.05556,4.750593824,
0.05558,-0.81819112,0.05558,4.750593824,
0.0556,0.2780997625,0.0556,5.116024118,
0.05562,0.6435300566,0.05562,4.750593824,
0.05564,1.008960351,0.05564,4.750593824,
0.05566,1.739820939,0.05566,4.750593824,
0.05568,1.008960351,0.05568,4.019733236,
0.0557,-0.0873305317,0.0557,4.750593824,
0.05572,1.008960351,0.05572,4.38516353,
0.05574,4.297832998,0.05574,5.846884707,
0.05576,2.836111822,0.05576,4.38516353,
0.05578,2.836111822,0.05578,4.38516353,
0.0558,4.663263293,0.0558,5.481454413,
0.05582,3.56697241,0.05582,4.750593824,
0.05584,4.663263293,0.05584,4.38516353,
0.05586,2.836111822,0.05586,5.116024118,
0.05588,3.932402704,0.05588,4.38516353,
0.0559,3.932402704,0.0559,4.750593824,
0.05592,3.56697241,0.05592,5.116024118,
0.05594,1.739820939,0.05594,2.923442353,
0.05596,2.470681527,0.05596,4.38516353,
0.05598,2.470681527,0.05598,5.116024118,
0.056,0.6435300566,0.056,4.750593824,
0.05602,1.374390645,0.05602,4.38516353,
0.05604,-1.183621414,0.05604,4.750593824,
0.05606,-0.4527608259,0.05606,4.750593824,
0.05608,0.2780997625,0.05608,4.750593824,
0.0561,-0.81819112,0.0561,5.116024118,
0.05612,-3.010772885,0.05612,5.116024118,
0.05614,-1.183621414,0.05614,6.577745295,
0.05616,-1.549051708,0.05616,5.116024118,
0.05618,-3.376203179,0.05618,4.38516353,
0.0562,-3.741633473,0.0562,4.38516353,
0.05622,-3.741633473,0.05622,5.116024118,
0.05624,-3.376203179,0.05624,4.38516353,
0.05626,-7.030506121,0.05626,4.38516353,
0.05628,-3.376203179,0.05628,5.116024118,
0.0563,-3.376203179,0.0563,4.750593824,
0.05632,-4.107063768,0.05632,4.750593824,
0.05634,-3.376203179,0.05634,3.654302942,
0.05636,-3.376203179,0.05636,4.750593824,
0.05638,-4.107063768,0.05638,4.38516353,
0.0564,-3.010772885,0.0564,5.116024118,
0.05642,-3.376203179,0.05642,4.38516353,
0.05644,-3.376203179,0.05644,5.481454413,
0.05646,-2.645342591,0.05646,5.116024118,
0.05648,-2.279912297,0.05648,5.846884707,
0.0565,-1.183621414,0.0565,4.38516353,
0.05652,-0.81819112,0.05652,5.116024118,
0.05654,-1.914482003,0.05654,5.116024118,
0.05656,0.2780997625,0.05656,4.38516353,
0.05658,1.008960351,0.05658,5.481454413,
0.0566,0.6435300566,0.0566,4.750593824,
0.05662,1.374390645,0.05662,4.750593824,
0.05664,3.56697241,0.05664,4.750593824,
0.05666,3.201542116,0.05666,4.750593824,
0.05668,2.470681527,0.05668,4.750593824,
0.0567,3.932402704,0.0567,5.481454413,
0.05672,3.56697241,0.05672,4.38516353,
0.05674,5.394123881,0.05674,6.212315001,
0.05676,3.56697241,0.05676,5.481454413,
0.05678,4.297832998,0.05678,4.750593824,
0.0568,2.470681527,0.0568,4.38516353,
0.05682,4.297832998,0.05682,5.481454413,
0.05684,2.836111822,0.05684,3.654302942,
0.05686,3.932402704,0.05686,4.38516353,
0.05688,2.836111822,0.05688,5.116024118,
0.0569,2.105251233,0.0569,4.750593824,
0.05692,2.836111822,0.05692,4.38516353,
0.05694,2.105251233,0.05694,5.846884707,
0.05696,0.2780997625,0.05696,4.750593824,
0.05698,1.374390645,0.05698,4.750593824,
0.057,0.2780997625,0.057,5.116024118,
0.05702,0.2780997625,0.05702,5.116024118,
0.05704,-0.4527608259,0.05704,3.654302942,
0.05706,-1.549051708,0.05706,5.116024118,
0.05708,-2.279912297,0.05708,4.750593824,
0.0571,-3.010772885,0.0571,4.38516353,
0.05712,-3.376203179,0.05712,4.750593824,
0.05714,-3.376203179,0.05714,4.38516353,
0.05716,-4.472494062,0.05716,4.38516353,
0.05718,-3.741633473,0.05718,5.116024118,
0.0572,-5.568784944,0.0572,5.116024118,
0.05722,-4.107063768,0.05722,4.38516353,
0.05724,-4.472494062,0.05724,5.481454413,
0.05726,-3.010772885,0.05726,5.116024118,
0.05728,-3.741633473,0.05728,4.750593824,
0.0573,-3.010772885,0.0573,5.116024118,
0.05732,-4.472494062,0.05732,5.116024118,
0.05734,-4.472494062,0.05734,4.38516353,
0.05736,-3.376203179,0.05736,5.116024118,
0.05738,-1.914482003,0.05738,5.116024118,
0.0574,-1.183621414,0.0574,4.38516353,
0.05742,-0.4527608259,0.05742,5.481454413,
0.05744,-0.81819112,0.05744,4.750593824,
0.05746,-0.4527608259,0.05746,4.750593824,
0.05748,0.6435300566,0.05748,5.116024118,
0.0575,-0.0873305317,0.0575,5.116024118,
0.05752,1.008960351,0.05752,4.38516353,
0.05754,2.105251233,0.05754,5.116024118,
0.05756,1.374390645,0.05756,4.750593824,
0.05758,2.105251233,0.05758,4.750593824,
0.0576,3.932402704,0.0576,4.38516353,
0.05762,4.297832998,0.05762,5.116024118,
0.05764,3.201542116,0.05764,5.116024118,
0.05766,3.932402704,0.05766,5.116024118,
0.05768,3.932402704,0.05768,4.750593824,
0.0577,4.663263293,0.0577,4.38516353,
0.05772,4.297832998,0.05772,4.750593824,
0.05774,3.932402704,0.05774,5.481454413,
0.05776,3.56697241,0.05776,5.116024118,
0.05778,3.201542116,0.05778,5.116024118,
0.0578,2.836111822,0.0578,4.750593824,
0.05782,2.470681527,0.05782,4.750593824,
0.05784,2.836111822,0.05784,4.750593824,
0.05786,1.739820939,0.05786,5.116024118,
0.05788,0.2780997625,0.05788,4.750593824,
0.0579,1.374390645,0.0579,5.116024118,
0.05792,3.201542116,0.05792,4.750593824,
0.05794,-0.0873305317,0.05794,4.38516353,
0.05796,0.2780997625,0.05796,5.481454413,
0.05798,-1.183621414,0.05798,4.750593824,
0.058,-1.183621414,0.058,4.750593824,
0.05802,-2.279912297,0.05802,5.116024118,
0.05804,-3.741633473,0.05804,4.750593824,
0.05806,-2.645342591,0.05806,4.38516353,
0.05808,-3.741633473,0.05808,5.481454413,
0.0581,-4.107063768,0.0581,4.750593824,
0.05812,-3.741633473,0.05812,4.38516353,
0.05814,-4.472494062,0.05814,5.116024118,
0.05816,-3.010772885,0.05816,5.116024118,
0.05818,-4.107063768,0.05818,4.750593824,
0.0582,-3.741633473,0.0582,5.481454413,
0.05822,-4.107063768,0.05822,4.750593824,
0.05824,-1.183621414,0.05824,4.750593824,
0.05826,-3.376203179,0.05826,5.481454413,
0.05828,-3.376203179,0.05828,5.116024118,
0.0583,-2.279912297,0.0583,5.116024118,
0.05832,-2.645342591,0.05832,4.750593824,
0.05834,-1.914482003,0.05834,4.750593824,
0.05836,-1.183621414,0.05836,5.116024118,
0.05838,0.2780997625,0.05838,4.750593824,
0.0584,0.6435300566,0.0584,4.750593824,
0.05842,0.6435300566,0.05842,4.750593824,
0.05844,1.008960351,0.05844,4.750593824,
0.05846,1.374390645,0.05846,4.750593824,
0.05848,2.470681527,0.05848,4.750593824,
0.0585,2.470681527,0.0585,5.116024118,
0.05852,2.470681527,0.05852,5.116024118,
0.05854,3.201542116,0.05854,4.750593824,
0.05856,3.201542116,0.05856,5.481454413,
0.05858,1.739820939,0.05858,5.481454413,
0.0586,4.297832998,0.0586,4.750593824,
0.05862,3.201542116,0.05862,5.116024118,
