"A0_accX_x","A0_accX_y","A1_rmsX_x","A1_rmsX_y"
0,1.023131738,0,4.750593824,
2e-05,1.023131738,2e-05,4.019733236,
4e-05,0.6577014434,4e-05,4.019733236,
6e-05,-0.07315914489,6e-05,4.019733236,
8e-05,-1.900310616,8e-05,4.019733236,
0.0001,-1.169450027,0.0001,3.654302942,
0.00012,-3.362031792,0.00012,4.38516353,
0.00014,-1.169450027,0.00014,4.38516353,
0.00016,-2.26574091,0.00016,4.019733236,
0.00018,-4.458322675,0.00018,4.38516353,
0.0002,-2.26574091,0.0002,4.750593824,
0.00022,-4.092892381,0.00022,4.019733236,
0.00024,-3.727462087,0.00024,4.38516353,
0.00026,-2.26574091,0.00026,4.019733236,
0.00028,-4.823752969,0.00028,4.019733236,
0.0003,-3.362031792,0.0003,4.38516353,
0.00032,-2.996601498,0.00032,4.019733236,
0.00034,-4.092892381,0.00034,4.38516353,
0.00036,-2.26574091,0.00036,4.38516353,
0.00038,-0.8040197332,0.00038,4.38516353,
0.0004,-3.727462087,0.0004,4.019733236,
0.00042,-1.534880322,0.00042,4.38516353,
0.00044,-2.26574091,0.00044,4.38516353,
0.00046,-1.534880322,0.00046,4.019733236,
0.00048,-0.07315914489,0.00048,4.019733236,
0.0005,-1.169450027,0.0005,4.38516353,
0.00052,-0.4385894391,0.00052,3.654302942,
0.00054,0.6577014434,0.00054,4.38516353,
0.00056,1.388562032,0.00056,4.38516353,
0.00058,1.023131738,0.00058,4.750593824,
0.0006,2.484852914,0.0006,4.750593824,
0.00062,2.850283208,0.00062,4.38516353,
0.00064,1.753992326,0.00064,4.019733236,
0.00066,3.581143797,0.00066,4.38516353,
0.00068,2.850283208,0.00068,4.38516353,
0.0007,3.946574091,0.0007,4.019733236,
0.00072,4.677434679,0.00072,4.38516353,
0.00074,4.312004385,0.00074,4.38516353,
0.00076,4.677434679,0.00076,4.019733236,
0.00078,4.312004385,0.00078,3.654302942,
0.0008,4.312004385,0.0008,4.019733236,
0.00082,3.215713503,0.00082,4.019733236,
0.00084,2.484852914,0.00084,4.019733236,
0.00086,3.215713503,0.00086,4.38516353,
0.00088,2.850283208,0.00088,4.019733236,
0.0009,2.484852914,0.0009,4.38516353,
0.00092,1.753992326,0.00092,4.38516353,
0.00094,1.023131738,0.00094,4.019733236,
0.00096,2.11942262,0.00096,4.019733236,
0.00098,0.6577014434,0.00098,4.019733236,
0.001,-0.07315914489,0.001,3.654302942,
0.00102,-0.8040197332,0.00102,4.38516353,
0.00104,-1.169450027,0.00104,3.654302942,
0.00106,-2.26574091,0.00106,4.019733236,
0.00108,-3.362031792,0.00108,2.558012059,
0.0011,-2.631171204,0.0011,4.019733236,
0.00112,-2.996601498,0.00112,3.654302942,
0.00114,-2.26574091,0.00114,4.38516353,
0.00116,-2.26574091,0.00116,3.654302942,
0.00118,-4.458322675,0.00118,4.019733236,
0.0012,-1.900310616,0.0012,4.019733236,
0.00122,-2.631171204,0.00122,4.019733236,
0.00124,-4.092892381,0.00124,4.019733236,
0.00126,-3.362031792,0.00126,4.38516353,
0.00128,-3.362031792,0.00128,5.846884707,
0.0013,-3.727462087,0.0013,3.654302942,
0.00132,-2.631171204,0.00132,4.38516353,
0.00134,-1.169450027,0.00134,4.019733236,
0.00136,-4.823752969,0.00136,3.654302942,
0.00138,-0.4385894391,0.00138,3.288872648,
0.0014,-0.4385894391,0.0014,4.38516353,
0.00142,-1.169450027,0.00142,3.654302942,
0.00144,-0.4385894391,0.00144,4.38516353,
0.00146,0.6577014434,0.00146,4.38516353,
0.00148,0.6577014434,0.00148,3.288872648,
0.0015,2.484852914,0.0015,4.38516353,
0.00152,2.484852914,0.00152,4.38516353,
0.00154,1.023131738,0.00154,4.019733236,
0.00156,2.850283208,0.00156,4.38516353,
0.00158,2.484852914,0.00158,5.116024118,
0.0016,1.023131738,0.0016,3.654302942,
0.00162,4.312004385,0.00162,4.750593824,
0.00164,3.215713503,0.00164,3.654302942,
0.00166,2.11942262,0.00166,4.019733236,
0.00168,3.946574091,0.00168,2.923442353,
0.0017,4.312004385,0.0017,4.019733236,
0.00172,1.753992326,0.00172,3.288872648,
0.00174,3.581143797,0.00174,4.019733236,
0.00176,3.215713503,0.00176,3.654302942,
0.00178,2.484852914,0.00178,4.750593824,
0.0018,2.484852914,0.0018,4.019733236,
0.00182,4.312004385,0.00182,4.019733236,
0.00184,1.388562032,0.00184,3.654302942,
0.00186,1.388562032,0.00186,4.019733236,
0.00188,0.2922711493,0.00188,2.923442353,
0.0019,-0.8040197332,0.0019,4.750593824,
0.00192,-0.4385894391,0.00192,4.019733236,
0.00194,-1.169450027,0.00194,4.750593824,
0.00196,-1.534880322,0.00196,4.750593824,
0.00198,-2.631171204,0.00198,3.654302942,
0.002,-1.534880322,0.002,4.019733236,
0.00202,-4.458322675,0.00202,4.38516353,
0.00204,-3.362031792,0.00204,4.38516353,
0.00206,-3.362031792,0.00206,3.288872648,
0.00208,-3.362031792,0.00208,5.116024118,
0.0021,-3.727462087,0.0021,4.38516353,
0.00212,-3.362031792,0.00212,4.38516353,
0.00214,-3.362031792,0.00214,4.750593824,
0.00216,-4.458322675,0.00216,4.38516353,
0.00218,-4.458322675,0.00218,4.38516353,
0.0022,-4.458322675,0.0022,5.116024118,
0.00222,-4.092892381,0.00222,4.38516353,
0.00224,-3.362031792,0.00224,4.38516353,
0.00226,-2.26574091,0.00226,4.38516353,
0.00228,-1.169450027,0.00228,4.019733236,
0.0023,-1.534880322,0.0023,5.116024118,
0.00232,-0.4385894391,0.00232,4.750593824,
0.00234,-0.8040197332,0.00234,4.019733236,
0.00236,-0.4385894391,0.00236,4.38516353,
0.00238,-1.169450027,0.00238,4.750593824,
0.0024,2.850283208,0.0024,4.38516353,
0.00242,1.388562032,0.00242,4.38516353,
0.00244,3.215713503,0.00244,4.019733236,
0.00246,-0.07315914489,0.00246,4.38516353,
0.00248,2.484852914,0.00248,4.750593824,
0.0025,1.388562032,0.0025,4.38516353,
0.00252,2.850283208,0.00252,4.38516353,
0.00254,3.946574091,0.00254,4.38516353,
0.00256,3.215713503,0.00256,4.019733236,
0.00258,2.850283208,0.00258,4.019733236,
0.0026,2.11942262,0.0026,4.38516353,
0.00262,3.215713503,0.00262,4.750593824,
0.00264,3.581143797,0.00264,3.654302942,
0.00266,0.6577014434,0.00266,3.288872648,
0.00268,3.581143797,0.00268,5.116024118,
0.0027,2.850283208,0.0027,4.019733236,
0.00272,3.581143797,0.00272,4.019733236,
0.00274,3.215713503,0.00274,4.750593824,
0.00276,2.11942262,0.00276,4.38516353,
0.00278,3.215713503,0.00278,4.750593824,
0.0028,1.753992326,0.0028,4.750593824,
0.00282,0.6577014434,0.00282,4.38516353,
0.00284,-0.07315914489,0.00284,4.750593824,
0.00286,-0.07315914489,0.00286,4.750593824,
0.00288,-1.169450027,0.00288,4.019733236,
0.0029,-0.07315914489,0.0029,4.019733236,
0.00292,-0.07315914489,0.00292,4.750593824,
0.00294,-2.996601498,0.00294,4.38516353,
0.00296,-2.631171204,0.00296,3.654302942,
0.00298,-4.458322675,0.00298,4.019733236,
0.003,-4.092892381,0.003,4.019733236,
0.00302,-2.996601498,0.00302,4.38516353,
0.00304,-4.092892381,0.00304,5.116024118,
0.00306,-3.362031792,0.00306,4.750593824,
0.00308,-3.727462087,0.00308,4.38516353,
0.0031,-3.362031792,0.0031,4.750593824,
0.00312,-3.727462087,0.00312,4.750593824,
0.00314,-3.727462087,0.00314,4.019733236,
0.00316,-3.362031792,0.00316,4.38516353,
0.00318,-3.727462087,0.00318,4.38516353,
0.0032,-3.362031792,0.0032,4.38516353,
0.00322,-1.534880322,0.00322,4.750593824,
0.00324,-2.631171204,0.00324,4.019733236,
0.00326,-1.169450027,0.00326,4.019733236,
0.00328,-0.07315914489,0.00328,4.38516353,
0.0033,-1.169450027,0.0033,4.38516353,
0.00332,-0.07315914489,0.00332,4.019733236,
0.00334,0.6577014434,0.00334,4.750593824,
0.00336,1.023131738,0.00336,4.019733236,
0.00338,1.023131738,0.00338,4.750593824,
0.0034,2.850283208,0.0034,4.750593824,
0.00342,0.6577014434,0.00342,4.38516353,
0.00344,1.388562032,0.00344,4.38516353,
0.00346,2.484852914,0.00346,4.38516353,
0.00348,3.215713503,0.00348,4.38516353,
0.0035,3.581143797,0.0035,4.750593824,
0.00352,5.042864974,0.00352,4.750593824,
0.00354,3.215713503,0.00354,4.019733236,
0.00356,3.215713503,0.00356,4.019733236,
0.00358,3.215713503,0.00358,4.750593824,
0.0036,3.215713503,0.0036,4.019733236,
0.00362,2.11942262,0.00362,4.019733236,
0.00364,2.11942262,0.00364,4.750593824,
0.00366,2.484852914,0.00366,4.019733236,
0.00368,2.484852914,0.00368,4.38516353,
0.0037,1.023131738,0.0037,5.116024118,
0.00372,1.388562032,0.00372,4.019733236,
0.00374,0.6577014434,0.00374,4.019733236,
0.00376,-0.8040197332,0.00376,5.116024118,
0.00378,0.2922711493,0.00378,4.750593824,
0.0038,-0.07315914489,0.0038,4.38516353,
0.00382,-2.631171204,0.00382,5.116024118,
0.00384,-2.996601498,0.00384,4.019733236,
0.00386,-1.534880322,0.00386,4.750593824,
0.00388,-2.996601498,0.00388,4.750593824,
0.0039,-1.900310616,0.0039,4.38516353,
0.00392,-2.631171204,0.00392,4.750593824,
0.00394,-4.823752969,0.00394,4.750593824,
0.00396,-2.996601498,0.00396,4.019733236,
0.00398,-2.631171204,0.00398,4.38516353,
0.004,-2.631171204,0.004,4.750593824,
0.00402,-3.727462087,0.00402,4.019733236,
0.00404,-2.996601498,0.00404,4.750593824,
0.00406,-3.727462087,0.00406,4.750593824,
0.00408,-2.631171204,0.00408,4.019733236,
0.0041,-2.996601498,0.0041,4.750593824,
0.00412,-3.362031792,0.00412,4.38516353,
0.00414,-1.900310616,0.00414,4.750593824,
0.00416,-1.169450027,0.00416,4.750593824,
0.00418,-2.631171204,0.00418,4.750593824,
0.0042,-1.169450027,0.0042,4.019733236,
0.00422,-0.4385894391,0.00422,4.38516353,
0.00424,-0.8040197332,0.00424,4.38516353,
0.00426,-0.07315914489,0.00426,3.654302942,
0.00428,1.023131738,0.00428,4.38516353,
0.0043,1.023131738,0.0043,4.019733236,
0.00432,2.11942262,0.00432,4.750593824,
0.00434,2.484852914,0.00434,4.750593824,
0.00436,1.388562032,0.00436,4.750593824,
0.00438,2.484852914,0.00438,3.654302942,
0.0044,3.215713503,0.0044,4.38516353,
0.00442,3.215713503,0.00442,4.38516353,
0.00444,3.946574091,0.00444,3.654302942,
0.00446,4.312004385,0.00446,4.750593824,
0.00448,1.753992326,0.00448,4.750593824,
0.0045,3.946574091,0.0045,5.116024118,
0.00452,3.946574091,0.00452,4.750593824,
0.00454,3.215713503,0.00454,4.38516353,
0.00456,3.581143797,0.00456,4.019733236,
0.00458,3.581143797,0.00458,4.750593824,
0.0046,2.850283208,0.0046,5.846884707,
0.00462,2.11942262,0.00462,4.019733236,
0.00464,1.388562032,0.00464,4.019733236,
0.00466,0.6577014434,0.00466,4.750593824,
0.00468,0.6577014434,0.00468,4.38516353,
0.0047,0.2922711493,0.0047,4.019733236,
0.00472,-0.4385894391,0.00472,4.38516353,
0.00474,-1.169450027,0.00474,4.38516353,
0.00476,-0.07315914489,0.00476,4.38516353,
0.00478,-2.26574091,0.00478,4.38516353,
0.0048,-4.823752969,0.0048,3.288872648,
0.00482,-1.900310616,0.00482,4.019733236,
0.00484,-2.996601498,0.00484,4.750593824,
0.00486,-2.996601498,0.00486,4.38516353,
0.00488,-2.26574091,0.00488,4.38516353,
0.0049,-3.362031792,0.0049,4.750593824,
0.00492,-5.189183263,0.00492,4.38516353,
0.00494,-3.727462087,0.00494,4.750593824,
0.00496,-2.631171204,0.00496,4.38516353,
0.00498,-5.189183263,0.00498,5.116024118,
0.005,-2.996601498,0.005,5.116024118,
0.00502,-3.362031792,0.00502,4.750593824,
0.00504,-2.26574091,0.00504,4.38516353,
0.00506,-1.900310616,0.00506,4.750593824,
0.00508,-2.26574091,0.00508,4.019733236,
0.0051,-1.900310616,0.0051,4.750593824,
0.00512,-1.900310616,0.00512,5.116024118,
0.00514,-1.169450027,0.00514,4.38516353,
0.00516,-0.07315914489,0.00516,4.38516353,
0.00518,1.753992326,0.00518,4.38516353,
0.0052,0.2922711493,0.0052,3.654302942,
0.00522,1.023131738,0.00522,4.38516353,
0.00524,1.023131738,0.00524,4.750593824,
0.00526,1.388562032,0.00526,4.750593824,
0.00528,2.850283208,0.00528,4.38516353,
0.0053,3.946574091,0.0053,3.654302942,
0.00532,3.946574091,0.00532,5.116024118,
0.00534,3.581143797,0.00534,4.38516353,
0.00536,4.677434679,0.00536,4.750593824,
0.00538,2.850283208,0.00538,4.38516353,
0.0054,3.581143797,0.0054,3.288872648,
0.00542,2.11942262,0.00542,4.750593824,
0.00544,3.946574091,0.00544,4.750593824,
0.00546,3.215713503,0.00546,4.019733236,
0.00548,2.850283208,0.00548,4.750593824,
0.0055,0.6577014434,0.0055,4.750593824,
0.00552,2.850283208,0.00552,4.38516353,
0.00554,1.753992326,0.00554,4.38516353,
0.00556,1.753992326,0.00556,4.38516353,
0.00558,0.6577014434,0.00558,4.750593824,
0.0056,1.023131738,0.0056,3.654302942,
0.00562,0.6577014434,0.00562,4.38516353,
0.00564,0.2922711493,0.00564,4.019733236,
0.00566,-0.8040197332,0.00566,4.38516353,
0.00568,0.2922711493,0.00568,4.019733236,
0.0057,-0.07315914489,0.0057,3.654302942,
0.00572,-3.362031792,0.00572,4.38516353,
0.00574,-1.169450027,0.00574,4.38516353,
0.00576,-2.996601498,0.00576,4.38516353,
0.00578,-3.362031792,0.00578,4.019733236,
0.0058,-0.8040197332,0.0058,3.654302942,
0.00582,-3.727462087,0.00582,4.019733236,
0.00584,-2.26574091,0.00584,3.654302942,
0.00586,-1.900310616,0.00586,4.750593824,
0.00588,-3.727462087,0.00588,4.750593824,
0.0059,-4.092892381,0.0059,4.019733236,
0.00592,-3.727462087,0.00592,4.019733236,
0.00594,-2.996601498,0.00594,4.38516353,
0.00596,-3.362031792,0.00596,3.654302942,
0.00598,-1.169450027,0.00598,4.750593824,
0.006,-1.534880322,0.006,4.750593824,
0.00602,-1.169450027,0.00602,4.38516353,
0.00604,-2.26574091,0.00604,4.019733236,
0.00606,-2.996601498,0.00606,4.38516353,
0.00608,-0.07315914489,0.00608,4.019733236,
0.0061,-0.07315914489,0.0061,5.116024118,
0.00612,0.2922711493,0.00612,4.019733236,
0.00614,0.6577014434,0.00614,4.019733236,
0.00616,1.023131738,0.00616,4.38516353,
0.00618,2.484852914,0.00618,4.38516353,
0.0062,1.753992326,0.0062,4.019733236,
0.00622,3.946574091,0.00622,5.116024118,
0.00624,3.215713503,0.00624,4.750593824,
0.00626,2.850283208,0.00626,4.019733236,
0.00628,3.581143797,0.00628,4.019733236,
0.0063,6.139155856,0.0063,4.019733236,
0.00632,3.215713503,0.00632,4.38516353,
0.00634,3.581143797,0.00634,4.38516353,
0.00636,4.312004385,0.00636,3.654302942,
0.00638,3.581143797,0.00638,3.654302942,
0.0064,3.946574091,0.0064,4.019733236,
0.00642,1.753992326,0.00642,4.38516353,
0.00644,1.388562032,0.00644,4.019733236,
0.00646,1.753992326,0.00646,4.019733236,
0.00648,2.11942262,0.00648,4.38516353,
0.0065,1.388562032,0.0065,4.750593824,
0.00652,1.753992326,0.00652,4.38516353,
0.00654,0.6577014434,0.00654,4.38516353,
0.00656,0.2922711493,0.00656,3.654302942,
0.00658,-0.07315914489,0.00658,4.019733236,
0.0066,1.023131738,0.0066,4.019733236,
0.00662,-2.26574091,0.00662,4.019733236,
0.00664,-0.4385894391,0.00664,4.38516353,
0.00666,-1.534880322,0.00666,4.38516353,
0.00668,-2.996601498,0.00668,3.654302942,
0.0067,-2.26574091,0.0067,4.019733236,
0.00672,-2.26574091,0.00672,4.38516353,
0.00674,-2.996601498,0.00674,4.019733236,
0.00676,-2.631171204,0.00676,4.38516353,
0.00678,-2.631171204,0.00678,4.38516353,
0.0068,-3.727462087,0.0068,4.019733236,
0.00682,-1.900310616,0.00682,4.019733236,
0.00684,-2.26574091,0.00684,4.38516353,
0.00686,-4.823752969,0.00686,3.654302942,
0.00688,0.2922711493,0.00688,4.750593824,
0.0069,-2.631171204,0.0069,4.750593824,
0.00692,-1.534880322,0.00692,3.654302942,
0.00694,-2.26574091,0.00694,4.38516353,
0.00696,-1.900310616,0.00696,4.019733236,
0.00698,-1.169450027,0.00698,4.750593824,
0.007,-0.4385894391,0.007,4.750593824,
0.00702,-0.07315914489,0.00702,3.654302942,
0.00704,-0.4385894391,0.00704,4.38516353,
0.00706,-0.07315914489,0.00706,4.38516353,
0.00708,1.388562032,0.00708,4.38516353,
0.0071,1.388562032,0.0071,4.019733236,
0.00712,-1.169450027,0.00712,4.38516353,
0.00714,2.484852914,0.00714,4.38516353,
0.00716,2.484852914,0.00716,4.019733236,
0.00718,4.677434679,0.00718,4.019733236,
0.0072,3.581143797,0.0072,4.38516353,
0.00722,2.850283208,0.00722,4.019733236,
0.00724,3.946574091,0.00724,4.750593824,
0.00726,4.677434679,0.00726,4.38516353,
0.00728,3.581143797,0.00728,3.654302942,
0.0073,4.677434679,0.0073,4.38516353,
0.00732,5.042864974,0.00732,4.38516353,
0.00734,4.312004385,0.00734,3.654302942,
0.00736,3.946574091,0.00736,4.38516353,
0.00738,3.215713503,0.00738,4.38516353,
0.0074,2.850283208,0.0074,4.38516353,
0.00742,3.946574091,0.00742,4.750593824,
0.00744,2.11942262,0.00744,4.38516353,
0.00746,1.023131738,0.00746,4.38516353,
0.00748,1.023131738,0.00748,4.750593824,
0.0075,-1.169450027,0.0075,4.750593824,
0.00752,-0.4385894391,0.00752,4.38516353,
0.00754,-0.8040197332,0.00754,4.750593824,
0.00756,-1.169450027,0.00756,4.38516353,
0.00758,-0.4385894391,0.00758,4.750593824,
0.0076,-2.26574091,0.0076,4.38516353,
0.00762,-3.362031792,0.00762,4.38516353,
0.00764,-2.26574091,0.00764,4.750593824,
0.00766,-3.727462087,0.00766,4.750593824,
0.00768,-3.727462087,0.00768,4.38516353,
0.0077,-3.727462087,0.0077,4.38516353,
0.00772,-3.362031792,0.00772,4.019733236,
0.00774,-3.362031792,0.00774,4.750593824,
0.00776,-3.727462087,0.00776,4.019733236,
0.00778,-2.996601498,0.00778,4.38516353,
0.0078,-3.362031792,0.0078,4.750593824,
0.00782,-2.996601498,0.00782,4.750593824,
0.00784,-2.26574091,0.00784,4.019733236,
0.00786,-3.727462087,0.00786,4.38516353,
0.00788,-1.534880322,0.00788,4.38516353,
0.0079,-1.534880322,0.0079,4.019733236,
0.00792,0.2922711493,0.00792,4.750593824,
0.00794,-1.900310616,0.00794,4.019733236,
0.00796,-0.8040197332,0.00796,4.019733236,
0.00798,1.388562032,0.00798,4.750593824,
0.008,0.2922711493,0.008,4.38516353,
0.00802,0.6577014434,0.00802,4.019733236,
0.00804,1.388562032,0.00804,4.750593824,
0.00806,2.11942262,0.00806,4.38516353,
0.00808,2.11942262,0.00808,3.654302942,
0.0081,2.11942262,0.0081,4.38516353,
0.00812,2.11942262,0.00812,4.019733236,
0.00814,3.215713503,0.00814,4.019733236,
0.00816,3.946574091,0.00816,4.750593824,
0.00818,2.484852914,0.00818,4.38516353,
0.0082,6.139155856,0.0082,4.019733236,
0.00822,0.2922711493,0.00822,4.750593824,
0.00824,3.215713503,0.00824,4.019733236,
0.00826,5.042864974,0.00826,3.654302942,
0.00828,3.946574091,0.00828,5.481454413,
0.0083,2.850283208,0.0083,4.019733236,
0.00832,2.850283208,0.00832,4.38516353,
0.00834,2.11942262,0.00834,4.750593824,
0.00836,2.11942262,0.00836,4.019733236,
0.00838,0.6577014434,0.00838,4.019733236,
0.0084,-0.07315914489,0.0084,4.750593824,
0.00842,1.023131738,0.00842,4.019733236,
0.00844,-0.4385894391,0.00844,4.019733236,
0.00846,-0.07315914489,0.00846,5.116024118,
0.00848,-1.169450027,0.00848,4.019733236,
0.0085,-1.900310616,0.0085,3.654302942,
0.00852,-2.631171204,0.00852,5.116024118,
0.00854,-2.631171204,0.00854,4.750593824,
0.00856,-3.362031792,0.00856,3.654302942,
0.00858,-2.26574091,0.00858,4.750593824,
0.0086,-3.362031792,0.0086,4.38516353,
0.00862,-3.362031792,0.00862,4.019733236,
0.00864,-2.631171204,0.00864,4.38516353,
0.00866,-2.26574091,0.00866,4.38516353,
0.00868,-3.362031792,0.00868,4.019733236,
0.0087,-3.362031792,0.0087,4.750593824,
0.00872,-4.092892381,0.00872,3.654302942,
0.00874,-3.727462087,0.00874,4.38516353,
0.00876,-2.631171204,0.00876,4.38516353,
0.00878,-2.996601498,0.00878,4.750593824,
0.0088,-0.4385894391,0.0088,4.019733236,
0.00882,-0.8040197332,0.00882,4.750593824,
0.00884,-2.996601498,0.00884,3.654302942,
0.00886,-1.169450027,0.00886,4.019733236,
0.00888,-0.8040197332,0.00888,4.750593824,
0.0089,-2.631171204,0.0089,4.019733236,
0.00892,0.2922711493,0.00892,5.481454413,
0.00894,-1.534880322,0.00894,4.750593824,
0.00896,1.023131738,0.00896,4.019733236,
0.00898,1.023131738,0.00898,4.38516353,
0.009,1.753992326,0.009,4.38516353,
0.00902,2.11942262,0.00902,4.750593824,
0.00904,2.484852914,0.00904,4.019733236,
0.00906,2.850283208,0.00906,4.38516353,
0.00908,3.946574091,0.00908,4.38516353,
0.0091,1.753992326,0.0091,4.019733236,
0.00912,5.042864974,0.00912,4.019733236,
0.00914,3.581143797,0.00914,4.750593824,
0.00916,2.484852914,0.00916,3.654302942,
0.00918,3.581143797,0.00918,4.750593824,
0.0092,2.850283208,0.0092,4.38516353,
0.00922,2.484852914,0.00922,2.923442353,
0.00924,3.215713503,0.00924,5.116024118,
0.00926,1.753992326,0.00926,4.019733236,
0.00928,2.11942262,0.00928,4.38516353,
0.0093,0.6577014434,0.0093,5.116024118,
0.00932,0.6577014434,0.00932,2.923442353,
0.00934,0.6577014434,0.00934,4.019733236,
0.00936,-0.07315914489,0.00936,4.750593824,
0.00938,-1.169450027,0.00938,4.019733236,
0.0094,-1.534880322,0.0094,3.654302942,
0.00942,-1.534880322,0.00942,6.577745295,
0.00944,-2.26574091,0.00944,4.019733236,
0.00946,-2.996601498,0.00946,4.38516353,
0.00948,-0.8040197332,0.00948,4.750593824,
0.0095,-3.362031792,0.0095,4.38516353,
0.00952,-2.26574091,0.00952,4.750593824,
0.00954,-2.631171204,0.00954,4.750593824,
0.00956,-4.458322675,0.00956,4.019733236,
0.00958,-4.458322675,0.00958,4.019733236,
0.0096,-4.458322675,0.0096,4.750593824,
0.00962,-3.362031792,0.00962,4.38516353,
0.00964,-2.996601498,0.00964,4.38516353,
0.00966,-3.362031792,0.00966,4.750593824,
0.00968,-3.727462087,0.00968,4.38516353,
0.0097,-2.996601498,0.0097,4.38516353,
0.00972,-3.362031792,0.00972,6.212315001,
0.00974,-3.727462087,0.00974,5.116024118,
0.00976,-0.8040197332,0.00976,4.38516353,
0.00978,-0.8040197332,0.00978,4.750593824,
0.0098,-1.169450027,0.0098,4.38516353,
0.00982,-0.8040197332,0.00982,4.750593824,
0.00984,-1.169450027,0.00984,4.750593824,
0.00986,1.753992326,0.00986,4.38516353,
0.00988,1.753992326,0.00988,4.019733236,
0.0099,2.484852914,0.0099,4.750593824,
0.00992,-0.4385894391,0.00992,3.288872648,
0.00994,2.484852914,0.00994,4.38516353,
0.00996,2.850283208,0.00996,4.750593824,
0.00998,3.581143797,0.00998,4.38516353,
0.01,3.581143797,0.01,4.38516353,
0.01002,5.042864974,0.01002,4.750593824,
0.01004,4.677434679,0.01004,4.019733236,
0.01006,3.581143797,0.01006,4.38516353,
0.01008,3.581143797,0.01008,4.750593824,
0.0101,1.753992326,0.0101,4.750593824,
0.01012,3.581143797,0.01012,5.116024118,
0.01014,2.850283208,0.01014,4.750593824,
0.01016,2.850283208,0.01016,4.38516353,
0.01018,3.581143797,0.01018,4.750593824,
0.0102,2.850283208,0.0102,4.750593824,
0.01022,2.11942262,0.01022,4.750593824,
0.01024,-0.07315914489,0.01024,4.019733236,
0.01026,1.388562032,0.01026,4.750593824,
0.01028,-1.534880322,0.01028,4.38516353,
0.0103,1.023131738,0.0103,4.38516353,
0.01032,-0.07315914489,0.01032,3.654302942,
0.01034,-0.4385894391,0.01034,4.38516353,
0.01036,-0.4385894391,0.01036,4.38516353,
0.01038,-2.26574091,0.01038,4.750593824,
0.0104,-2.631171204,0.0104,4.019733236,
0.01042,-2.26574091,0.01042,4.019733236,
0.01044,-2.996601498,0.01044,4.38516353,
0.01046,-4.458322675,0.01046,4.38516353,
0.01048,-4.458322675,0.01048,4.019733236,
0.0105,-4.092892381,0.0105,4.750593824,
0.01052,-4.092892381,0.01052,5.116024118,
0.01054,-3.727462087,0.01054,4.38516353,
0.01056,-4.092892381,0.01056,4.750593824,
0.01058,-3.727462087,0.01058,5.116024118,
0.0106,-2.26574091,0.0106,4.38516353,
0.01062,-2.26574091,0.01062,4.750593824,
0.01064,-3.727462087,0.01064,4.750593824,
0.01066,-2.631171204,0.01066,4.38516353,
0.01068,-2.26574091,0.01068,4.38516353,
0.0107,-4.092892381,0.0107,5.116024118,
0.01072,-0.4385894391,0.01072,3.654302942,
0.01074,-0.07315914489,0.01074,4.750593824,
0.01076,-0.4385894391,0.01076,4.750593824,
0.01078,1.023131738,0.01078,4.750593824,
0.0108,0.6577014434,0.0108,4.38516353,
0.01082,0.6577014434,0.01082,4.019733236,
0.01084,1.753992326,0.01084,4.38516353,
0.01086,2.484852914,0.01086,4.750593824,
0.01088,1.388562032,0.01088,4.019733236,
0.0109,2.484852914,0.0109,4.38516353,
0.01092,2.11942262,0.01092,4.750593824,
0.01094,1.753992326,0.01094,4.38516353,
0.01096,2.484852914,0.01096,4.38516353,
0.01098,2.850283208,0.01098,4.38516353,
0.011,3.215713503,0.011,4.38516353,
0.01102,3.946574091,0.01102,4.019733236,
0.01104,3.215713503,0.01104,4.38516353,
0.01106,3.581143797,0.01106,4.38516353,
0.01108,3.946574091,0.01108,4.38516353,
0.0111,0.2922711493,0.0111,4.750593824,
0.01112,2.484852914,0.01112,4.38516353,
0.01114,2.11942262,0.01114,4.019733236,
0.01116,1.753992326,0.01116,4.750593824,
0.01118,1.023131738,0.01118,4.38516353,
0.0112,-0.07315914489,0.0112,4.38516353,
0.01122,0.6577014434,0.01122,4.750593824,
0.01124,-0.4385894391,0.01124,4.750593824,
0.01126,-1.534880322,0.01126,4.38516353,
0.01128,-0.07315914489,0.01128,4.38516353,
0.0113,-1.900310616,0.0113,4.750593824,
0.01132,-4.092892381,0.01132,4.019733236,
0.01134,-1.169450027,0.01134,4.750593824,
0.01136,-3.362031792,0.01136,4.750593824,
0.01138,-2.996601498,0.01138,4.019733236,
0.0114,-2.631171204,0.0114,4.019733236,
0.01142,-3.362031792,0.01142,4.019733236,
0.01144,-3.727462087,0.01144,4.019733236,
0.01146,-3.727462087,0.01146,4.019733236,
0.01148,-3.727462087,0.01148,4.38516353,
0.0115,-2.631171204,0.0115,4.38516353,
0.01152,-2.996601498,0.01152,4.019733236,
0.01154,-3.362031792,0.01154,4.38516353,
0.01156,-3.727462087,0.01156,4.38516353,
0.01158,-3.362031792,0.01158,4.019733236,
0.0116,-2.26574091,0.0116,4.750593824,
0.01162,-1.534880322,0.01162,4.38516353,
0.01164,-2.631171204,0.01164,4.019733236,
0.01166,-0.4385894391,0.01166,4.38516353,
0.01168,-0.07315914489,0.01168,4.38516353,
0.0117,-1.169450027,0.0117,3.654302942,
0.01172,1.388562032,0.01172,4.019733236,
0.01174,0.2922711493,0.01174,4.019733236,
0.01176,1.388562032,0.01176,4.019733236,
0.01178,2.11942262,0.01178,4.019733236,
0.0118,2.484852914,0.0118,4.019733236,
0.01182,2.11942262,0.01182,4.019733236,
0.01184,2.850283208,0.01184,4.38516353,
0.01186,3.215713503,0.01186,4.019733236,
0.01188,2.850283208,0.01188,3.654302942,
0.0119,5.773725562,0.0119,4.38516353,
0.01192,3.215713503,0.01192,4.019733236,
0.01194,3.581143797,0.01194,3.654302942,
0.01196,4.312004385,0.01196,4.750593824,
0.01198,3.581143797,0.01198,4.019733236,
0.012,2.850283208,0.012,4.019733236,
0.01202,2.850283208,0.01202,4.019733236,
0.01204,3.581143797,0.01204,4.38516353,
0.01206,2.11942262,0.01206,4.019733236,
0.01208,2.484852914,0.01208,4.38516353,
0.0121,2.484852914,0.0121,4.38516353,
0.01212,0.6577014434,0.01212,4.019733236,
0.01214,1.023131738,0.01214,4.019733236,
0.01216,1.023131738,0.01216,4.019733236,
0.01218,-0.4385894391,0.01218,4.019733236,
0.0122,-0.4385894391,0.0122,4.019733236,
0.01222,-0.07315914489,0.01222,4.38516353,
0.01224,-1.534880322,0.01224,3.654302942,
0.01226,-1.900310616,0.01226,4.38516353,
0.01228,-2.26574091,0.01228,3.654302942,
0.0123,-3.362031792,0.0123,4.019733236,
0.01232,-2.631171204,0.01232,3.654302942,
0.01234,-2.996601498,0.01234,3.654302942,
0.01236,-4.458322675,0.01236,4.019733236,
0.01238,-3.362031792,0.01238,4.38516353,
0.0124,-5.189183263,0.0124,4.38516353,
0.01242,-4.458322675,0.01242,3.654302942,
0.01244,-2.996601498,0.01244,4.38516353,
0.01246,-2.996601498,0.01246,4.019733236,
0.01248,-2.631171204,0.01248,4.38516353,
0.0125,-2.26574091,0.0125,4.750593824,
0.01252,-1.900310616,0.01252,4.38516353,
0.01254,-1.900310616,0.01254,4.750593824,
0.01256,-2.26574091,0.01256,4.38516353,
0.01258,-1.169450027,0.01258,4.019733236,
0.0126,0.2922711493,0.0126,4.019733236,
0.01262,-0.07315914489,0.01262,4.750593824,
0.01264,-0.07315914489,0.01264,4.38516353,
0.01266,0.2922711493,0.01266,4.750593824,
0.01268,0.6577014434,0.01268,4.750593824,
0.0127,2.484852914,0.0127,4.38516353,
0.01272,1.753992326,0.01272,4.750593824,
0.01274,3.215713503,0.01274,3.288872648,
0.01276,2.850283208,0.01276,4.750593824,
0.01278,2.850283208,0.01278,4.38516353,
0.0128,3.215713503,0.0128,4.38516353,
0.01282,3.215713503,0.01282,4.750593824,
0.01284,1.753992326,0.01284,3.654302942,
0.01286,2.484852914,0.01286,4.019733236,
0.01288,2.484852914,0.01288,4.750593824,
0.0129,3.581143797,0.0129,4.38516353,
0.01292,3.215713503,0.01292,3.654302942,
0.01294,2.11942262,0.01294,5.481454413,
0.01296,2.484852914,0.01296,4.38516353,
0.01298,2.11942262,0.01298,4.38516353,
0.013,2.484852914,0.013,4.38516353,
0.01302,1.388562032,0.01302,4.38516353,
0.01304,0.6577014434,0.01304,4.750593824,
0.01306,1.023131738,0.01306,4.38516353,
0.01308,0.2922711493,0.01308,4.38516353,
0.0131,-0.07315914489,0.0131,3.654302942,
0.01312,-0.8040197332,0.01312,5.116024118,
0.01314,-0.4385894391,0.01314,4.019733236,
0.01316,-2.26574091,0.01316,4.019733236,
0.01318,-0.8040197332,0.01318,4.750593824,
0.0132,-1.900310616,0.0132,4.019733236,
0.01322,-3.727462087,0.01322,4.38516353,
0.01324,-2.631171204,0.01324,4.019733236,
0.01326,-1.900310616,0.01326,4.38516353,
0.01328,-2.631171204,0.01328,4.019733236,
0.0133,-4.092892381,0.0133,4.38516353,
0.01332,-5.554613557,0.01332,4.38516353,
0.01334,-4.458322675,0.01334,4.750593824,
0.01336,-4.458322675,0.01336,4.750593824,
0.01338,-4.458322675,0.01338,4.019733236,
0.0134,-4.458322675,0.0134,3.654302942,
0.01342,-2.996601498,0.01342,5.116024118,
0.01344,-3.362031792,0.01344,4.750593824,
0.01346,-4.458322675,0.01346,4.019733236,
0.01348,-2.631171204,0.01348,4.750593824,
0.0135,-0.4385894391,0.0135,3.654302942,
0.01352,-0.07315914489,0.01352,4.38516353,
0.01354,-0.8040197332,0.01354,4.38516353,
0.01356,0.2922711493,0.01356,4.38516353,
0.01358,-0.4385894391,0.01358,4.38516353,
0.0136,2.11942262,0.0136,4.750593824,
0.01362,0.6577014434,0.01362,4.019733236,
0.01364,1.753992326,0.01364,3.288872648,
0.01366,2.11942262,0.01366,4.38516353,
0.01368,0.6577014434,0.01368,4.019733236,
0.0137,3.215713503,0.0137,4.38516353,
0.01372,2.850283208,0.01372,4.750593824,
0.01374,2.11942262,0.01374,3.288872648,
0.01376,3.581143797,0.01376,4.019733236,
0.01378,3.581143797,0.01378,4.750593824,
0.0138,3.581143797,0.0138,4.750593824,
0.01382,3.946574091,0.01382,4.019733236,
0.01384,6.139155856,0.01384,5.846884707,
0.01386,3.581143797,0.01386,4.750593824,
0.01388,2.850283208,0.01388,4.019733236,
0.0139,2.850283208,0.0139,4.750593824,
0.01392,2.484852914,0.01392,4.019733236,
0.01394,2.11942262,0.01394,3.654302942,
0.01396,2.484852914,0.01396,4.750593824,
0.01398,0.6577014434,0.01398,4.38516353,
0.014,0.6577014434,0.014,4.019733236,
0.01402,-1.534880322,0.01402,4.750593824,
0.01404,1.023131738,0.01404,3.288872648,
0.01406,-1.169450027,0.01406,4.019733236,
0.01408,-0.07315914489,0.01408,4.750593824,
0.0141,-2.631171204,0.0141,3.654302942,
0.01412,-1.169450027,0.01412,4.38516353,
0.01414,-0.07315914489,0.01414,5.116024118,
0.01416,-5.554613557,0.01416,3.654302942,
0.01418,-3.727462087,0.01418,4.38516353,
0.0142,-2.996601498,0.0142,4.750593824,
0.01422,-3.727462087,0.01422,4.38516353,
0.01424,-5.189183263,0.01424,5.116024118,
0.01426,0.6577014434,0.01426,4.750593824,
0.01428,-4.458322675,0.01428,4.019733236,
0.0143,-4.092892381,0.0143,4.019733236,
0.01432,-3.362031792,0.01432,4.750593824,
0.01434,-2.631171204,0.01434,3.654302942,
0.01436,-3.362031792,0.01436,3.654302942,
0.01438,-1.169450027,0.01438,4.38516353,
0.0144,-2.26574091,0.0144,4.38516353,
0.01442,-2.631171204,0.01442,4.38516353,
0.01444,-1.169450027,0.01444,5.116024118,
0.01446,-1.534880322,0.01446,4.019733236,
0.01448,1.023131738,0.01448,4.019733236,
0.0145,-0.07315914489,0.0145,4.750593824,
0.01452,0.2922711493,0.01452,4.38516353,
0.01454,1.388562032,0.01454,4.38516353,
0.01456,2.850283208,0.01456,4.750593824,
0.01458,1.388562032,0.01458,4.38516353,
0.0146,1.753992326,0.0146,4.38516353,
0.01462,2.850283208,0.01462,5.116024118,
0.01464,2.484852914,0.01464,2.923442353,
0.01466,2.850283208,0.01466,4.019733236,
0.01468,1.753992326,0.01468,5.846884707,
0.0147,3.215713503,0.0147,4.38516353,
0.01472,5.408295268,0.01472,4.019733236,
0.01474,5.773725562,0.01474,5.116024118,
0.01476,4.312004385,0.01476,4.750593824,
0.01478,3.581143797,0.01478,4.38516353,
0.0148,4.312004385,0.0148,4.750593824,
0.01482,2.11942262,0.01482,4.38516353,
0.01484,0.6577014434,0.01484,4.019733236,
0.01486,1.023131738,0.01486,4.38516353,
0.01488,-0.07315914489,0.01488,4.38516353,
0.0149,1.388562032,0.0149,4.019733236,
0.01492,2.11942262,0.01492,4.38516353,
0.01494,0.2922711493,0.01494,4.019733236,
0.01496,-1.534880322,0.01496,4.019733236,
0.01498,-0.4385894391,0.01498,4.750593824,
0.015,-0.4385894391,0.015,4.750593824,
0.01502,-0.8040197332,0.01502,4.019733236,
0.01504,-1.900310616,0.01504,4.750593824,
0.01506,-2.631171204,0.01506,4.38516353,
0.01508,-3.362031792,0.01508,4.019733236,
0.0151,-4.092892381,0.0151,4.750593824,
0.01512,-3.362031792,0.01512,4.019733236,
0.01514,-3.727462087,0.01514,3.654302942,
0.01516,-1.900310616,0.01516,4.750593824,
0.01518,-6.285474146,0.01518,4.38516353,
0.0152,-4.458322675,0.0152,4.019733236,
0.01522,-3.362031792,0.01522,5.116024118,
0.01524,-5.189183263,0.01524,4.38516353,
0.01526,-2.996601498,0.01526,4.019733236,
0.01528,-2.631171204,0.01528,4.750593824,
0.0153,-4.092892381,0.0153,4.750593824,
0.01532,-2.26574091,0.01532,4.38516353,
0.01534,-0.8040197332,0.01534,4.750593824,
0.01536,-2.631171204,0.01536,4.019733236,
0.01538,-0.8040197332,0.01538,4.019733236,
0.0154,-1.169450027,0.0154,5.116024118,
0.01542,-0.07315914489,0.01542,4.750593824,
0.01544,-0.07315914489,0.01544,4.019733236,
0.01546,0.2922711493,0.01546,5.116024118,
0.01548,-2.631171204,0.01548,4.38516353,
0.0155,1.753992326,0.0155,4.019733236,
0.01552,2.484852914,0.01552,5.116024118,
0.01554,2.484852914,0.01554,4.38516353,
0.01556,2.850283208,0.01556,4.019733236,
0.01558,3.215713503,0.01558,4.750593824,
0.0156,3.581143797,0.0156,4.750593824,
0.01562,3.946574091,0.01562,4.38516353,
0.01564,3.946574091,0.01564,4.38516353,
0.01566,3.946574091,0.01566,4.750593824,
0.01568,3.581143797,0.01568,4.019733236,
0.0157,3.215713503,0.0157,4.750593824,
0.01572,3.581143797,0.01572,4.750593824,
0.01574,2.11942262,0.01574,4.019733236,
0.01576,3.215713503,0.01576,4.38516353,
0.01578,2.850283208,0.01578,4.38516353,
0.0158,0.2922711493,0.0158,4.019733236,
0.01582,2.11942262,0.01582,4.019733236,
0.01584,1.388562032,0.01584,4.38516353,
0.01586,-0.4385894391,0.01586,4.38516353,
0.01588,1.388562032,0.01588,4.750593824,
0.0159,0.2922711493,0.0159,4.38516353,
0.01592,-1.169450027,0.01592,4.019733236,
0.01594,-0.8040197332,0.01594,4.38516353,
0.01596,2.484852914,0.01596,5.481454413,
0.01598,-2.26574091,0.01598,4.38516353,
0.016,-2.631171204,0.016,4.38516353,
0.01602,-2.631171204,0.01602,4.38516353,
0.01604,-2.631171204,0.01604,4.019733236,
0.01606,-1.534880322,0.01606,4.750593824,
0.01608,-3.362031792,0.01608,4.38516353,
0.0161,-3.362031792,0.0161,4.019733236,
0.01612,-2.631171204,0.01612,4.38516353,
0.01614,-2.996601498,0.01614,3.288872648,
0.01616,-2.631171204,0.01616,4.38516353,
0.01618,-2.996601498,0.01618,4.750593824,
0.0162,-3.362031792,0.0162,4.019733236,
0.01622,-2.996601498,0.01622,4.019733236,
0.01624,-2.996601498,0.01624,4.750593824,
0.01626,-2.631171204,0.01626,4.750593824,
0.01628,-2.631171204,0.01628,4.019733236,
0.0163,-2.631171204,0.0163,4.750593824,
0.01632,-1.169450027,0.01632,4.019733236,
0.01634,-0.8040197332,0.01634,4.38516353,
0.01636,-0.8040197332,0.01636,5.116024118,
0.01638,-0.4385894391,0.01638,4.38516353,
0.0164,1.023131738,0.0164,4.750593824,
0.01642,1.023131738,0.01642,4.750593824,
0.01644,1.388562032,0.01644,4.750593824,
0.01646,2.11942262,0.01646,3.654302942,
0.01648,2.11942262,0.01648,4.38516353,
0.0165,2.850283208,0.0165,4.750593824,
0.01652,2.850283208,0.01652,4.38516353,
0.01654,3.581143797,0.01654,4.750593824,
0.01656,2.11942262,0.01656,4.38516353,
0.01658,3.946574091,0.01658,3.654302942,
0.0166,3.946574091,0.0166,4.750593824,
0.01662,3.581143797,0.01662,4.019733236,
0.01664,3.946574091,0.01664,4.38516353,
0.01666,4.312004385,0.01666,5.481454413,
0.01668,3.946574091,0.01668,4.38516353,
0.0167,3.215713503,0.0167,4.019733236,
0.01672,2.11942262,0.01672,4.750593824,
0.01674,2.11942262,0.01674,4.38516353,
0.01676,1.753992326,0.01676,2.923442353,
0.01678,1.388562032,0.01678,4.750593824,
0.0168,0.6577014434,0.0168,4.38516353,
0.01682,1.388562032,0.01682,4.019733236,
0.01684,-0.8040197332,0.01684,4.750593824,
0.01686,-1.534880322,0.01686,4.750593824,
0.01688,-1.534880322,0.01688,4.019733236,
0.0169,-2.26574091,0.0169,5.116024118,
0.01692,-1.169450027,0.01692,4.38516353,
0.01694,-2.631171204,0.01694,4.38516353,
0.01696,-2.996601498,0.01696,5.116024118,
0.01698,-2.631171204,0.01698,4.750593824,
0.017,-2.996601498,0.017,4.019733236,
0.01702,-4.458322675,0.01702,4.38516353,
0.01704,-2.996601498,0.01704,4.38516353,
0.01706,-2.631171204,0.01706,4.019733236,
0.01708,-2.631171204,0.01708,4.750593824,
0.0171,-4.092892381,0.0171,4.750593824,
0.01712,-3.727462087,0.01712,4.019733236,
0.01714,-5.554613557,0.01714,4.019733236,
0.01716,-2.631171204,0.01716,5.846884707,
0.01718,-1.900310616,0.01718,4.019733236,
0.0172,-2.26574091,0.0172,3.654302942,
0.01722,-0.8040197332,0.01722,4.38516353,
0.01724,-0.8040197332,0.01724,3.288872648,
0.01726,-1.169450027,0.01726,4.019733236,
0.01728,-1.534880322,0.01728,4.750593824,
0.0173,-0.4385894391,0.0173,4.38516353,
0.01732,1.023131738,0.01732,4.019733236,
0.01734,3.215713503,0.01734,4.38516353,
0.01736,2.11942262,0.01736,4.38516353,
0.01738,2.484852914,0.01738,3.654302942,
0.0174,2.484852914,0.0174,4.38516353,
0.01742,2.11942262,0.01742,4.38516353,
0.01744,2.484852914,0.01744,3.654302942,
0.01746,5.773725562,0.01746,5.116024118,
0.01748,4.312004385,0.01748,4.019733236,
0.0175,3.581143797,0.0175,4.019733236,
0.01752,3.581143797,0.01752,4.38516353,
0.01754,4.677434679,0.01754,4.38516353,
0.01756,3.215713503,0.01756,3.654302942,
0.01758,3.581143797,0.01758,4.019733236,
0.0176,3.215713503,0.0176,4.019733236,
0.01762,4.677434679,0.01762,4.750593824,
0.01764,3.215713503,0.01764,4.019733236,
0.01766,1.753992326,0.01766,4.38516353,
0.01768,2.484852914,0.01768,4.019733236,
0.0177,3.215713503,0.0177,4.019733236,
0.01772,0.6577014434,0.01772,4.750593824,
0.01774,1.388562032,0.01774,4.38516353,
0.01776,0.6577014434,0.01776,4.750593824,
0.01778,-0.4385894391,0.01778,4.019733236,
0.0178,1.388562032,0.0178,4.38516353,
0.01782,-2.996601498,0.01782,4.38516353,
0.01784,-2.631171204,0.01784,4.750593824,
0.01786,-1.900310616,0.01786,4.38516353,
0.01788,-0.4385894391,0.01788,4.38516353,
0.0179,-2.996601498,0.0179,4.750593824,
0.01792,-2.26574091,0.01792,4.38516353,
0.01794,-2.996601498,0.01794,4.38516353,
0.01796,-4.092892381,0.01796,4.019733236,
0.01798,-4.823752969,0.01798,4.019733236,
0.018,-2.996601498,0.018,4.750593824,
0.01802,-4.092892381,0.01802,4.38516353,
0.01804,-3.727462087,0.01804,4.019733236,
0.01806,-3.727462087,0.01806,4.38516353,
0.01808,-2.996601498,0.01808,4.38516353,
0.0181,-2.26574091,0.0181,4.38516353,
0.01812,-1.169450027,0.01812,4.019733236,
0.01814,-1.900310616,0.01814,4.38516353,
0.01816,-1.534880322,0.01816,5.116024118,
0.01818,1.023131738,0.01818,4.750593824,
0.0182,-0.8040197332,0.0182,4.019733236,
0.01822,0.6577014434,0.01822,4.750593824,
0.01824,-0.4385894391,0.01824,4.019733236,
0.01826,5.042864974,0.01826,4.38516353,
0.01828,0.2922711493,0.01828,5.116024118,
0.0183,1.753992326,0.0183,4.750593824,
0.01832,2.11942262,0.01832,4.019733236,
0.01834,3.946574091,0.01834,4.38516353,
0.01836,2.11942262,0.01836,3.654302942,
0.01838,4.312004385,0.01838,4.38516353,
0.0184,4.312004385,0.0184,4.750593824,
0.01842,4.312004385,0.01842,4.38516353,
0.01844,3.946574091,0.01844,3.654302942,
0.01846,3.581143797,0.01846,5.116024118,
0.01848,3.581143797,0.01848,4.38516353,
0.0185,3.581143797,0.0185,4.38516353,
0.01852,3.215713503,0.01852,4.38516353,
0.01854,2.850283208,0.01854,4.38516353,
0.01856,2.850283208,0.01856,4.38516353,
0.01858,6.50458615,0.01858,4.750593824,
0.0186,1.388562032,0.0186,4.750593824,
0.01862,2.11942262,0.01862,4.019733236,
0.01864,1.023131738,0.01864,4.750593824,
0.01866,1.023131738,0.01866,4.38516353,
0.01868,0.6577014434,0.01868,4.38516353,
0.0187,1.023131738,0.0187,4.38516353,
0.01872,-1.169450027,0.01872,4.38516353,
0.01874,-1.169450027,0.01874,4.38516353,
0.01876,-0.8040197332,0.01876,4.750593824,
0.01878,-0.4385894391,0.01878,4.38516353,
0.0188,-1.534880322,0.0188,4.750593824,
0.01882,-2.631171204,0.01882,4.750593824,
0.01884,-4.458322675,0.01884,4.38516353,
0.01886,-2.996601498,0.01886,4.019733236,
0.01888,-2.26574091,0.01888,4.750593824,
0.0189,-4.458322675,0.0189,4.750593824,
0.01892,-2.996601498,0.01892,4.019733236,
0.01894,-4.458322675,0.01894,4.750593824,
0.01896,-5.189183263,0.01896,4.019733236,
0.01898,-2.26574091,0.01898,4.019733236,
0.019,-2.996601498,0.019,4.38516353,
0.01902,-3.727462087,0.01902,4.38516353,
0.01904,-2.631171204,0.01904,4.019733236,
0.01906,-2.631171204,0.01906,4.750593824,
0.01908,-2.26574091,0.01908,4.750593824,
0.0191,-1.534880322,0.0191,4.38516353,
0.01912,-0.4385894391,0.01912,4.750593824,
0.01914,-2.26574091,0.01914,4.019733236,
0.01916,0.2922711493,0.01916,4.750593824,
0.01918,0.6577014434,0.01918,4.750593824,
0.0192,1.388562032,0.0192,4.38516353,
0.01922,1.753992326,0.01922,4.38516353,
0.01924,2.850283208,0.01924,4.38516353,
0.01926,1.753992326,0.01926,5.116024118,
0.01928,2.11942262,0.01928,4.38516353,
0.0193,2.11942262,0.0193,4.38516353,
0.01932,2.850283208,0.01932,4.38516353,
0.01934,1.753992326,0.01934,4.38516353,
0.01936,4.312004385,0.01936,4.38516353,
0.01938,2.850283208,0.01938,5.116024118,
0.0194,3.946574091,0.0194,4.38516353,
0.01942,3.581143797,0.01942,4.38516353,
0.01944,2.850283208,0.01944,4.38516353,
0.01946,3.215713503,0.01946,4.019733236,
0.01948,3.581143797,0.01948,4.019733236,
0.0195,2.11942262,0.0195,4.38516353,
0.01952,3.215713503,0.01952,4.38516353,
0.01954,2.11942262,0.01954,4.38516353,
0.01956,1.023131738,0.01956,4.38516353,
0.01958,1.753992326,0.01958,4.38516353,
0.0196,1.388562032,0.0196,4.38516353,
0.01962,-0.07315914489,0.01962,4.750593824,
0.01964,0.2922711493,0.01964,4.38516353,
0.01966,0.2922711493,0.01966,4.750593824,
0.01968,-1.534880322,0.01968,4.019733236,
0.0197,-1.900310616,0.0197,4.019733236,
0.01972,-3.727462087,0.01972,4.38516353,
0.01974,-3.362031792,0.01974,4.38516353,
0.01976,-2.996601498,0.01976,4.750593824,
0.01978,-2.996601498,0.01978,5.116024118,
0.0198,-3.362031792,0.0198,4.019733236,
0.01982,-2.631171204,0.01982,4.019733236,
0.01984,-3.362031792,0.01984,4.38516353,
0.01986,-2.996601498,0.01986,4.38516353,
0.01988,-3.362031792,0.01988,3.654302942,
0.0199,-3.362031792,0.0199,4.38516353,
0.01992,-3.727462087,0.01992,4.38516353,
0.01994,-2.26574091,0.01994,4.38516353,
0.01996,-2.26574091,0.01996,4.019733236,
0.01998,-1.900310616,0.01998,3.288872648,
0.02,-1.169450027,0.02,4.750593824,
0.02002,-2.631171204,0.02002,4.38516353,
0.02004,-1.534880322,0.02004,3.654302942,
0.02006,-1.534880322,0.02006,4.38516353,
0.02008,-0.07315914489,0.02008,5.116024118,
0.0201,-0.8040197332,0.0201,4.019733236,
0.02012,0.2922711493,0.02012,4.38516353,
0.02014,1.753992326,0.02014,4.019733236,
0.02016,0.6577014434,0.02016,4.019733236,
0.02018,2.484852914,0.02018,4.750593824,
0.0202,2.850283208,0.0202,4.019733236,
0.02022,2.11942262,0.02022,4.019733236,
0.02024,3.581143797,0.02024,4.019733236,
0.02026,2.484852914,0.02026,4.019733236,
0.02028,2.850283208,0.02028,2.923442353,
0.0203,2.484852914,0.0203,4.019733236,
0.02032,2.850283208,0.02032,4.38516353,
0.02034,3.581143797,0.02034,4.019733236,
0.02036,2.484852914,0.02036,4.38516353,
0.02038,3.946574091,0.02038,5.481454413,
0.0204,2.850283208,0.0204,3.654302942,
0.02042,3.946574091,0.02042,4.38516353,
0.02044,2.850283208,0.02044,4.38516353,
0.02046,2.11942262,0.02046,3.654302942,
0.02048,1.388562032,0.02048,4.38516353,
0.0205,2.484852914,0.0205,4.019733236,
0.02052,0.6577014434,0.02052,4.019733236,
0.02054,0.6577014434,0.02054,4.019733236,
0.02056,-0.8040197332,0.02056,4.38516353,
0.02058,-0.8040197332,0.02058,2.558012059,
0.0206,-1.534880322,0.0206,4.38516353,
0.02062,-0.8040197332,0.02062,4.750593824,
0.02064,-2.26574091,0.02064,4.38516353,
0.02066,-1.534880322,0.02066,4.38516353,
0.02068,-1.534880322,0.02068,4.38516353,
0.0207,-5.554613557,0.0207,3.654302942,
0.02072,-1.534880322,0.02072,4.019733236,
0.02074,-2.631171204,0.02074,4.019733236,
0.02076,-4.092892381,0.02076,4.019733236,
0.02078,-3.362031792,0.02078,5.481454413,
0.0208,-2.631171204,0.0208,4.38516353,
0.02082,-2.631171204,0.02082,3.654302942,
0.02084,-2.26574091,0.02084,4.38516353,
0.02086,-3.362031792,0.02086,4.019733236,
0.02088,-4.092892381,0.02088,3.288872648,
0.0209,-1.169450027,0.0209,4.019733236,
0.02092,-2.631171204,0.02092,4.019733236,
0.02094,-2.26574091,0.02094,4.019733236,
0.02096,-5.189183263,0.02096,4.38516353,
0.02098,-1.169450027,0.02098,3.654302942,
0.021,-2.996601498,0.021,4.019733236,
0.02102,0.2922711493,0.02102,4.019733236,
0.02104,0.2922711493,0.02104,4.38516353,
0.02106,0.6577014434,0.02106,4.38516353,
0.02108,-0.07315914489,0.02108,4.019733236,
0.0211,1.388562032,0.0211,4.38516353,
0.02112,2.11942262,0.02112,4.019733236,
0.02114,3.581143797,0.02114,4.750593824,
0.02116,3.215713503,0.02116,3.654302942,
0.02118,2.484852914,0.02118,4.38516353,
0.0212,4.312004385,0.0212,4.38516353,
0.02122,3.946574091,0.02122,4.019733236,
0.02124,2.11942262,0.02124,4.019733236,
0.02126,1.753992326,0.02126,4.750593824,
0.02128,3.581143797,0.02128,4.750593824,
0.0213,4.677434679,0.0213,4.019733236,
0.02132,4.312004385,0.02132,4.750593824,
0.02134,3.581143797,0.02134,4.019733236,
0.02136,3.581143797,0.02136,3.288872648,
0.02138,2.484852914,0.02138,4.38516353,
0.0214,0.6577014434,0.0214,4.019733236,
0.02142,1.023131738,0.02142,4.019733236,
0.02144,1.023131738,0.02144,4.38516353,
0.02146,2.484852914,0.02146,4.38516353,
0.02148,1.753992326,0.02148,3.654302942,
0.0215,1.753992326,0.0215,4.38516353,
0.02152,1.753992326,0.02152,4.38516353,
0.02154,-1.534880322,0.02154,3.654302942,
0.02156,-1.169450027,0.02156,5.116024118,
0.02158,0.2922711493,0.02158,4.019733236,
0.0216,-1.534880322,0.0216,4.019733236,
0.02162,-1.169450027,0.02162,4.019733236,
0.02164,-5.554613557,0.02164,4.38516353,
0.02166,-2.631171204,0.02166,4.38516353,
0.02168,-3.727462087,0.02168,4.38516353,
0.0217,-4.823752969,0.0217,4.38516353,
0.02172,-4.458322675,0.02172,3.288872648,
0.02174,-3.727462087,0.02174,4.019733236,
0.02176,-3.727462087,0.02176,4.38516353,
0.02178,-0.07315914489,0.02178,4.019733236,
0.0218,-2.631171204,0.0218,4.38516353,
0.02182,-1.169450027,0.02182,4.38516353,
0.02184,-1.534880322,0.02184,4.019733236,
0.02186,-3.727462087,0.02186,4.38516353,
0.02188,-2.26574091,0.02188,4.38516353,
0.0219,2.850283208,0.0219,4.38516353,
0.02192,-1.534880322,0.02192,4.38516353,
0.02194,-0.4385894391,0.02194,3.654302942,
0.02196,-0.8040197332,0.02196,5.116024118,
0.02198,-0.8040197332,0.02198,4.38516353,
0.022,-1.169450027,0.022,4.019733236,
0.02202,2.484852914,0.02202,4.750593824,
0.02204,1.023131738,0.02204,4.38516353,
0.02206,1.388562032,0.02206,4.019733236,
0.02208,2.850283208,0.02208,4.750593824,
0.0221,1.023131738,0.0221,4.38516353,
0.02212,2.850283208,0.02212,4.38516353,
0.02214,2.850283208,0.02214,4.750593824,
0.02216,3.215713503,0.02216,4.38516353,
0.02218,3.946574091,0.02218,3.654302942,
0.0222,4.677434679,0.0222,4.38516353,
0.02222,2.850283208,0.02222,4.019733236,
0.02224,2.484852914,0.02224,4.019733236,
0.02226,3.215713503,0.02226,4.750593824,
0.02228,2.850283208,0.02228,4.38516353,
0.0223,2.850283208,0.0223,3.654302942,
0.02232,2.11942262,0.02232,4.750593824,
0.02234,3.581143797,0.02234,4.019733236,
0.02236,1.388562032,0.02236,4.019733236,
0.02238,3.215713503,0.02238,4.750593824,
0.0224,2.484852914,0.0224,4.38516353,
0.02242,0.6577014434,0.02242,4.019733236,
0.02244,0.6577014434,0.02244,4.750593824,
0.02246,-1.900310616,0.02246,4.38516353,
0.02248,-1.534880322,0.02248,4.019733236,
0.0225,-1.534880322,0.0225,4.750593824,
0.02252,-2.996601498,0.02252,4.38516353,
0.02254,-2.26574091,0.02254,3.654302942,
0.02256,-1.900310616,0.02256,4.750593824,
0.02258,-3.727462087,0.02258,4.38516353,
0.0226,-4.092892381,0.0226,3.654302942,
0.02262,-3.727462087,0.02262,4.750593824,
0.02264,-3.727462087,0.02264,4.019733236,
0.02266,-2.996601498,0.02266,4.019733236,
0.02268,-3.362031792,0.02268,4.38516353,
0.0227,-3.362031792,0.0227,4.019733236,
0.02272,-4.458322675,0.02272,4.019733236,
0.02274,-3.727462087,0.02274,4.38516353,
0.02276,-2.631171204,0.02276,4.38516353,
0.02278,-2.26574091,0.02278,4.38516353,
0.0228,-1.900310616,0.0228,4.38516353,
0.02282,-1.534880322,0.02282,4.019733236,
0.02284,-1.900310616,0.02284,3.654302942,
0.02286,-1.900310616,0.02286,4.019733236,
0.02288,-0.07315914489,0.02288,4.38516353,
0.0229,1.388562032,0.0229,3.654302942,
0.02292,1.023131738,0.02292,4.019733236,
0.02294,2.11942262,0.02294,4.750593824,
0.02296,1.753992326,0.02296,3.654302942,
0.02298,1.753992326,0.02298,4.019733236,
0.023,2.850283208,0.023,4.38516353,
0.02302,3.215713503,0.02302,4.019733236,
0.02304,2.484852914,0.02304,4.38516353,
0.02306,2.850283208,0.02306,4.750593824,
0.02308,4.312004385,0.02308,4.019733236,
0.0231,1.753992326,0.0231,4.750593824,
0.02312,3.946574091,0.02312,5.116024118,
0.02314,3.215713503,0.02314,4.38516353,
0.02316,3.581143797,0.02316,4.750593824,
0.02318,2.850283208,0.02318,4.38516353,
0.0232,3.215713503,0.0232,4.019733236,
0.02322,3.946574091,0.02322,4.750593824,
0.02324,3.215713503,0.02324,4.38516353,
0.02326,2.484852914,0.02326,4.38516353,
0.02328,1.023131738,0.02328,4.38516353,
0.0233,0.2922711493,0.0233,4.019733236,
0.02332,1.388562032,0.02332,4.019733236,
0.02334,0.6577014434,0.02334,4.38516353,
0.02336,0.6577014434,0.02336,4.019733236,
0.02338,0.6577014434,0.02338,4.38516353,
0.0234,0.2922711493,0.0234,5.116024118,
0.02342,-1.534880322,0.02342,4.750593824,
0.02344,-1.534880322,0.02344,4.38516353,
0.02346,-2.996601498,0.02346,4.38516353,
0.02348,-4.092892381,0.02348,4.750593824,
0.0235,-2.996601498,0.0235,4.38516353,
0.02352,-3.362031792,0.02352,4.38516353,
0.02354,-3.362031792,0.02354,4.38516353,
0.02356,-4.092892381,0.02356,4.38516353,
0.02358,-4.092892381,0.02358,4.019733236,
0.0236,-4.092892381,0.0236,3.288872648,
0.02362,-3.362031792,0.02362,4.38516353,
0.02364,-3.362031792,0.02364,4.38516353,
0.02366,-2.996601498,0.02366,4.38516353,
0.02368,-2.996601498,0.02368,4.019733236,
0.0237,-2.631171204,0.0237,5.846884707,
0.02372,-2.996601498,0.02372,4.38516353,
0.02374,-1.169450027,0.02374,4.019733236,
0.02376,-1.534880322,0.02376,4.750593824,
0.02378,-1.900310616,0.02378,4.38516353,
0.0238,0.2922711493,0.0238,6.577745295,
0.02382,-0.4385894391,0.02382,4.38516353,
0.02384,-0.4385894391,0.02384,4.019733236,
0.02386,1.023131738,0.02386,4.38516353,
0.02388,1.023131738,0.02388,4.38516353,
0.0239,2.484852914,0.0239,4.750593824,
0.02392,2.484852914,0.02392,4.38516353,
0.02394,1.753992326,0.02394,4.38516353,
0.02396,1.388562032,0.02396,4.38516353,
0.02398,2.484852914,0.02398,4.38516353,
0.024,4.312004385,0.024,2.192581765,
0.02402,3.215713503,0.02402,4.38516353,
0.02404,2.484852914,0.02404,4.38516353,
0.02406,2.484852914,0.02406,4.38516353,
0.02408,3.215713503,0.02408,4.38516353,
0.0241,3.215713503,0.0241,4.38516353,
0.02412,4.312004385,0.02412,4.38516353,
0.02414,3.215713503,0.02414,4.38516353,
0.02416,3.946574091,0.02416,4.38516353,
0.02418,3.581143797,0.02418,4.38516353,
0.0242,3.215713503,0.0242,4.750593824,
0.02422,1.023131738,0.02422,4.38516353,
0.02424,1.023131738,0.02424,4.38516353,
0.02426,1.023131738,0.02426,4.38516353,
0.02428,1.023131738,0.02428,4.019733236,
0.0243,0.2922711493,0.0243,3.288872648,
0.02432,-0.4385894391,0.02432,4.38516353,
0.02434,-0.07315914489,0.02434,4.750593824,
0.02436,-2.996601498,0.02436,4.750593824,
0.02438,-1.534880322,0.02438,4.38516353,
0.0244,-1.900310616,0.0244,5.481454413,
0.02442,-2.26574091,0.02442,4.750593824,
0.02444,-2.631171204,0.02444,4.38516353,
0.02446,-2.26574091,0.02446,4.38516353,
0.02448,-4.092892381,0.02448,4.38516353,
0.0245,-2.631171204,0.0245,4.750593824,
0.02452,-4.823752969,0.02452,3.654302942,
0.02454,-4.092892381,0.02454,4.750593824,
0.02456,-2.26574091,0.02456,4.38516353,
0.02458,-2.26574091,0.02458,4.38516353,
0.0246,-4.092892381,0.0246,3.654302942,
0.02462,-2.996601498,0.02462,4.38516353,
0.02464,-1.534880322,0.02464,4.019733236,
0.02466,-2.631171204,0.02466,4.38516353,
0.02468,-1.169450027,0.02468,4.38516353,
0.0247,-1.534880322,0.0247,4.750593824,
0.02472,-0.8040197332,0.02472,4.750593824,
0.02474,-1.169450027,0.02474,4.019733236,
0.02476,-0.8040197332,0.02476,4.019733236,
0.02478,1.388562032,0.02478,4.750593824,
0.0248,0.6577014434,0.0248,5.116024118,
0.02482,0.6577014434,0.02482,4.019733236,
0.02484,1.753992326,0.02484,4.750593824,
0.02486,0.6577014434,0.02486,4.019733236,
0.02488,2.484852914,0.02488,4.019733236,
0.0249,3.581143797,0.0249,5.481454413,
0.02492,2.484852914,0.02492,4.38516353,
0.02494,3.215713503,0.02494,4.019733236,
0.02496,3.215713503,0.02496,5.116024118,
0.02498,3.581143797,0.02498,4.750593824,
0.025,4.312004385,0.025,3.288872648,
0.02502,4.312004385,0.02502,4.750593824,
0.02504,3.581143797,0.02504,4.750593824,
0.02506,3.215713503,0.02506,4.019733236,
0.02508,3.946574091,0.02508,4.750593824,
0.0251,3.215713503,0.0251,4.750593824,
0.02512,2.484852914,0.02512,4.019733236,
0.02514,1.753992326,0.02514,4.750593824,
0.02516,1.753992326,0.02516,4.019733236,
0.02518,-0.4385894391,0.02518,4.38516353,
0.0252,-0.07315914489,0.0252,4.750593824,
0.02522,0.2922711493,0.02522,4.019733236,
0.02524,-0.07315914489,0.02524,3.288872648,
0.02526,-1.169450027,0.02526,4.38516353,
0.02528,-1.534880322,0.02528,4.019733236,
0.0253,-2.26574091,0.0253,3.654302942,
0.02532,-2.26574091,0.02532,4.750593824,
0.02534,-2.26574091,0.02534,4.38516353,
0.02536,-4.092892381,0.02536,4.019733236,
0.02538,-2.26574091,0.02538,4.750593824,
0.0254,-2.996601498,0.0254,4.019733236,
0.02542,-2.996601498,0.02542,4.019733236,
0.02544,-3.362031792,0.02544,4.750593824,
0.02546,-3.362031792,0.02546,4.38516353,
0.02548,-5.554613557,0.02548,4.019733236,
0.0255,-2.996601498,0.0255,4.750593824,
0.02552,-3.362031792,0.02552,4.019733236,
0.02554,-4.458322675,0.02554,4.38516353,
0.02556,-2.996601498,0.02556,5.116024118,
0.02558,-2.631171204,0.02558,4.38516353,
0.0256,-2.26574091,0.0256,3.654302942,
0.02562,-1.169450027,0.02562,4.750593824,
0.02564,-2.26574091,0.02564,4.38516353,
0.02566,-1.169450027,0.02566,4.019733236,
0.02568,-0.4385894391,0.02568,4.38516353,
0.0257,-1.534880322,0.0257,4.38516353,
0.02572,2.484852914,0.02572,4.019733236,
0.02574,-1.169450027,0.02574,5.481454413,
0.02576,2.850283208,0.02576,4.019733236,
0.02578,1.753992326,0.02578,4.019733236,
0.0258,-0.8040197332,0.0258,5.116024118,
0.02582,2.484852914,0.02582,4.38516353,
0.02584,2.850283208,0.02584,3.654302942,
0.02586,2.850283208,0.02586,4.38516353,
0.02588,3.215713503,0.02588,4.38516353,
0.0259,3.215713503,0.0259,4.019733236,
0.02592,4.312004385,0.02592,4.750593824,
0.02594,3.215713503,0.02594,4.38516353,
0.02596,2.11942262,0.02596,4.019733236,
0.02598,2.850283208,0.02598,4.750593824,
0.026,3.581143797,0.026,4.019733236,
0.02602,2.484852914,0.02602,4.019733236,
0.02604,2.484852914,0.02604,4.750593824,
0.02606,2.484852914,0.02606,4.38516353,
0.02608,2.11942262,0.02608,4.019733236,
0.0261,1.753992326,0.0261,4.750593824,
0.02612,0.6577014434,0.02612,4.38516353,
0.02614,-0.07315914489,0.02614,4.38516353,
0.02616,0.2922711493,0.02616,5.846884707,
0.02618,0.2922711493,0.02618,3.654302942,
0.0262,-1.900310616,0.0262,4.019733236,
0.02622,-1.534880322,0.02622,5.116024118,
0.02624,-1.534880322,0.02624,4.38516353,
0.02626,-2.631171204,0.02626,4.019733236,
0.02628,-2.631171204,0.02628,4.750593824,
0.0263,-3.362031792,0.0263,4.38516353,
0.02632,-4.092892381,0.02632,4.38516353,
0.02634,-4.823752969,0.02634,4.750593824,
0.02636,-3.727462087,0.02636,4.019733236,
0.02638,-4.092892381,0.02638,4.019733236,
0.0264,-3.727462087,0.0264,4.750593824,
0.02642,-4.092892381,0.02642,4.38516353,
0.02644,-4.458322675,0.02644,4.38516353,
0.02646,-2.996601498,0.02646,4.750593824,
0.02648,-2.996601498,0.02648,4.019733236,
0.0265,-2.26574091,0.0265,3.654302942,
0.02652,-2.631171204,0.02652,4.750593824,
0.02654,-2.631171204,0.02654,4.019733236,
0.02656,-1.900310616,0.02656,3.654302942,
0.02658,-0.8040197332,0.02658,4.750593824,
0.0266,-0.8040197332,0.0266,4.019733236,
0.02662,-0.4385894391,0.02662,3.654302942,
0.02664,-0.07315914489,0.02664,4.750593824,
0.02666,0.2922711493,0.02666,4.38516353,
0.02668,1.388562032,0.02668,4.019733236,
0.0267,1.388562032,0.0267,4.750593824,
0.02672,2.484852914,0.02672,4.750593824,
0.02674,2.850283208,0.02674,4.38516353,
0.02676,2.11942262,0.02676,4.38516353,
0.02678,2.484852914,0.02678,4.38516353,
0.0268,3.581143797,0.0268,4.019733236,
0.02682,3.946574091,0.02682,3.654302942,
0.02684,3.581143797,0.02684,4.38516353,
0.02686,3.581143797,0.02686,4.38516353,
0.02688,4.312004385,0.02688,4.38516353,
0.0269,2.850283208,0.0269,4.38516353,
0.02692,3.581143797,0.02692,4.38516353,
0.02694,3.946574091,0.02694,4.019733236,
0.02696,3.946574091,0.02696,4.38516353,
0.02698,3.581143797,0.02698,4.38516353,
0.027,2.850283208,0.027,4.38516353,
0.02702,1.753992326,0.02702,5.116024118,
0.02704,1.388562032,0.02704,4.38516353,
0.02706,0.2922711493,0.02706,4.750593824,
0.02708,-0.07315914489,0.02708,4.750593824,
0.0271,-1.900310616,0.0271,4.38516353,
0.02712,-0.8040197332,0.02712,3.654302942,
0.02714,-1.534880322,0.02714,4.750593824,
0.02716,-2.631171204,0.02716,4.38516353,
0.02718,-2.26574091,0.02718,4.750593824,
0.0272,-1.534880322,0.0272,4.750593824,
0.02722,-3.727462087,0.02722,4.38516353,
0.02724,-2.631171204,0.02724,4.38516353,
0.02726,-3.727462087,0.02726,4.38516353,
0.02728,-3.362031792,0.02728,4.38516353,
0.0273,-3.362031792,0.0273,4.750593824,
0.02732,-4.823752969,0.02732,4.38516353,
0.02734,-2.996601498,0.02734,4.019733236,
0.02736,-2.996601498,0.02736,4.38516353,
0.02738,-2.631171204,0.02738,4.38516353,
0.0274,-2.631171204,0.0274,3.654302942,
0.02742,-7.016334734,0.02742,4.019733236,
0.02744,-3.362031792,0.02744,5.116024118,
0.02746,-1.900310616,0.02746,4.38516353,
0.02748,-2.26574091,0.02748,4.38516353,
0.0275,-1.900310616,0.0275,4.38516353,
0.02752,-0.8040197332,0.02752,5.116024118,
0.02754,-0.8040197332,0.02754,4.019733236,
0.02756,-0.4385894391,0.02756,4.38516353,
0.02758,0.2922711493,0.02758,4.38516353,
0.0276,1.753992326,0.0276,4.38516353,
0.02762,0.6577014434,0.02762,4.019733236,
0.02764,2.850283208,0.02764,4.019733236,
0.02766,2.850283208,0.02766,4.38516353,
0.02768,2.11942262,0.02768,4.38516353,
0.0277,2.850283208,0.0277,4.38516353,
0.02772,3.946574091,0.02772,3.654302942,
0.02774,2.11942262,0.02774,4.38516353,
0.02776,2.850283208,0.02776,4.38516353,
0.02778,3.946574091,0.02778,4.750593824,
0.0278,3.215713503,0.0278,4.38516353,
0.02782,2.484852914,0.02782,5.116024118,
0.02784,4.677434679,0.02784,4.38516353,
0.02786,4.312004385,0.02786,4.019733236,
0.02788,3.581143797,0.02788,4.38516353,
0.0279,2.850283208,0.0279,4.019733236,
0.02792,2.484852914,0.02792,4.019733236,
0.02794,3.581143797,0.02794,4.38516353,
0.02796,2.850283208,0.02796,4.38516353,
0.02798,0.6577014434,0.02798,4.38516353,
0.028,0.6577014434,0.028,4.38516353,
0.02802,-0.07315914489,0.02802,3.654302942,
0.02804,-2.631171204,0.02804,4.38516353,
0.02806,-0.8040197332,0.02806,4.019733236,
0.02808,-0.4385894391,0.02808,4.750593824,
0.0281,-2.26574091,0.0281,4.750593824,
0.02812,-2.631171204,0.02812,4.750593824,
0.02814,-3.362031792,0.02814,4.38516353,
0.02816,-2.631171204,0.02816,4.38516353,
0.02818,-1.169450027,0.02818,5.116024118,
0.0282,-3.362031792,0.0282,4.750593824,
0.02822,-2.26574091,0.02822,4.019733236,
0.02824,-1.900310616,0.02824,4.750593824,
0.02826,-4.092892381,0.02826,5.116024118,
0.02828,-3.362031792,0.02828,4.38516353,
0.0283,-2.631171204,0.0283,4.38516353,
0.02832,-4.458322675,0.02832,4.38516353,
0.02834,-2.996601498,0.02834,4.750593824,
0.02836,-3.727462087,0.02836,4.750593824,
0.02838,-1.900310616,0.02838,4.750593824,
0.0284,-3.727462087,0.0284,4.38516353,
0.02842,-0.8040197332,0.02842,5.116024118,
0.02844,-0.4385894391,0.02844,4.38516353,
0.02846,-0.4385894391,0.02846,4.38516353,
0.02848,-0.8040197332,0.02848,4.750593824,
0.0285,-1.169450027,0.0285,4.38516353,
0.02852,1.023131738,0.02852,4.38516353,
0.02854,-0.07315914489,0.02854,4.38516353,
0.02856,-0.07315914489,0.02856,4.019733236,
0.02858,3.215713503,0.02858,4.38516353,
0.0286,3.215713503,0.0286,4.38516353,
0.02862,1.023131738,0.02862,3.654302942,
0.02864,1.388562032,0.02864,4.38516353,
0.02866,3.215713503,0.02866,4.38516353,
0.02868,3.581143797,0.02868,2.923442353,
0.0287,2.484852914,0.0287,4.019733236,
0.02872,2.11942262,0.02872,4.019733236,
0.02874,2.484852914,0.02874,4.38516353,
0.02876,5.773725562,0.02876,4.38516353,
0.02878,3.946574091,0.02878,4.019733236,
0.0288,2.850283208,0.0288,3.654302942,
0.02882,3.581143797,0.02882,4.750593824,
0.02884,2.850283208,0.02884,4.019733236,
0.02886,2.11942262,0.02886,4.38516353,
0.02888,1.388562032,0.02888,4.019733236,
0.0289,1.388562032,0.0289,4.38516353,
0.02892,2.484852914,0.02892,4.38516353,
0.02894,2.11942262,0.02894,4.019733236,
0.02896,0.6577014434,0.02896,4.750593824,
0.02898,-0.8040197332,0.02898,4.019733236,
0.029,-1.534880322,0.029,4.019733236,
0.02902,-2.996601498,0.02902,4.750593824,
0.02904,-2.996601498,0.02904,4.019733236,
0.02906,-1.900310616,0.02906,4.019733236,
0.02908,-1.900310616,0.02908,4.38516353,
0.0291,-3.727462087,0.0291,4.019733236,
0.02912,-2.631171204,0.02912,4.38516353,
0.02914,-5.554613557,0.02914,4.38516353,
0.02916,-3.362031792,0.02916,3.654302942,
0.02918,-3.362031792,0.02918,4.38516353,
0.0292,-3.362031792,0.0292,4.019733236,
0.02922,-3.727462087,0.02922,4.019733236,
0.02924,-5.920043852,0.02924,4.019733236,
0.02926,-4.092892381,0.02926,4.38516353,
0.02928,-2.996601498,0.02928,3.654302942,
0.0293,-1.900310616,0.0293,4.019733236,
0.02932,-2.26574091,0.02932,4.38516353,
0.02934,-2.996601498,0.02934,3.654302942,
0.02936,-1.534880322,0.02936,4.38516353,
0.02938,-2.631171204,0.02938,4.019733236,
0.0294,0.6577014434,0.0294,4.019733236,
0.02942,0.2922711493,0.02942,3.654302942,
0.02944,0.6577014434,0.02944,4.38516353,
0.02946,-0.07315914489,0.02946,4.019733236,
0.02948,1.388562032,0.02948,4.38516353,
0.0295,1.388562032,0.0295,4.019733236,
0.02952,2.850283208,0.02952,4.019733236,
0.02954,3.946574091,0.02954,4.38516353,
0.02956,4.677434679,0.02956,4.38516353,
0.02958,3.581143797,0.02958,4.38516353,
0.0296,3.581143797,0.0296,4.38516353,
0.02962,3.946574091,0.02962,4.38516353,
0.02964,2.850283208,0.02964,4.019733236,
0.02966,5.408295268,0.02966,4.750593824,
0.02968,4.312004385,0.02968,4.38516353,
0.0297,3.581143797,0.0297,4.019733236,
0.02972,2.850283208,0.02972,4.019733236,
0.02974,3.946574091,0.02974,4.38516353,
0.02976,3.215713503,0.02976,4.019733236,
0.02978,3.215713503,0.02978,4.38516353,
0.0298,2.484852914,0.0298,4.38516353,
0.02982,1.753992326,0.02982,4.019733236,
0.02984,1.388562032,0.02984,4.019733236,
0.02986,1.023131738,0.02986,4.38516353,
0.02988,0.6577014434,0.02988,4.38516353,
0.0299,-1.169450027,0.0299,4.019733236,
0.02992,-0.4385894391,0.02992,4.019733236,
0.02994,-1.534880322,0.02994,3.654302942,
0.02996,-1.900310616,0.02996,4.019733236,
0.02998,-1.900310616,0.02998,4.38516353,
0.03,-3.362031792,0.03,4.019733236,
0.03002,-1.900310616,0.03002,4.750593824,
0.03004,0.2922711493,0.03004,3.654302942,
0.03006,-3.362031792,0.03006,3.654302942,
0.03008,-2.26574091,0.03008,4.38516353,
0.0301,-3.362031792,0.0301,4.38516353,
0.03012,-3.727462087,0.03012,4.38516353,
0.03014,-3.727462087,0.03014,4.38516353,
0.03016,-2.996601498,0.03016,3.654302942,
0.03018,-2.996601498,0.03018,4.019733236,
0.0302,-3.362031792,0.0302,4.019733236,
0.03022,-2.26574091,0.03022,4.019733236,
0.03024,-4.823752969,0.03024,4.019733236,
0.03026,-2.26574091,0.03026,4.019733236,
0.03028,-2.996601498,0.03028,4.38516353,
0.0303,-1.534880322,0.0303,4.019733236,
0.03032,-0.4385894391,0.03032,4.750593824,
0.03034,0.6577014434,0.03034,3.654302942,
0.03036,-0.4385894391,0.03036,4.38516353,
0.03038,-1.169450027,0.03038,4.38516353,
0.0304,1.388562032,0.0304,4.38516353,
0.03042,1.388562032,0.03042,4.019733236,
0.03044,3.581143797,0.03044,5.481454413,
0.03046,2.11942262,0.03046,4.750593824,
0.03048,3.581143797,0.03048,4.750593824,
0.0305,2.11942262,0.0305,4.019733236,
0.03052,3.215713503,0.03052,4.019733236,
0.03054,7.235446739,0.03054,3.654302942,
0.03056,3.215713503,0.03056,4.38516353,
0.03058,3.581143797,0.03058,4.750593824,
0.0306,3.946574091,0.0306,4.38516353,
0.03062,3.581143797,0.03062,4.019733236,
0.03064,1.753992326,0.03064,3.654302942,
0.03066,2.484852914,0.03066,4.750593824,
0.03068,2.484852914,0.03068,4.019733236,
0.0307,2.850283208,0.0307,4.019733236,
0.03072,2.850283208,0.03072,4.750593824,
0.03074,1.753992326,0.03074,5.481454413,
0.03076,0.2922711493,0.03076,4.019733236,
0.03078,1.023131738,0.03078,4.750593824,
0.0308,1.023131738,0.0308,4.38516353,
0.03082,2.11942262,0.03082,4.019733236,
0.03084,-0.07315914489,0.03084,6.212315001,
0.03086,-1.534880322,0.03086,4.019733236,
0.03088,-1.534880322,0.03088,4.38516353,
0.0309,-0.07315914489,0.0309,4.38516353,
0.03092,-2.631171204,0.03092,4.019733236,
0.03094,-1.534880322,0.03094,2.558012059,
0.03096,-3.727462087,0.03096,5.116024118,
0.03098,-3.727462087,0.03098,4.019733236,
0.031,-3.727462087,0.031,4.019733236,
0.03102,-2.26574091,0.03102,4.750593824,
0.03104,-4.458322675,0.03104,5.846884707,
0.03106,-4.458322675,0.03106,4.019733236,
0.03108,-0.4385894391,0.03108,4.750593824,
0.0311,-3.362031792,0.0311,4.38516353,
0.03112,-3.727462087,0.03112,3.654302942,
0.03114,-1.900310616,0.03114,3.654302942,
0.03116,-3.727462087,0.03116,4.019733236,
0.03118,-2.631171204,0.03118,4.019733236,
0.0312,-1.900310616,0.0312,5.116024118,
0.03122,-2.26574091,0.03122,4.38516353,
0.03124,-1.534880322,0.03124,3.288872648,
0.03126,-0.4385894391,0.03126,5.116024118,
0.03128,-1.169450027,0.03128,3.654302942,
0.0313,-0.4385894391,0.0313,4.019733236,
0.03132,0.2922711493,0.03132,4.750593824,
0.03134,1.023131738,0.03134,5.116024118,
0.03136,1.023131738,0.03136,4.019733236,
0.03138,2.11942262,0.03138,5.116024118,
0.0314,1.388562032,0.0314,4.38516353,
0.03142,2.484852914,0.03142,4.019733236,
0.03144,2.850283208,0.03144,5.116024118,
0.03146,2.11942262,0.03146,4.38516353,
0.03148,3.215713503,0.03148,4.38516353,
0.0315,3.215713503,0.0315,5.116024118,
0.03152,5.042864974,0.03152,4.38516353,
0.03154,3.215713503,0.03154,3.288872648,
0.03156,3.581143797,0.03156,4.750593824,
0.03158,3.946574091,0.03158,4.38516353,
0.0316,3.215713503,0.0316,4.019733236,
0.03162,3.215713503,0.03162,5.116024118,
0.03164,1.023131738,0.03164,3.654302942,
0.03166,2.850283208,0.03166,4.019733236,
0.03168,0.6577014434,0.03168,5.116024118,
0.0317,4.677434679,0.0317,4.019733236,
0.03172,0.2922711493,0.03172,4.38516353,
0.03174,1.023131738,0.03174,6.212315001,
0.03176,-0.8040197332,0.03176,4.019733236,
0.03178,-0.8040197332,0.03178,4.019733236,
0.0318,-0.8040197332,0.0318,4.38516353,
0.03182,-1.169450027,0.03182,4.019733236,
0.03184,-2.26574091,0.03184,4.019733236,
0.03186,-2.996601498,0.03186,4.750593824,
0.03188,-3.362031792,0.03188,4.019733236,
0.0319,-2.631171204,0.0319,4.019733236,
0.03192,-3.727462087,0.03192,4.750593824,
0.03194,-3.727462087,0.03194,4.019733236,
0.03196,-2.631171204,0.03196,4.019733236,
0.03198,-4.092892381,0.03198,4.750593824,
0.032,-4.823752969,0.032,4.38516353,
0.03202,-3.727462087,0.03202,4.38516353,
0.03204,-2.996601498,0.03204,5.116024118,
0.03206,-4.458322675,0.03206,4.38516353,
0.03208,-1.900310616,0.03208,4.38516353,
0.0321,-2.631171204,0.0321,4.750593824,
0.03212,-2.631171204,0.03212,4.38516353,
0.03214,-2.631171204,0.03214,4.019733236,
0.03216,-1.534880322,0.03216,4.750593824,
0.03218,-2.631171204,0.03218,4.38516353,
0.0322,-1.169450027,0.0322,4.019733236,
0.03222,-0.4385894391,0.03222,4.38516353,
0.03224,1.023131738,0.03224,4.750593824,
0.03226,1.753992326,0.03226,4.019733236,
0.03228,0.2922711493,0.03228,4.750593824,
0.0323,-0.07315914489,0.0323,3.288872648,
0.03232,1.753992326,0.03232,4.38516353,
0.03234,0.2922711493,0.03234,4.019733236,
0.03236,2.11942262,0.03236,4.019733236,
0.03238,3.946574091,0.03238,4.750593824,
0.0324,2.850283208,0.0324,4.38516353,
0.03242,3.581143797,0.03242,4.38516353,
0.03244,2.484852914,0.03244,4.750593824,
0.03246,5.042864974,0.03246,4.38516353,
0.03248,2.484852914,0.03248,4.750593824,
0.0325,3.946574091,0.0325,4.750593824,
0.03252,2.11942262,0.03252,4.38516353,
0.03254,2.484852914,0.03254,4.019733236,
0.03256,3.215713503,0.03256,4.38516353,
0.03258,1.023131738,0.03258,5.116024118,
0.0326,2.11942262,0.0326,4.38516353,
0.03262,1.753992326,0.03262,4.750593824,
0.03264,1.023131738,0.03264,4.38516353,
0.03266,0.2922711493,0.03266,4.38516353,
0.03268,-0.07315914489,0.03268,4.750593824,
0.0327,0.2922711493,0.0327,4.38516353,
0.03272,-1.534880322,0.03272,4.38516353,
0.03274,-0.4385894391,0.03274,4.38516353,
0.03276,-1.900310616,0.03276,4.38516353,
0.03278,-0.8040197332,0.03278,4.750593824,
0.0328,-2.26574091,0.0328,4.38516353,
0.03282,-2.996601498,0.03282,4.750593824,
0.03284,-2.631171204,0.03284,4.38516353,
0.03286,-2.631171204,0.03286,4.750593824,
0.03288,-2.996601498,0.03288,4.750593824,
0.0329,-3.727462087,0.0329,4.38516353,
0.03292,-2.996601498,0.03292,4.38516353,
0.03294,-3.362031792,0.03294,4.38516353,
0.03296,-1.900310616,0.03296,4.019733236,
0.03298,-2.996601498,0.03298,4.38516353,
0.033,-3.362031792,0.033,4.019733236,
0.03302,-3.727462087,0.03302,4.38516353,
0.03304,-2.26574091,0.03304,4.750593824,
0.03306,-1.900310616,0.03306,4.38516353,
0.03308,-1.900310616,0.03308,4.019733236,
0.0331,-1.900310616,0.0331,4.38516353,
0.03312,-0.4385894391,0.03312,4.019733236,
0.03314,-0.07315914489,0.03314,4.38516353,
0.03316,3.581143797,0.03316,4.38516353,
0.03318,2.850283208,0.03318,4.38516353,
0.0332,1.023131738,0.0332,4.019733236,
0.03322,1.753992326,0.03322,4.019733236,
0.03324,2.484852914,0.03324,4.38516353,
0.03326,3.215713503,0.03326,4.38516353,
0.03328,0.6577014434,0.03328,4.750593824,
0.0333,3.581143797,0.0333,4.019733236,
0.03332,3.215713503,0.03332,4.38516353,
0.03334,2.850283208,0.03334,4.019733236,
0.03336,3.946574091,0.03336,4.750593824,
0.03338,4.677434679,0.03338,4.019733236,
0.0334,5.042864974,0.0334,4.38516353,
0.03342,2.850283208,0.03342,5.116024118,
0.03344,3.946574091,0.03344,4.019733236,
0.03346,2.11942262,0.03346,3.654302942,
0.03348,2.850283208,0.03348,4.750593824,
0.0335,1.023131738,0.0335,4.38516353,
0.03352,1.388562032,0.03352,4.019733236,
0.03354,2.11942262,0.03354,4.750593824,
0.03356,2.11942262,0.03356,4.750593824,
0.03358,-0.07315914489,0.03358,4.019733236,
0.0336,0.6577014434,0.0336,5.116024118,
0.03362,-1.169450027,0.03362,4.38516353,
0.03364,-0.8040197332,0.03364,4.38516353,
0.03366,-1.169450027,0.03366,4.750593824,
0.03368,-1.900310616,0.03368,4.019733236,
0.0337,-1.900310616,0.0337,4.019733236,
0.03372,-1.169450027,0.03372,4.750593824,
0.03374,-3.727462087,0.03374,4.019733236,
0.03376,-1.900310616,0.03376,3.288872648,
0.03378,-3.727462087,0.03378,4.750593824,
0.0338,-3.727462087,0.0338,4.750593824,
0.03382,-3.727462087,0.03382,4.019733236,
0.03384,-3.727462087,0.03384,5.116024118,
0.03386,-4.092892381,0.03386,5.116024118,
0.03388,-4.092892381,0.03388,4.019733236,
0.0339,-2.996601498,0.0339,4.750593824,
0.03392,-3.727462087,0.03392,4.38516353,
0.03394,-1.900310616,0.03394,4.019733236,
0.03396,-2.631171204,0.03396,4.750593824,
0.03398,-2.631171204,0.03398,4.38516353,
0.034,-2.26574091,0.034,4.019733236,
0.03402,-0.07315914489,0.03402,4.38516353,
0.03404,-1.534880322,0.03404,4.019733236,
0.03406,-2.26574091,0.03406,2.923442353,
0.03408,-0.07315914489,0.03408,4.38516353,
0.0341,-0.4385894391,0.0341,4.019733236,
0.03412,-1.169450027,0.03412,4.38516353,
0.03414,1.023131738,0.03414,4.38516353,
0.03416,1.023131738,0.03416,4.019733236,
0.03418,1.753992326,0.03418,4.019733236,
0.0342,2.850283208,0.0342,4.750593824,
0.03422,2.484852914,0.03422,4.38516353,
0.03424,4.312004385,0.03424,4.38516353,
0.03426,2.850283208,0.03426,5.481454413,
0.03428,3.946574091,0.03428,4.019733236,
0.0343,3.581143797,0.0343,4.38516353,
0.03432,2.484852914,0.03432,4.750593824,
0.03434,3.215713503,0.03434,4.38516353,
0.03436,2.850283208,0.03436,4.019733236,
0.03438,3.946574091,0.03438,4.750593824,
0.0344,3.215713503,0.0344,4.750593824,
0.03442,2.850283208,0.03442,4.38516353,
0.03444,2.850283208,0.03444,4.750593824,
0.03446,2.484852914,0.03446,2.923442353,
0.03448,0.6577014434,0.03448,4.019733236,
0.0345,1.023131738,0.0345,4.750593824,
0.03452,0.2922711493,0.03452,4.019733236,
0.03454,-1.534880322,0.03454,3.654302942,
0.03456,-0.4385894391,0.03456,3.654302942,
0.03458,-1.169450027,0.03458,3.654302942,
0.0346,-1.534880322,0.0346,4.38516353,
0.03462,-1.900310616,0.03462,5.116024118,
0.03464,-2.26574091,0.03464,4.38516353,
0.03466,-2.996601498,0.03466,3.288872648,
0.03468,-3.727462087,0.03468,4.750593824,
0.0347,-2.996601498,0.0347,4.019733236,
0.03472,-3.727462087,0.03472,4.38516353,
0.03474,-2.996601498,0.03474,4.750593824,
0.03476,-4.458322675,0.03476,4.750593824,
0.03478,-1.169450027,0.03478,4.38516353,
0.0348,-3.727462087,0.0348,4.750593824,
0.03482,-4.458322675,0.03482,4.38516353,
0.03484,-3.727462087,0.03484,4.019733236,
0.03486,-4.092892381,0.03486,4.750593824,
0.03488,-1.534880322,0.03488,4.019733236,
0.0349,-3.727462087,0.0349,4.38516353,
0.03492,-2.26574091,0.03492,4.750593824,
0.03494,-2.26574091,0.03494,4.019733236,
0.03496,-1.534880322,0.03496,3.654302942,
0.03498,-1.900310616,0.03498,4.750593824,
0.035,-0.8040197332,0.035,4.019733236,
0.03502,-0.4385894391,0.03502,4.019733236,
0.03504,0.6577014434,0.03504,4.750593824,
0.03506,1.753992326,0.03506,4.750593824,
0.03508,1.753992326,0.03508,4.750593824,
0.0351,1.753992326,0.0351,4.750593824,
0.03512,1.023131738,0.03512,5.116024118,
0.03514,2.850283208,0.03514,4.38516353,
0.03516,1.023131738,0.03516,5.116024118,
0.03518,4.312004385,0.03518,4.019733236,
0.0352,3.581143797,0.0352,4.019733236,
0.03522,3.215713503,0.03522,4.750593824,
0.03524,2.484852914,0.03524,4.38516353,
0.03526,3.946574091,0.03526,4.019733236,
0.03528,3.215713503,0.03528,4.750593824,
0.0353,2.11942262,0.0353,4.38516353,
0.03532,3.581143797,0.03532,4.019733236,
0.03534,2.850283208,0.03534,4.750593824,
0.03536,1.388562032,0.03536,4.38516353,
0.03538,2.850283208,0.03538,4.019733236,
0.0354,1.388562032,0.0354,4.38516353,
0.03542,-0.07315914489,0.03542,4.750593824,
0.03544,1.388562032,0.03544,4.38516353,
0.03546,1.023131738,0.03546,5.116024118,
0.03548,2.11942262,0.03548,4.019733236,
0.0355,0.2922711493,0.0355,4.019733236,
0.03552,-0.07315914489,0.03552,4.38516353,
0.03554,-0.4385894391,0.03554,4.750593824,
0.03556,-1.534880322,0.03556,4.750593824,
0.03558,-0.07315914489,0.03558,4.38516353,
0.0356,-3.727462087,0.0356,4.38516353,
0.03562,-1.900310616,0.03562,4.019733236,
0.03564,-3.362031792,0.03564,4.750593824,
0.03566,-4.823752969,0.03566,4.38516353,
0.03568,-4.458322675,0.03568,4.38516353,
0.0357,-2.631171204,0.0357,4.750593824,
0.03572,-4.458322675,0.03572,4.750593824,
0.03574,-5.189183263,0.03574,4.38516353,
0.03576,-2.631171204,0.03576,4.750593824,
0.03578,-5.189183263,0.03578,4.38516353,
0.0358,-2.996601498,0.0358,4.019733236,
0.03582,-3.727462087,0.03582,4.750593824,
0.03584,-2.631171204,0.03584,4.38516353,
0.03586,-1.169450027,0.03586,4.38516353,
0.03588,-0.8040197332,0.03588,4.750593824,
0.0359,-2.996601498,0.0359,4.750593824,
0.03592,-0.8040197332,0.03592,4.019733236,
0.03594,-1.534880322,0.03594,4.38516353,
0.03596,-1.534880322,0.03596,4.38516353,
0.03598,-0.8040197332,0.03598,4.38516353,
0.036,1.388562032,0.036,4.750593824,
0.03602,1.023131738,0.03602,4.38516353,
0.03604,2.484852914,0.03604,4.38516353,
0.03606,1.753992326,0.03606,4.38516353,
0.03608,2.11942262,0.03608,4.38516353,
0.0361,3.581143797,0.0361,4.750593824,
0.03612,3.581143797,0.03612,4.750593824,
0.03614,2.11942262,0.03614,4.38516353,
0.03616,1.753992326,0.03616,4.750593824,
0.03618,3.946574091,0.03618,5.116024118,
0.0362,2.484852914,0.0362,4.38516353,
0.03622,3.946574091,0.03622,4.38516353,
0.03624,2.850283208,0.03624,4.750593824,
0.03626,2.484852914,0.03626,4.38516353,
0.03628,2.484852914,0.03628,4.019733236,
0.0363,3.946574091,0.0363,4.750593824,
0.03632,2.484852914,0.03632,4.38516353,
0.03634,1.023131738,0.03634,4.38516353,
0.03636,2.850283208,0.03636,4.38516353,
0.03638,1.023131738,0.03638,4.750593824,
0.0364,-0.4385894391,0.0364,4.38516353,
0.03642,1.023131738,0.03642,4.38516353,
0.03644,-1.534880322,0.03644,5.116024118,
0.03646,-0.07315914489,0.03646,4.38516353,
0.03648,-0.4385894391,0.03648,4.38516353,
0.0365,-2.631171204,0.0365,4.750593824,
0.03652,-2.631171204,0.03652,4.019733236,
0.03654,-2.631171204,0.03654,4.38516353,
0.03656,-2.631171204,0.03656,4.38516353,
0.03658,-1.169450027,0.03658,4.38516353,
0.0366,-3.727462087,0.0366,4.38516353,
0.03662,-4.823752969,0.03662,4.38516353,
0.03664,-2.631171204,0.03664,4.019733236,
0.03666,-4.092892381,0.03666,4.750593824,
0.03668,-4.823752969,0.03668,4.38516353,
0.0367,-4.092892381,0.0367,4.38516353,
0.03672,-2.631171204,0.03672,4.750593824,
0.03674,-3.727462087,0.03674,4.38516353,
0.03676,-2.631171204,0.03676,4.019733236,
0.03678,-2.26574091,0.03678,4.38516353,
0.0368,-1.534880322,0.0368,4.750593824,
0.03682,-1.534880322,0.03682,4.019733236,
0.03684,-1.169450027,0.03684,4.750593824,
0.03686,-0.07315914489,0.03686,4.750593824,
0.03688,0.6577014434,0.03688,4.38516353,
0.0369,-0.07315914489,0.0369,4.750593824,
0.03692,0.6577014434,0.03692,4.38516353,
0.03694,2.11942262,0.03694,4.38516353,
0.03696,1.753992326,0.03696,4.38516353,
0.03698,2.11942262,0.03698,4.019733236,
0.037,2.11942262,0.037,4.38516353,
0.03702,3.581143797,0.03702,4.38516353,
0.03704,1.753992326,0.03704,4.38516353,
0.03706,3.581143797,0.03706,4.38516353,
0.03708,1.753992326,0.03708,4.750593824,
0.0371,4.677434679,0.0371,4.750593824,
0.03712,3.581143797,0.03712,3.654302942,
0.03714,3.946574091,0.03714,4.019733236,
0.03716,3.946574091,0.03716,4.019733236,
0.03718,4.312004385,0.03718,4.38516353,
0.0372,2.850283208,0.0372,3.654302942,
0.03722,2.484852914,0.03722,4.38516353,
0.03724,3.581143797,0.03724,4.38516353,
0.03726,2.484852914,0.03726,4.019733236,
0.03728,0.6577014434,0.03728,4.38516353,
0.0373,2.484852914,0.0373,4.019733236,
0.03732,0.6577014434,0.03732,4.019733236,
0.03734,1.388562032,0.03734,4.38516353,
0.03736,1.023131738,0.03736,4.750593824,
0.03738,1.023131738,0.03738,3.654302942,
0.0374,-0.4385894391,0.0374,4.38516353,
0.03742,-2.996601498,0.03742,4.38516353,
0.03744,-1.900310616,0.03744,3.288872648,
0.03746,-2.26574091,0.03746,4.38516353,
0.03748,-1.534880322,0.03748,5.481454413,
0.0375,-2.631171204,0.0375,4.019733236,
0.03752,-2.631171204,0.03752,4.38516353,
0.03754,-2.996601498,0.03754,4.750593824,
0.03756,-3.727462087,0.03756,4.019733236,
0.03758,-3.362031792,0.03758,3.288872648,
0.0376,-3.362031792,0.0376,4.750593824,
0.03762,-3.362031792,0.03762,4.019733236,
0.03764,-4.823752969,0.03764,4.750593824,
0.03766,-5.920043852,0.03766,4.019733236,
0.03768,-3.727462087,0.03768,2.558012059,
0.0377,-2.26574091,0.0377,3.654302942,
0.03772,-2.26574091,0.03772,4.019733236,
0.03774,-3.362031792,0.03774,3.288872648,
0.03776,-1.534880322,0.03776,4.38516353,
0.03778,-0.8040197332,0.03778,5.481454413,
0.0378,-0.07315914489,0.0378,3.654302942,
0.03782,0.2922711493,0.03782,4.750593824,
0.03784,1.023131738,0.03784,4.019733236,
0.03786,0.6577014434,0.03786,3.654302942,
0.03788,2.11942262,0.03788,4.750593824,
0.0379,1.388562032,0.0379,4.019733236,
0.03792,2.11942262,0.03792,3.654302942,
0.03794,4.677434679,0.03794,4.38516353,
0.03796,3.215713503,0.03796,4.019733236,
0.03798,4.677434679,0.03798,1.461721177,
0.038,3.215713503,0.038,4.38516353,
0.03802,3.581143797,0.03802,4.38516353,
0.03804,2.850283208,0.03804,4.019733236,
0.03806,5.042864974,0.03806,4.019733236,
0.03808,1.753992326,0.03808,4.019733236,
0.0381,4.312004385,0.0381,3.654302942,
0.03812,3.946574091,0.03812,4.38516353,
0.03814,3.215713503,0.03814,4.019733236,
0.03816,3.215713503,0.03816,4.38516353,
0.03818,1.388562032,0.03818,4.38516353,
0.0382,0.2922711493,0.0382,4.38516353,
0.03822,2.850283208,0.03822,4.38516353,
0.03824,2.11942262,0.03824,4.38516353,
0.03826,0.6577014434,0.03826,4.38516353,
0.03828,2.11942262,0.03828,3.288872648,
0.0383,-1.169450027,0.0383,4.38516353,
0.03832,-0.07315914489,0.03832,4.38516353,
0.03834,-0.4385894391,0.03834,4.019733236,
0.03836,-1.534880322,0.03836,4.750593824,
0.03838,-0.4385894391,0.03838,5.116024118,
0.0384,-1.900310616,0.0384,4.750593824,
0.03842,-2.631171204,0.03842,4.38516353,
0.03844,-1.534880322,0.03844,4.38516353,
0.03846,-3.362031792,0.03846,4.38516353,
0.03848,-2.996601498,0.03848,5.116024118,
0.0385,-4.092892381,0.0385,4.38516353,
0.03852,-2.631171204,0.03852,4.38516353,
0.03854,-3.362031792,0.03854,4.750593824,
0.03856,-2.631171204,0.03856,4.38516353,
0.03858,-2.631171204,0.03858,2.923442353,
0.0386,-2.996601498,0.0386,4.38516353,
0.03862,-4.092892381,0.03862,4.38516353,
0.03864,-2.996601498,0.03864,4.38516353,
0.03866,-1.534880322,0.03866,4.750593824,
0.03868,-3.727462087,0.03868,4.38516353,
0.0387,-1.900310616,0.0387,4.38516353,
0.03872,-0.8040197332,0.03872,4.38516353,
0.03874,-0.8040197332,0.03874,4.38516353,
0.03876,0.6577014434,0.03876,4.38516353,
0.03878,0.2922711493,0.03878,5.846884707,
0.0388,0.2922711493,0.0388,4.019733236,
0.03882,1.753992326,0.03882,4.38516353,
0.03884,4.312004385,0.03884,4.750593824,
0.03886,1.753992326,0.03886,4.019733236,
0.03888,2.11942262,0.03888,5.116024118,
0.0389,1.388562032,0.0389,4.750593824,
0.03892,3.215713503,0.03892,5.116024118,
0.03894,3.215713503,0.03894,4.750593824,
0.03896,4.312004385,0.03896,4.019733236,
0.03898,5.408295268,0.03898,4.019733236,
0.039,3.581143797,0.039,4.38516353,
0.03902,3.946574091,0.03902,4.38516353,
0.03904,3.215713503,0.03904,4.750593824,
0.03906,4.312004385,0.03906,4.019733236,
0.03908,3.581143797,0.03908,3.654302942,
0.0391,3.215713503,0.0391,4.38516353,
0.03912,2.11942262,0.03912,4.38516353,
0.03914,2.11942262,0.03914,4.38516353,
0.03916,1.388562032,0.03916,4.38516353,
0.03918,1.023131738,0.03918,4.38516353,
0.0392,0.6577014434,0.0392,5.116024118,
0.03922,0.2922711493,0.03922,4.38516353,
0.03924,-0.8040197332,0.03924,4.38516353,
0.03926,-0.8040197332,0.03926,5.116024118,
0.03928,-3.362031792,0.03928,4.38516353,
0.0393,-2.26574091,0.0393,4.38516353,
0.03932,-2.26574091,0.03932,4.750593824,
0.03934,-4.458322675,0.03934,4.38516353,
0.03936,-2.996601498,0.03936,4.019733236,
0.03938,-3.727462087,0.03938,4.38516353,
0.0394,-2.996601498,0.0394,4.38516353,
0.03942,-3.362031792,0.03942,4.38516353,
0.03944,-2.631171204,0.03944,4.38516353,
0.03946,-4.823752969,0.03946,4.38516353,
0.03948,-2.996601498,0.03948,4.750593824,
0.0395,-2.26574091,0.0395,4.38516353,
0.03952,-3.362031792,0.03952,4.750593824,
0.03954,-2.996601498,0.03954,4.019733236,
0.03956,-3.727462087,0.03956,4.38516353,
0.03958,-2.996601498,0.03958,4.019733236,
0.0396,-2.26574091,0.0396,4.38516353,
0.03962,-1.900310616,0.03962,4.750593824,
0.03964,-1.900310616,0.03964,4.750593824,
0.03966,-0.4385894391,0.03966,4.38516353,
0.03968,-0.4385894391,0.03968,4.38516353,
0.0397,-0.8040197332,0.0397,4.38516353,
0.03972,1.023131738,0.03972,4.019733236,
0.03974,2.484852914,0.03974,4.750593824,
0.03976,1.023131738,0.03976,4.38516353,
0.03978,1.753992326,0.03978,4.019733236,
0.0398,1.753992326,0.0398,4.38516353,
0.03982,1.023131738,0.03982,4.38516353,
0.03984,3.946574091,0.03984,4.38516353,
0.03986,4.677434679,0.03986,5.116024118,
0.03988,4.312004385,0.03988,4.750593824,
0.0399,3.581143797,0.0399,4.38516353,
0.03992,4.677434679,0.03992,5.116024118,
0.03994,3.581143797,0.03994,4.750593824,
0.03996,3.946574091,0.03996,4.750593824,
0.03998,3.581143797,0.03998,3.654302942,
0.04,3.215713503,0.04,4.38516353,
0.04002,2.11942262,0.04002,4.38516353,
0.04004,2.11942262,0.04004,4.019733236,
0.04006,2.11942262,0.04006,4.38516353,
0.04008,1.753992326,0.04008,4.38516353,
0.0401,0.2922711493,0.0401,4.019733236,
0.04012,1.023131738,0.04012,4.38516353,
0.04014,1.388562032,0.04014,4.019733236,
0.04016,-2.26574091,0.04016,4.019733236,
0.04018,0.2922711493,0.04018,4.019733236,
0.0402,-0.4385894391,0.0402,4.38516353,
0.04022,-1.534880322,0.04022,4.38516353,
0.04024,-1.169450027,0.04024,3.654302942,
0.04026,-2.26574091,0.04026,4.38516353,
0.04028,-3.362031792,0.04028,4.019733236,
0.0403,-2.996601498,0.0403,4.38516353,
0.04032,-2.996601498,0.04032,4.38516353,
0.04034,-3.362031792,0.04034,4.019733236,
0.04036,-4.823752969,0.04036,4.38516353,
0.04038,-3.362031792,0.04038,4.750593824,
0.0404,-3.727462087,0.0404,4.750593824,
0.04042,-2.631171204,0.04042,4.38516353,
0.04044,-2.996601498,0.04044,4.38516353,
0.04046,-3.362031792,0.04046,3.654302942,
0.04048,-2.631171204,0.04048,4.019733236,
0.0405,-2.996601498,0.0405,4.750593824,
0.04052,-2.26574091,0.04052,3.654302942,
0.04054,-1.900310616,0.04054,4.019733236,
0.04056,-1.900310616,0.04056,4.38516353,
0.04058,-1.534880322,0.04058,4.019733236,
0.0406,0.6577014434,0.0406,4.38516353,
0.04062,1.023131738,0.04062,4.750593824,
0.04064,2.484852914,0.04064,4.019733236,
0.04066,1.023131738,0.04066,4.38516353,
0.04068,3.215713503,0.04068,4.38516353,
0.0407,1.388562032,0.0407,4.019733236,
0.04072,2.850283208,0.04072,4.38516353,
0.04074,3.581143797,0.04074,4.38516353,
0.04076,0.2922711493,0.04076,4.019733236,
0.04078,4.677434679,0.04078,4.019733236,
0.0408,2.484852914,0.0408,3.654302942,
0.04082,3.215713503,0.04082,4.019733236,
0.04084,4.312004385,0.04084,4.38516353,
0.04086,4.677434679,0.04086,4.750593824,
0.04088,3.581143797,0.04088,4.019733236,
0.0409,3.946574091,0.0409,3.288872648,
0.04092,3.581143797,0.04092,4.38516353,
0.04094,2.484852914,0.04094,3.654302942,
0.04096,3.215713503,0.04096,4.019733236,
0.04098,2.850283208,0.04098,4.38516353,
0.041,1.388562032,0.041,4.38516353,
0.04102,1.753992326,0.04102,4.019733236,
0.04104,1.388562032,0.04104,4.38516353,
0.04106,-1.534880322,0.04106,4.019733236,
0.04108,0.6577014434,0.04108,4.38516353,
0.0411,-1.169450027,0.0411,4.38516353,
0.04112,-0.07315914489,0.04112,4.019733236,
0.04114,0.6577014434,0.04114,4.38516353,
0.04116,-0.8040197332,0.04116,4.38516353,
0.04118,-2.26574091,0.04118,3.654302942,
0.0412,-2.26574091,0.0412,3.288872648,
0.04122,-2.631171204,0.04122,4.019733236,
0.04124,-3.362031792,0.04124,4.019733236,
0.04126,-2.631171204,0.04126,4.019733236,
0.04128,-2.996601498,0.04128,3.654302942,
0.0413,-4.092892381,0.0413,4.019733236,
0.04132,-3.727462087,0.04132,4.750593824,
0.04134,-3.362031792,0.04134,4.019733236,
0.04136,-3.727462087,0.04136,4.019733236,
0.04138,-3.362031792,0.04138,4.38516353,
0.0414,-3.362031792,0.0414,4.38516353,
0.04142,-2.631171204,0.04142,4.019733236,
0.04144,-2.631171204,0.04144,4.38516353,
0.04146,-4.458322675,0.04146,4.019733236,
0.04148,-1.169450027,0.04148,3.654302942,
0.0415,-0.8040197332,0.0415,4.38516353,
0.04152,-0.4385894391,0.04152,4.38516353,
0.04154,0.2922711493,0.04154,4.019733236,
0.04156,0.6577014434,0.04156,4.38516353,
0.04158,0.2922711493,0.04158,4.750593824,
0.0416,-0.4385894391,0.0416,4.750593824,
0.04162,2.484852914,0.04162,4.019733236,
0.04164,2.11942262,0.04164,4.38516353,
0.04166,2.11942262,0.04166,4.019733236,
0.04168,3.581143797,0.04168,4.38516353,
0.0417,2.484852914,0.0417,3.654302942,
0.04172,2.484852914,0.04172,3.654302942,
0.04174,3.946574091,0.04174,4.019733236,
0.04176,3.946574091,0.04176,4.38516353,
0.04178,3.581143797,0.04178,4.019733236,
0.0418,3.946574091,0.0418,4.38516353,
0.04182,3.215713503,0.04182,4.38516353,
0.04184,2.11942262,0.04184,4.019733236,
0.04186,2.850283208,0.04186,4.38516353,
0.04188,3.215713503,0.04188,4.38516353,
0.0419,2.11942262,0.0419,5.481454413,
0.04192,1.388562032,0.04192,4.019733236,
0.04194,1.388562032,0.04194,4.019733236,
0.04196,2.11942262,0.04196,5.116024118,
0.04198,-0.07315914489,0.04198,4.019733236,
0.042,-1.169450027,0.042,4.019733236,
0.04202,1.753992326,0.04202,4.750593824,
0.04204,-1.534880322,0.04204,4.38516353,
0.04206,-0.8040197332,0.04206,4.019733236,
0.04208,-1.900310616,0.04208,4.750593824,
0.0421,-2.996601498,0.0421,3.654302942,
0.04212,-3.727462087,0.04212,4.38516353,
0.04214,-3.727462087,0.04214,4.750593824,
0.04216,-2.996601498,0.04216,4.750593824,
0.04218,-4.823752969,0.04218,4.019733236,
0.0422,-2.631171204,0.0422,5.116024118,
0.04222,-4.823752969,0.04222,4.38516353,
0.04224,-4.092892381,0.04224,4.38516353,
0.04226,-4.092892381,0.04226,5.116024118,
0.04228,-4.092892381,0.04228,4.019733236,
0.0423,-4.458322675,0.0423,4.750593824,
0.04232,-4.823752969,0.04232,5.116024118,
0.04234,-4.823752969,0.04234,3.654302942,
0.04236,-2.631171204,0.04236,4.019733236,
0.04238,-3.362031792,0.04238,4.38516353,
0.0424,-3.362031792,0.0424,4.750593824,
0.04242,-0.8040197332,0.04242,4.38516353,
0.04244,-1.900310616,0.04244,4.750593824,
0.04246,-1.900310616,0.04246,4.019733236,
0.04248,-0.4385894391,0.04248,4.019733236,
0.0425,-0.07315914489,0.0425,4.750593824,
0.04252,1.023131738,0.04252,4.019733236,
0.04254,1.023131738,0.04254,4.019733236,
0.04256,1.388562032,0.04256,4.38516353,
0.04258,1.388562032,0.04258,4.019733236,
0.0426,2.850283208,0.0426,4.019733236,
0.04262,2.850283208,0.04262,4.750593824,
0.04264,2.850283208,0.04264,4.38516353,
0.04266,1.753992326,0.04266,3.654302942,
0.04268,4.312004385,0.04268,4.750593824,
0.0427,3.581143797,0.0427,4.38516353,
0.04272,6.139155856,0.04272,4.019733236,
0.04274,3.946574091,0.04274,4.750593824,
0.04276,2.850283208,0.04276,4.019733236,
0.04278,3.215713503,0.04278,4.38516353,
0.0428,3.215713503,0.0428,5.116024118,
0.04282,3.946574091,0.04282,3.654302942,
0.04284,2.850283208,0.04284,4.019733236,
0.04286,2.484852914,0.04286,5.116024118,
0.04288,1.753992326,0.04288,4.38516353,
0.0429,1.753992326,0.0429,4.38516353,
0.04292,1.388562032,0.04292,4.750593824,
0.04294,-0.4385894391,0.04294,4.38516353,
0.04296,-0.07315914489,0.04296,4.38516353,
0.04298,-0.8040197332,0.04298,5.116024118,
0.043,-1.900310616,0.043,4.019733236,
0.04302,-3.362031792,0.04302,3.654302942,
0.04304,-2.631171204,0.04304,4.38516353,
0.04306,-2.26574091,0.04306,4.38516353,
0.04308,-3.362031792,0.04308,4.019733236,
0.0431,-3.362031792,0.0431,4.750593824,
0.04312,-4.823752969,0.04312,4.019733236,
0.04314,-4.092892381,0.04314,4.019733236,
0.04316,-2.996601498,0.04316,4.38516353,
0.04318,-4.092892381,0.04318,4.750593824,
0.0432,-3.727462087,0.0432,4.38516353,
0.04322,-2.26574091,0.04322,4.750593824,
0.04324,-4.823752969,0.04324,4.750593824,
0.04326,-2.26574091,0.04326,4.750593824,
0.04328,-2.996601498,0.04328,4.38516353,
0.0433,-2.996601498,0.0433,4.38516353,
0.04332,-0.8040197332,0.04332,4.38516353,
0.04334,-5.189183263,0.04334,4.38516353,
0.04336,-0.8040197332,0.04336,4.750593824,
0.04338,-0.8040197332,0.04338,4.750593824,
0.0434,0.2922711493,0.0434,4.38516353,
0.04342,0.2922711493,0.04342,4.750593824,
0.04344,0.2922711493,0.04344,4.750593824,
0.04346,1.023131738,0.04346,4.019733236,
0.04348,1.753992326,0.04348,4.38516353,
0.0435,2.484852914,0.0435,4.38516353,
0.04352,0.2922711493,0.04352,4.38516353,
0.04354,2.11942262,0.04354,4.38516353,
0.04356,2.11942262,0.04356,4.019733236,
0.04358,3.946574091,0.04358,4.38516353,
0.0436,3.215713503,0.0436,4.019733236,
0.04362,2.484852914,0.04362,4.019733236,
0.04364,4.677434679,0.04364,4.750593824,
0.04366,3.946574091,0.04366,4.019733236,
0.04368,6.139155856,0.04368,4.38516353,
0.0437,4.677434679,0.0437,5.116024118,
0.04372,2.850283208,0.04372,4.38516353,
0.04374,3.946574091,0.04374,4.019733236,
0.04376,2.850283208,0.04376,4.750593824,
0.04378,2.484852914,0.04378,4.019733236,
0.0438,2.11942262,0.0438,4.750593824,
0.04382,2.11942262,0.04382,4.38516353,
0.04384,1.388562032,0.04384,4.38516353,
0.04386,-0.8040197332,0.04386,4.750593824,
0.04388,-0.07315914489,0.04388,4.38516353,
0.0439,-0.07315914489,0.0439,4.750593824,
0.04392,-1.900310616,0.04392,4.750593824,
0.04394,-1.169450027,0.04394,4.38516353,
0.04396,-1.900310616,0.04396,4.019733236,
0.04398,-3.362031792,0.04398,4.750593824,
0.044,-2.26574091,0.044,4.750593824,
0.04402,-2.996601498,0.04402,4.38516353,
0.04404,-3.362031792,0.04404,4.38516353,
0.04406,-3.727462087,0.04406,4.750593824,
0.04408,-1.900310616,0.04408,4.38516353,
0.0441,-2.996601498,0.0441,5.481454413,
0.04412,-3.727462087,0.04412,4.38516353,
0.04414,-3.727462087,0.04414,3.654302942,
0.04416,-3.362031792,0.04416,4.750593824,
0.04418,-2.996601498,0.04418,4.019733236,
0.0442,-2.996601498,0.0442,4.38516353,
0.04422,-2.26574091,0.04422,4.750593824,
0.04424,-3.362031792,0.04424,4.38516353,
0.04426,-0.8040197332,0.04426,4.38516353,
0.04428,-2.26574091,0.04428,4.38516353,
0.0443,-1.900310616,0.0443,4.019733236,
0.04432,-0.4385894391,0.04432,4.019733236,
0.04434,-1.900310616,0.04434,5.116024118,
0.04436,-0.4385894391,0.04436,4.38516353,
0.04438,-0.8040197332,0.04438,4.019733236,
0.0444,1.753992326,0.0444,4.750593824,
0.04442,0.2922711493,0.04442,4.750593824,
0.04444,2.850283208,0.04444,4.38516353,
0.04446,2.850283208,0.04446,4.750593824,
0.04448,2.850283208,0.04448,4.38516353,
0.0445,3.215713503,0.0445,4.019733236,
0.04452,2.484852914,0.04452,4.750593824,
0.04454,3.581143797,0.04454,4.750593824,
0.04456,3.946574091,0.04456,4.38516353,
0.04458,2.850283208,0.04458,4.750593824,
0.0446,3.581143797,0.0446,4.750593824,
0.04462,4.312004385,0.04462,3.654302942,
0.04464,3.215713503,0.04464,4.750593824,
0.04466,3.581143797,0.04466,4.38516353,
0.04468,3.581143797,0.04468,4.750593824,
0.0447,3.215713503,0.0447,4.38516353,
0.04472,2.11942262,0.04472,5.846884707,
0.04474,0.6577014434,0.04474,4.019733236,
0.04476,2.11942262,0.04476,4.750593824,
0.04478,-0.07315914489,0.04478,4.38516353,
0.0448,0.2922711493,0.0448,4.750593824,
0.04482,-0.4385894391,0.04482,4.750593824,
0.04484,0.2922711493,0.04484,4.019733236,
0.04486,-1.534880322,0.04486,4.38516353,
0.04488,-1.169450027,0.04488,4.38516353,
0.0449,-3.727462087,0.0449,4.38516353,
0.04492,-1.900310616,0.04492,3.288872648,
0.04494,-2.26574091,0.04494,4.38516353,
0.04496,-3.362031792,0.04496,4.750593824,
0.04498,-2.26574091,0.04498,4.019733236,
0.045,-3.727462087,0.045,4.38516353,
0.04502,-5.189183263,0.04502,4.38516353,
0.04504,-4.458322675,0.04504,4.019733236,
0.04506,-1.900310616,0.04506,4.38516353,
0.04508,-3.727462087,0.04508,4.38516353,
0.0451,-2.996601498,0.0451,4.38516353,
0.04512,-2.26574091,0.04512,6.577745295,
0.04514,-3.362031792,0.04514,4.38516353,
0.04516,-1.900310616,0.04516,4.750593824,
0.04518,-2.26574091,0.04518,4.750593824,
0.0452,-1.900310616,0.0452,4.38516353,
0.04522,1.023131738,0.04522,3.288872648,
0.04524,-1.169450027,0.04524,4.750593824,
0.04526,-2.26574091,0.04526,4.750593824,
0.04528,0.6577014434,0.04528,4.38516353,
0.0453,1.388562032,0.0453,4.750593824,
0.04532,0.2922711493,0.04532,3.654302942,
0.04534,2.484852914,0.04534,5.846884707,
0.04536,3.581143797,0.04536,4.750593824,
0.04538,2.11942262,0.04538,5.116024118,
0.0454,2.850283208,0.0454,4.38516353,
0.04542,4.312004385,0.04542,5.846884707,
0.04544,1.753992326,0.04544,4.750593824,
0.04546,3.215713503,0.04546,4.019733236,
0.04548,3.946574091,0.04548,4.750593824,
0.0455,2.850283208,0.0455,4.750593824,
0.04552,3.215713503,0.04552,2.923442353,
0.04554,2.850283208,0.04554,4.38516353,
0.04556,3.581143797,0.04556,4.38516353,
0.04558,3.215713503,0.04558,4.019733236,
0.0456,1.023131738,0.0456,4.750593824,
0.04562,3.581143797,0.04562,3.654302942,
0.04564,3.215713503,0.04564,4.38516353,
0.04566,2.850283208,0.04566,4.38516353,
0.04568,1.753992326,0.04568,3.654302942,
0.0457,-0.4385894391,0.0457,4.019733236,
0.04572,1.023131738,0.04572,3.654302942,
0.04574,2.850283208,0.04574,4.38516353,
0.04576,0.2922711493,0.04576,4.38516353,
0.04578,-2.26574091,0.04578,3.654302942,
0.0458,-1.169450027,0.0458,4.019733236,
0.04582,-0.8040197332,0.04582,5.481454413,
0.04584,-2.631171204,0.04584,4.019733236,
0.04586,-2.996601498,0.04586,4.019733236,
0.04588,-2.26574091,0.04588,4.38516353,
0.0459,-3.727462087,0.0459,4.019733236,
0.04592,-4.092892381,0.04592,4.019733236,
0.04594,-4.458322675,0.04594,4.019733236,
0.04596,-4.092892381,0.04596,4.019733236,
0.04598,-2.26574091,0.04598,4.38516353,
0.046,-3.362031792,0.046,4.38516353,
0.04602,-4.092892381,0.04602,3.288872648,
0.04604,-4.092892381,0.04604,4.019733236,
0.04606,-1.900310616,0.04606,4.019733236,
0.04608,-2.631171204,0.04608,4.38516353,
0.0461,-1.900310616,0.0461,4.019733236,
0.04612,-2.26574091,0.04612,4.38516353,
0.04614,-1.169450027,0.04614,4.019733236,
0.04616,-1.900310616,0.04616,4.38516353,
0.04618,-0.07315914489,0.04618,4.38516353,
0.0462,-0.07315914489,0.0462,4.019733236,
0.04622,0.2922711493,0.04622,4.38516353,
0.04624,0.6577014434,0.04624,4.019733236,
0.04626,-0.07315914489,0.04626,4.019733236,
0.04628,2.11942262,0.04628,4.38516353,
0.0463,0.2922711493,0.0463,4.38516353,
0.04632,2.11942262,0.04632,3.654302942,
0.04634,2.11942262,0.04634,4.38516353,
0.04636,3.581143797,0.04636,4.38516353,
0.04638,3.581143797,0.04638,4.019733236,
0.0464,2.11942262,0.0464,4.38516353,
0.04642,3.581143797,0.04642,2.923442353,
0.04644,3.581143797,0.04644,3.654302942,
0.04646,3.215713503,0.04646,4.38516353,
0.04648,4.677434679,0.04648,4.38516353,
0.0465,3.946574091,0.0465,3.654302942,
0.04652,4.312004385,0.04652,4.019733236,
0.04654,5.042864974,0.04654,4.019733236,
0.04656,2.484852914,0.04656,4.019733236,
0.04658,2.11942262,0.04658,4.38516353,
0.0466,2.850283208,0.0466,4.019733236,
0.04662,2.11942262,0.04662,3.654302942,
0.04664,2.11942262,0.04664,4.750593824,
0.04666,1.388562032,0.04666,4.019733236,
0.04668,-0.07315914489,0.04668,4.019733236,
0.0467,0.6577014434,0.0467,4.019733236,
0.04672,-1.900310616,0.04672,4.38516353,
0.04674,-0.8040197332,0.04674,4.019733236,
0.04676,-1.169450027,0.04676,4.019733236,
0.04678,-3.362031792,0.04678,4.38516353,
0.0468,-2.996601498,0.0468,3.654302942,
0.04682,-3.362031792,0.04682,4.019733236,
0.04684,-2.631171204,0.04684,4.38516353,
0.04686,-2.631171204,0.04686,3.654302942,
0.04688,-3.362031792,0.04688,4.38516353,
0.0469,-3.727462087,0.0469,4.750593824,
0.04692,-2.996601498,0.04692,3.288872648,
0.04694,-2.631171204,0.04694,4.750593824,
0.04696,-3.727462087,0.04696,4.38516353,
0.04698,-4.823752969,0.04698,4.019733236,
0.047,-2.26574091,0.047,4.38516353,
0.04702,-1.534880322,0.04702,4.38516353,
0.04704,-2.996601498,0.04704,3.654302942,
0.04706,-1.900310616,0.04706,4.750593824,
0.04708,-1.534880322,0.04708,4.019733236,
0.0471,-1.534880322,0.0471,4.019733236,
0.04712,0.2922711493,0.04712,4.750593824,
0.04714,0.2922711493,0.04714,4.38516353,
0.04716,0.2922711493,0.04716,4.38516353,
0.04718,0.6577014434,0.04718,4.38516353,
0.0472,1.388562032,0.0472,4.019733236,
0.04722,1.753992326,0.04722,4.019733236,
0.04724,2.484852914,0.04724,4.38516353,
0.04726,2.11942262,0.04726,4.38516353,
0.04728,2.484852914,0.04728,4.019733236,
0.0473,3.581143797,0.0473,4.38516353,
0.04732,3.215713503,0.04732,4.019733236,
0.04734,2.850283208,0.04734,4.019733236,
0.04736,4.312004385,0.04736,4.38516353,
0.04738,1.023131738,0.04738,4.38516353,
0.0474,3.215713503,0.0474,4.019733236,
0.04742,3.215713503,0.04742,4.019733236,
0.04744,3.581143797,0.04744,4.38516353,
0.04746,3.215713503,0.04746,4.019733236,
0.04748,2.484852914,0.04748,4.38516353,
0.0475,2.850283208,0.0475,4.38516353,
0.04752,2.484852914,0.04752,4.019733236,
0.04754,2.484852914,0.04754,4.019733236,
0.04756,1.388562032,0.04756,4.019733236,
0.04758,-0.07315914489,0.04758,4.019733236,
0.0476,0.2922711493,0.0476,4.019733236,
0.04762,-0.4385894391,0.04762,4.38516353,
0.04764,-0.4385894391,0.04764,4.750593824,
0.04766,-1.534880322,0.04766,4.019733236,
0.04768,-3.727462087,0.04768,4.38516353,
0.0477,-1.900310616,0.0477,5.116024118,
0.04772,-2.26574091,0.04772,4.019733236,
0.04774,-2.631171204,0.04774,4.38516353,
0.04776,-3.362031792,0.04776,4.750593824,
0.04778,-3.727462087,0.04778,4.38516353,
0.0478,-3.362031792,0.0478,4.019733236,
0.04782,-2.631171204,0.04782,4.750593824,
0.04784,-4.458322675,0.04784,4.38516353,
0.04786,-3.727462087,0.04786,4.38516353,
0.04788,-2.631171204,0.04788,4.750593824,
0.0479,-3.727462087,0.0479,4.019733236,
0.04792,-4.092892381,0.04792,4.750593824,
0.04794,-3.362031792,0.04794,4.750593824,
0.04796,-2.26574091,0.04796,4.750593824,
0.04798,-2.26574091,0.04798,4.38516353,
0.048,-3.362031792,0.048,4.750593824,
0.04802,-2.26574091,0.04802,4.019733236,
0.04804,-0.4385894391,0.04804,4.38516353,
0.04806,-0.4385894391,0.04806,4.750593824,
0.04808,0.2922711493,0.04808,4.38516353,
0.0481,-0.07315914489,0.0481,4.019733236,
0.04812,-0.07315914489,0.04812,4.750593824,
0.04814,0.6577014434,0.04814,4.38516353,
0.04816,2.11942262,0.04816,4.019733236,
0.04818,1.753992326,0.04818,4.750593824,
0.0482,1.753992326,0.0482,4.38516353,
0.04822,2.850283208,0.04822,4.38516353,
0.04824,3.581143797,0.04824,4.38516353,
0.04826,2.850283208,0.04826,4.019733236,
0.04828,2.11942262,0.04828,4.019733236,
0.0483,3.215713503,0.0483,4.750593824,
0.04832,4.677434679,0.04832,4.019733236,
0.04834,3.946574091,0.04834,4.019733236,
0.04836,5.408295268,0.04836,3.288872648,
0.04838,3.946574091,0.04838,4.750593824,
0.0484,3.581143797,0.0484,4.38516353,
0.04842,2.850283208,0.04842,4.019733236,
0.04844,1.753992326,0.04844,4.019733236,
0.04846,2.484852914,0.04846,4.38516353,
0.04848,1.753992326,0.04848,4.019733236,
0.0485,2.11942262,0.0485,4.38516353,
0.04852,1.023131738,0.04852,4.38516353,
0.04854,2.850283208,0.04854,4.750593824,
0.04856,0.2922711493,0.04856,4.019733236,
0.04858,-1.534880322,0.04858,4.750593824,
0.0486,-0.8040197332,0.0486,4.38516353,
0.04862,-1.900310616,0.04862,4.750593824,
0.04864,-2.26574091,0.04864,4.019733236,
0.04866,-1.900310616,0.04866,4.38516353,
0.04868,-1.169450027,0.04868,3.654302942,
0.0487,-2.26574091,0.0487,4.38516353,
0.04872,-2.631171204,0.04872,4.38516353,
0.04874,-5.554613557,0.04874,3.288872648,
0.04876,-2.631171204,0.04876,4.38516353,
0.04878,-4.458322675,0.04878,4.019733236,
0.0488,-4.823752969,0.0488,3.654302942,
0.04882,-3.727462087,0.04882,4.38516353,
0.04884,-2.996601498,0.04884,4.750593824,
0.04886,-2.996601498,0.04886,3.654302942,
0.04888,-2.26574091,0.04888,4.019733236,
0.0489,-4.092892381,0.0489,4.38516353,
0.04892,-2.26574091,0.04892,3.654302942,
0.04894,-0.8040197332,0.04894,5.481454413,
0.04896,-3.362031792,0.04896,4.38516353,
0.04898,-1.534880322,0.04898,3.654302942,
0.049,-0.4385894391,0.049,4.019733236,
0.04902,-0.4385894391,0.04902,4.38516353,
0.04904,-0.07315914489,0.04904,4.38516353,
0.04906,0.2922711493,0.04906,4.750593824,
0.04908,1.753992326,0.04908,4.019733236,
0.0491,2.11942262,0.0491,4.019733236,
0.04912,2.850283208,0.04912,4.38516353,
0.04914,2.850283208,0.04914,3.288872648,
0.04916,1.753992326,0.04916,3.654302942,
0.04918,3.581143797,0.04918,4.750593824,
0.0492,2.484852914,0.0492,4.38516353,
0.04922,3.581143797,0.04922,4.019733236,
0.04924,3.946574091,0.04924,3.654302942,
0.04926,3.215713503,0.04926,4.38516353,
0.04928,3.946574091,0.04928,3.654302942,
0.0493,3.581143797,0.0493,4.38516353,
0.04932,3.946574091,0.04932,4.38516353,
0.04934,1.023131738,0.04934,4.019733236,
0.04936,1.023131738,0.04936,4.38516353,
0.04938,1.753992326,0.04938,4.38516353,
0.0494,1.753992326,0.0494,4.019733236,
0.04942,2.484852914,0.04942,4.38516353,
0.04944,1.388562032,0.04944,4.38516353,
0.04946,0.2922711493,0.04946,4.019733236,
0.04948,0.2922711493,0.04948,4.750593824,
0.0495,0.2922711493,0.0495,4.38516353,
0.04952,-1.169450027,0.04952,3.654302942,
0.04954,-0.8040197332,0.04954,2.923442353,
0.04956,-1.534880322,0.04956,4.019733236,
0.04958,-1.900310616,0.04958,4.019733236,
0.0496,-1.900310616,0.0496,4.019733236,
0.04962,-2.631171204,0.04962,4.38516353,
0.04964,-4.458322675,0.04964,3.654302942,
0.04966,-2.631171204,0.04966,4.750593824,
0.04968,-2.631171204,0.04968,4.38516353,
0.0497,-4.458322675,0.0497,3.654302942,
0.04972,-3.362031792,0.04972,4.38516353,
0.04974,-3.362031792,0.04974,5.116024118,
0.04976,-4.823752969,0.04976,3.654302942,
0.04978,-0.8040197332,0.04978,4.019733236,
0.0498,-2.996601498,0.0498,4.019733236,
0.04982,-2.631171204,0.04982,4.019733236,
0.04984,-1.534880322,0.04984,5.116024118,
0.04986,-1.169450027,0.04986,4.750593824,
0.04988,-1.534880322,0.04988,4.38516353,
0.0499,-0.4385894391,0.0499,4.019733236,
0.04992,-0.07315914489,0.04992,4.019733236,
0.04994,-0.4385894391,0.04994,3.288872648,
0.04996,-0.4385894391,0.04996,4.38516353,
0.04998,0.6577014434,0.04998,4.38516353,
0.05,0.6577014434,0.05,4.019733236,
0.05002,5.408295268,0.05002,4.750593824,
0.05004,2.484852914,0.05004,4.750593824,
0.05006,3.581143797,0.05006,4.019733236,
0.05008,3.581143797,0.05008,4.750593824,
0.0501,3.946574091,0.0501,4.38516353,
0.05012,2.484852914,0.05012,4.019733236,
0.05014,3.581143797,0.05014,4.750593824,
0.05016,5.773725562,0.05016,4.019733236,
0.05018,2.850283208,0.05018,4.38516353,
0.0502,3.946574091,0.0502,4.38516353,
0.05022,0.2922711493,0.05022,4.38516353,
0.05024,3.581143797,0.05024,3.288872648,
0.05026,2.11942262,0.05026,4.38516353,
0.05028,2.850283208,0.05028,4.019733236,
0.0503,2.850283208,0.0503,3.654302942,
0.05032,1.388562032,0.05032,4.38516353,
0.05034,2.11942262,0.05034,4.38516353,
0.05036,-0.07315914489,0.05036,3.654302942,
0.05038,1.023131738,0.05038,4.38516353,
0.0504,0.6577014434,0.0504,4.019733236,
0.05042,-1.534880322,0.05042,4.019733236,
0.05044,1.023131738,0.05044,4.750593824,
0.05046,-1.900310616,0.05046,3.654302942,
0.05048,-1.169450027,0.05048,5.116024118,
0.0505,-2.631171204,0.0505,4.38516353,
0.05052,-1.900310616,0.05052,4.38516353,
0.05054,-1.169450027,0.05054,5.116024118,
0.05056,-1.900310616,0.05056,4.019733236,
0.05058,-3.362031792,0.05058,4.019733236,
0.0506,-3.362031792,0.0506,4.750593824,
0.05062,-3.362031792,0.05062,4.019733236,
0.05064,-3.727462087,0.05064,4.019733236,
0.05066,-3.362031792,0.05066,4.750593824,
0.05068,-4.458322675,0.05068,4.019733236,
0.0507,-3.362031792,0.0507,4.019733236,
0.05072,-3.362031792,0.05072,4.750593824,
0.05074,-4.092892381,0.05074,3.654302942,
0.05076,-3.727462087,0.05076,4.38516353,
0.05078,-2.26574091,0.05078,4.750593824,
0.0508,-2.631171204,0.0508,4.38516353,
0.05082,-2.26574091,0.05082,4.019733236,
0.05084,-1.169450027,0.05084,4.750593824,
0.05086,0.2922711493,0.05086,4.38516353,
0.05088,-0.07315914489,0.05088,4.38516353,
0.0509,0.2922711493,0.0509,4.750593824,
0.05092,-0.07315914489,0.05092,4.019733236,
0.05094,1.388562032,0.05094,4.019733236,
0.05096,2.11942262,0.05096,4.750593824,
0.05098,1.023131738,0.05098,4.019733236,
0.051,3.215713503,0.051,4.019733236,
0.05102,1.753992326,0.05102,4.750593824,
0.05104,0.6577014434,0.05104,4.019733236,
0.05106,1.388562032,0.05106,3.654302942,
0.05108,2.484852914,0.05108,4.750593824,
0.0511,3.215713503,0.0511,4.019733236,
0.05112,4.312004385,0.05112,4.38516353,
0.05114,3.581143797,0.05114,5.116024118,
0.05116,2.484852914,0.05116,4.019733236,
0.05118,2.850283208,0.05118,4.019733236,
0.0512,4.312004385,0.0512,4.750593824,
0.05122,2.850283208,0.05122,4.019733236,
0.05124,2.484852914,0.05124,4.38516353,
0.05126,2.484852914,0.05126,4.38516353,
0.05128,0.6577014434,0.05128,4.019733236,
0.0513,1.388562032,0.0513,4.019733236,
0.05132,1.753992326,0.05132,4.750593824,
0.05134,-0.4385894391,0.05134,4.019733236,
0.05136,1.388562032,0.05136,4.019733236,
0.05138,-0.8040197332,0.05138,4.750593824,
0.0514,-1.534880322,0.0514,4.38516353,
0.05142,-2.996601498,0.05142,4.38516353,
0.05144,-2.631171204,0.05144,5.116024118,
0.05146,-2.631171204,0.05146,4.019733236,
0.05148,-2.996601498,0.05148,4.019733236,
0.0515,-2.996601498,0.0515,4.750593824,
0.05152,-4.458322675,0.05152,4.019733236,
0.05154,-5.189183263,0.05154,4.38516353,
0.05156,-4.823752969,0.05156,4.750593824,
0.05158,-3.727462087,0.05158,4.38516353,
0.0516,-4.092892381,0.0516,4.019733236,
0.05162,-2.631171204,0.05162,4.750593824,
0.05164,-3.727462087,0.05164,4.019733236,
0.05166,-4.458322675,0.05166,4.38516353,
0.05168,-2.631171204,0.05168,4.750593824,
0.0517,-3.362031792,0.0517,4.019733236,
0.05172,-1.900310616,0.05172,4.38516353,
0.05174,-1.534880322,0.05174,5.116024118,
0.05176,-1.900310616,0.05176,3.654302942,
0.05178,-2.996601498,0.05178,4.38516353,
0.0518,1.023131738,0.0518,5.481454413,
0.05182,-0.07315914489,0.05182,4.019733236,
0.05184,0.2922711493,0.05184,4.019733236,
0.05186,1.753992326,0.05186,4.750593824,
0.05188,1.388562032,0.05188,4.750593824,
0.0519,0.6577014434,0.0519,4.38516353,
0.05192,1.753992326,0.05192,4.750593824,
0.05194,1.753992326,0.05194,4.019733236,
0.05196,3.581143797,0.05196,4.019733236,
0.05198,3.581143797,0.05198,4.750593824,
0.052,5.773725562,0.052,4.38516353,
0.05202,3.215713503,0.05202,4.019733236,
0.05204,6.50458615,0.05204,4.750593824,
0.05206,2.11942262,0.05206,4.38516353,
0.05208,3.581143797,0.05208,3.654302942,
0.0521,3.581143797,0.0521,4.750593824,
0.05212,2.850283208,0.05212,4.38516353,
0.05214,3.946574091,0.05214,4.019733236,
0.05216,2.11942262,0.05216,4.750593824,
0.05218,2.11942262,0.05218,4.38516353,
0.0522,0.6577014434,0.0522,4.019733236,
0.05222,2.484852914,0.05222,4.750593824,
0.05224,0.6577014434,0.05224,4.38516353,
0.05226,-0.07315914489,0.05226,4.019733236,
0.05228,1.023131738,0.05228,4.38516353,
0.0523,-1.169450027,0.0523,4.38516353,
0.05232,-1.534880322,0.05232,4.019733236,
0.05234,-0.4385894391,0.05234,4.750593824,
0.05236,-1.169450027,0.05236,4.38516353,
0.05238,-1.900310616,0.05238,4.750593824,
0.0524,-2.996601498,0.0524,4.38516353,
0.05242,-3.727462087,0.05242,4.38516353,
0.05244,-3.362031792,0.05244,4.750593824,
0.05246,-2.996601498,0.05246,4.38516353,
0.05248,-1.169450027,0.05248,4.019733236,
0.0525,-2.996601498,0.0525,4.38516353,
0.05252,-2.996601498,0.05252,4.750593824,
0.05254,-3.362031792,0.05254,4.38516353,
0.05256,-1.169450027,0.05256,4.38516353,
0.05258,-4.458322675,0.05258,4.750593824,
0.0526,-3.362031792,0.0526,4.38516353,
0.05262,-2.631171204,0.05262,4.750593824,
0.05264,-2.26574091,0.05264,4.38516353,
0.05266,-1.534880322,0.05266,4.38516353,
0.05268,-0.8040197332,0.05268,4.38516353,
0.0527,-1.534880322,0.0527,4.750593824,
0.05272,-1.534880322,0.05272,4.38516353,
0.05274,-0.07315914489,0.05274,4.019733236,
0.05276,-1.169450027,0.05276,4.750593824,
0.05278,1.023131738,0.05278,4.38516353,
0.0528,1.388562032,0.0528,4.750593824,
0.05282,1.023131738,0.05282,4.38516353,
0.05284,1.753992326,0.05284,4.38516353,
0.05286,1.023131738,0.05286,4.38516353,
0.05288,2.11942262,0.05288,4.750593824,
0.0529,4.677434679,0.0529,4.019733236,
0.05292,4.677434679,0.05292,4.750593824,
0.05294,3.215713503,0.05294,4.750593824,
0.05296,3.581143797,0.05296,4.019733236,
0.05298,3.215713503,0.05298,4.750593824,
0.053,3.215713503,0.053,3.654302942,
0.05302,3.946574091,0.05302,4.750593824,
0.05304,2.484852914,0.05304,4.019733236,
0.05306,3.215713503,0.05306,4.019733236,
0.05308,1.753992326,0.05308,4.38516353,
0.0531,2.11942262,0.0531,4.750593824,
0.05312,2.11942262,0.05312,4.38516353,
0.05314,1.023131738,0.05314,4.750593824,
0.05316,2.11942262,0.05316,5.481454413,
0.05318,-0.07315914489,0.05318,4.38516353,
0.0532,0.6577014434,0.0532,4.019733236,
0.05322,-1.169450027,0.05322,5.116024118,
0.05324,-1.169450027,0.05324,4.750593824,
0.05326,0.2922711493,0.05326,5.481454413,
0.05328,-1.169450027,0.05328,5.116024118,
0.0533,-2.26574091,0.0533,4.750593824,
0.05332,-3.362031792,0.05332,4.38516353,
0.05334,-2.26574091,0.05334,5.116024118,
0.05336,-3.727462087,0.05336,5.846884707,
0.05338,-0.8040197332,0.05338,4.38516353,
0.0534,-2.996601498,0.0534,4.750593824,
0.05342,-3.362031792,0.05342,5.116024118,
0.05344,-3.727462087,0.05344,4.38516353,
0.05346,-3.727462087,0.05346,2.923442353,
0.05348,-4.092892381,0.05348,3.654302942,
0.0535,-3.727462087,0.0535,4.019733236,
0.05352,-2.26574091,0.05352,4.38516353,
0.05354,-2.996601498,0.05354,4.38516353,
0.05356,-2.996601498,0.05356,3.288872648,
0.05358,-1.900310616,0.05358,4.38516353,
0.0536,-2.26574091,0.0536,4.019733236,
0.05362,-2.631171204,0.05362,4.38516353,
0.05364,-0.8040197332,0.05364,4.38516353,
0.05366,-0.8040197332,0.05366,4.38516353,
0.05368,-1.900310616,0.05368,4.38516353,
0.0537,0.2922711493,0.0537,4.019733236,
0.05372,1.023131738,0.05372,4.750593824,
0.05374,2.484852914,0.05374,4.38516353,
0.05376,1.388562032,0.05376,5.116024118,
0.05378,4.312004385,0.05378,4.38516353,
0.0538,1.753992326,0.0538,4.750593824,
0.05382,3.946574091,0.05382,4.019733236,
0.05384,2.850283208,0.05384,4.750593824,
0.05386,1.753992326,0.05386,6.212315001,
0.05388,4.312004385,0.05388,4.38516353,
0.0539,3.946574091,0.0539,4.750593824,
0.05392,2.850283208,0.05392,4.750593824,
0.05394,3.215713503,0.05394,4.019733236,
0.05396,3.946574091,0.05396,5.481454413,
0.05398,2.850283208,0.05398,4.750593824,
0.054,2.850283208,0.054,4.38516353,
0.05402,3.215713503,0.05402,4.750593824,
0.05404,2.11942262,0.05404,4.750593824,
0.05406,2.850283208,0.05406,5.116024118,
0.05408,2.11942262,0.05408,4.750593824,
0.0541,1.753992326,0.0541,4.38516353,
0.05412,1.388562032,0.05412,4.019733236,
0.05414,-0.07315914489,0.05414,4.38516353,
0.05416,0.6577014434,0.05416,5.116024118,
0.05418,-1.534880322,0.05418,4.38516353,
0.0542,-1.169450027,0.0542,4.750593824,
0.05422,-2.26574091,0.05422,4.38516353,
0.05424,-2.631171204,0.05424,4.38516353,
0.05426,-1.534880322,0.05426,2.192581765,
0.05428,-1.534880322,0.05428,4.019733236,
0.0543,-2.631171204,0.0543,4.38516353,
0.05432,-4.092892381,0.05432,4.019733236,
0.05434,-5.189183263,0.05434,4.019733236,
0.05436,-2.26574091,0.05436,5.116024118,
0.05438,-3.362031792,0.05438,4.38516353,
0.0544,-3.362031792,0.0544,3.654302942,
0.05442,-2.996601498,0.05442,4.750593824,
0.05444,-3.362031792,0.05444,4.019733236,
0.05446,-4.458322675,0.05446,5.481454413,
0.05448,-3.362031792,0.05448,4.750593824,
0.0545,-2.26574091,0.0545,4.019733236,
0.05452,-4.458322675,0.05452,4.019733236,
0.05454,-1.900310616,0.05454,4.38516353,
0.05456,-1.169450027,0.05456,3.654302942,
0.05458,-1.900310616,0.05458,4.019733236,
0.0546,-0.8040197332,0.0546,4.38516353,
0.05462,-0.07315914489,0.05462,4.019733236,
0.05464,1.023131738,0.05464,4.019733236,
0.05466,2.484852914,0.05466,2.923442353,
0.05468,1.388562032,0.05468,4.38516353,
0.0547,1.388562032,0.0547,4.019733236,
0.05472,1.753992326,0.05472,4.38516353,
0.05474,3.215713503,0.05474,4.019733236,
0.05476,3.946574091,0.05476,4.38516353,
0.05478,4.677434679,0.05478,4.38516353,
0.0548,3.581143797,0.0548,4.38516353,
0.05482,3.946574091,0.05482,3.288872648,
0.05484,3.946574091,0.05484,4.38516353,
0.05486,6.139155856,0.05486,4.019733236,
0.05488,3.215713503,0.05488,4.019733236,
0.0549,4.312004385,0.0549,4.38516353,
0.05492,3.215713503,0.05492,4.38516353,
0.05494,3.215713503,0.05494,3.654302942,
0.05496,3.946574091,0.05496,3.654302942,
0.05498,2.850283208,0.05498,4.019733236,
0.055,1.753992326,0.055,4.019733236,
0.05502,4.677434679,0.05502,4.38516353,
0.05504,1.023131738,0.05504,4.38516353,
0.05506,0.2922711493,0.05506,2.558012059,
0.05508,1.023131738,0.05508,4.38516353,
0.0551,-0.07315914489,0.0551,4.019733236,
0.05512,-0.4385894391,0.05512,3.654302942,
0.05514,-2.26574091,0.05514,4.750593824,
0.05516,-4.092892381,0.05516,4.38516353,
0.05518,-0.4385894391,0.05518,3.654302942,
0.0552,-1.900310616,0.0552,4.38516353,
0.05522,-1.900310616,0.05522,4.38516353,
0.05524,-2.996601498,0.05524,3.654302942,
0.05526,-3.362031792,0.05526,5.481454413,
0.05528,-4.092892381,0.05528,4.38516353,
0.0553,-3.362031792,0.0553,3.654302942,
0.05532,-3.362031792,0.05532,4.38516353,
0.05534,-3.727462087,0.05534,4.38516353,
0.05536,-2.631171204,0.05536,3.654302942,
0.05538,-2.996601498,0.05538,4.38516353,
0.0554,-1.169450027,0.0554,4.38516353,
0.05542,-2.996601498,0.05542,4.019733236,
0.05544,-2.631171204,0.05544,4.38516353,
0.05546,-1.900310616,0.05546,4.019733236,
0.05548,-1.534880322,0.05548,3.654302942,
0.0555,-1.169450027,0.0555,4.019733236,
0.05552,-1.169450027,0.05552,4.38516353,
0.05554,-0.07315914489,0.05554,3.654302942,
0.05556,0.6577014434,0.05556,4.38516353,
0.05558,2.484852914,0.05558,4.750593824,
0.0556,1.753992326,0.0556,3.654302942,
0.05562,2.484852914,0.05562,4.750593824,
0.05564,2.11942262,0.05564,4.38516353,
0.05566,1.023131738,0.05566,4.019733236,
0.05568,2.850283208,0.05568,4.019733236,
0.0557,3.581143797,0.0557,4.750593824,
0.05572,2.850283208,0.05572,3.654302942,
0.05574,5.042864974,0.05574,4.38516353,
0.05576,3.946574091,0.05576,4.019733236,
0.05578,2.484852914,0.05578,4.019733236,
0.0558,2.11942262,0.0558,4.38516353,
0.05582,5.408295268,0.05582,4.38516353,
0.05584,3.215713503,0.05584,3.654302942,
0.05586,3.581143797,0.05586,4.019733236,
0.05588,2.484852914,0.05588,4.38516353,
0.0559,1.023131738,0.0559,3.654302942,
0.05592,2.11942262,0.05592,4.019733236,
0.05594,2.484852914,0.05594,4.019733236,
0.05596,1.388562032,0.05596,4.019733236,
0.05598,-0.4385894391,0.05598,4.019733236,
0.056,-1.534880322,0.056,4.38516353,
0.05602,-1.900310616,0.05602,3.654302942,
0.05604,-0.8040197332,0.05604,4.019733236,
0.05606,-1.169450027,0.05606,4.019733236,
0.05608,-1.900310616,0.05608,3.654302942,
0.0561,-1.900310616,0.0561,4.38516353,
0.05612,-1.900310616,0.05612,4.019733236,
0.05614,-2.631171204,0.05614,4.019733236,
0.05616,-2.631171204,0.05616,5.116024118,
0.05618,-5.189183263,0.05618,4.38516353,
0.0562,-4.092892381,0.0562,4.019733236,
0.05622,-3.727462087,0.05622,4.750593824,
0.05624,-3.362031792,0.05624,4.38516353,
0.05626,-1.534880322,0.05626,4.019733236,
0.05628,-2.996601498,0.05628,4.750593824,
0.0563,-2.996601498,0.0563,4.38516353,
0.05632,-3.727462087,0.05632,4.019733236,
0.05634,-2.631171204,0.05634,4.750593824,
0.05636,-2.996601498,0.05636,4.019733236,
0.05638,-3.362031792,0.05638,4.019733236,
0.0564,-2.26574091,0.0564,5.116024118,
0.05642,-0.07315914489,0.05642,4.38516353,
0.05644,-2.631171204,0.05644,4.38516353,
0.05646,-0.8040197332,0.05646,4.750593824,
0.05648,-0.07315914489,0.05648,4.38516353,
0.0565,0.2922711493,0.0565,4.019733236,
0.05652,1.023131738,0.05652,4.750593824,
0.05654,1.023131738,0.05654,4.38516353,
0.05656,1.388562032,0.05656,4.38516353,
0.05658,3.581143797,0.05658,4.750593824,
0.0566,2.850283208,0.0566,4.750593824,
0.05662,2.850283208,0.05662,4.019733236,
0.05664,3.946574091,0.05664,4.750593824,
0.05666,3.946574091,0.05666,4.750593824,
0.05668,3.581143797,0.05668,4.019733236,
0.0567,3.581143797,0.0567,4.750593824,
0.05672,3.581143797,0.05672,4.38516353,
0.05674,3.581143797,0.05674,4.019733236,
0.05676,3.946574091,0.05676,4.38516353,
0.05678,1.753992326,0.05678,4.38516353,
0.0568,2.850283208,0.0568,4.019733236,
0.05682,1.388562032,0.05682,4.38516353,
0.05684,2.11942262,0.05684,4.38516353,
0.05686,2.850283208,0.05686,4.38516353,
0.05688,1.388562032,0.05688,5.116024118,
0.0569,-0.8040197332,0.0569,4.38516353,
0.05692,0.6577014434,0.05692,4.38516353,
0.05694,-0.07315914489,0.05694,4.750593824,
0.05696,-0.8040197332,0.05696,4.019733236,
0.05698,-1.534880322,0.05698,4.38516353,
0.057,-1.900310616,0.057,4.750593824,
0.05702,-2.26574091,0.05702,4.019733236,
0.05704,-1.900310616,0.05704,4.38516353,
0.05706,-3.362031792,0.05706,4.750593824,
0.05708,-4.458322675,0.05708,4.38516353,
0.0571,-2.631171204,0.0571,4.750593824,
0.05712,-2.631171204,0.05712,4.750593824,
0.05714,-4.823752969,0.05714,4.38516353,
0.05716,-3.727462087,0.05716,4.38516353,
0.05718,-4.092892381,0.05718,4.750593824,
0.0572,-4.092892381,0.0572,4.750593824,
0.05722,-3.727462087,0.05722,3.654302942,
0.05724,-2.26574091,0.05724,4.38516353,
0.05726,-2.996601498,0.05726,4.019733236,
0.05728,-4.092892381,0.05728,4.019733236,
0.0573,-2.26574091,0.0573,5.116024118,
0.05732,-4.092892381,0.05732,4.38516353,
0.05734,-2.631171204,0.05734,4.38516353,
0.05736,-1.534880322,0.05736,5.116024118,
0.05738,-1.534880322,0.05738,4.019733236,
0.0574,-1.169450027,0.0574,4.38516353,
0.05742,0.6577014434,0.05742,4.38516353,
0.05744,0.6577014434,0.05744,4.38516353,
0.05746,1.753992326,0.05746,4.38516353,
0.05748,2.11942262,0.05748,4.750593824,
0.0575,1.753992326,0.0575,4.38516353,
0.05752,2.11942262,0.05752,4.019733236,
0.05754,1.753992326,0.05754,5.116024118,
0.05756,3.215713503,0.05756,4.38516353,
0.05758,1.023131738,0.05758,4.019733236,
0.0576,5.042864974,0.0576,4.750593824,
0.05762,2.850283208,0.05762,4.38516353,
0.05764,2.484852914,0.05764,4.750593824,
0.05766,3.581143797,0.05766,4.750593824,
0.05768,3.946574091,0.05768,4.38516353,
0.0577,3.581143797,0.0577,4.750593824,
0.05772,3.581143797,0.05772,4.38516353,
0.05774,1.753992326,0.05774,4.38516353,
0.05776,2.850283208,0.05776,4.38516353,
0.05778,1.753992326,0.05778,4.38516353,
0.0578,1.023131738,0.0578,4.38516353,
0.05782,1.388562032,0.05782,4.019733236,
0.05784,1.388562032,0.05784,4.750593824,
0.05786,-0.07315914489,0.05786,4.38516353,
0.05788,-1.169450027,0.05788,4.38516353,
0.0579,-0.4385894391,0.0579,4.750593824,
0.05792,-3.362031792,0.05792,4.38516353,
0.05794,-1.900310616,0.05794,4.38516353,
0.05796,-2.631171204,0.05796,5.116024118,
0.05798,-2.996601498,0.05798,4.38516353,
0.058,-1.900310616,0.058,4.019733236,
0.05802,-2.26574091,0.05802,5.116024118,
0.05804,-3.727462087,0.05804,4.38516353,
0.05806,-3.727462087,0.05806,4.750593824,
0.05808,-4.092892381,0.05808,4.019733236,
0.0581,-2.996601498,0.0581,4.38516353,
0.05812,-2.996601498,0.05812,4.38516353,
0.05814,-4.092892381,0.05814,4.38516353,
0.05816,-3.727462087,0.05816,4.019733236,
0.05818,-2.996601498,0.05818,4.750593824,
0.0582,-3.727462087,0.0582,4.750593824,
0.05822,-2.996601498,0.05822,4.019733236,
0.05824,-1.900310616,0.05824,4.750593824,
0.05826,-1.900310616,0.05826,4.38516353,
0.05828,-1.900310616,0.05828,4.750593824,
0.0583,-0.8040197332,0.0583,4.750593824,
0.05832,-1.534880322,0.05832,4.019733236,
0.05834,0.6577014434,0.05834,4.750593824,
0.05836,0.6577014434,0.05836,4.38516353,
0.05838,1.023131738,0.05838,3.288872648,
0.0584,-0.4385894391,0.0584,4.38516353,
0.05842,1.753992326,0.05842,4.750593824,
0.05844,3.215713503,0.05844,4.019733236,
0.05846,2.850283208,0.05846,4.019733236,
0.05848,3.581143797,0.05848,5.481454413,
0.0585,3.215713503,0.0585,4.38516353,
0.05852,3.946574091,0.05852,4.019733236,
0.05854,3.946574091,0.05854,4.750593824,
0.05856,5.408295268,0.05856,4.750593824,
0.05858,4.677434679,0.05858,5.116024118,
0.0586,4.312004385,0.0586,4.750593824,
0.05862,3.946574091,0.05862,4.38516353,
0.05864,3.581143797,0.05864,4.750593824,
0.05866,1.388562032,0.05866,4.019733236,
0.05868,3.215713503,0.05868,3.654302942,
0.0587,2.850283208,0.0587,4.38516353,
0.05872,2.484852914,0.05872,4.750593824,
0.05874,1.753992326,0.05874,4.38516353,
0.05876,1.388562032,0.05876,4.750593824,
0.05878,1.023131738,0.05878,4.750593824,
