"A0_accX_x","A0_accX_y","A1_rmsX_x","A1_rmsX_y"
0,-6.870601133,0,7.308605883,
2e-05,-6.505170839,2e-05,7.308605883,
4e-05,-8.697752604,4e-05,6.212315001,
6e-05,-7.966892015,6e-05,7.308605883,
8e-05,-7.236031427,8e-05,6.943175589,
0.0001,-8.33232231,0.0001,7.308605883,
0.00012,-8.33232231,0.00012,6.943175589,
0.00014,-5.77431025,0.00014,6.577745295,
0.00016,-5.043449662,0.00016,7.308605883,
0.00018,-5.408879956,0.00018,7.308605883,
0.0002,-4.312589074,0.0002,7.308605883,
0.00022,-2.120007309,0.00022,6.943175589,
0.00024,-1.38914672,0.00024,8.77032706,
0.00026,0.8034350448,0.00026,7.308605883,
0.00028,-1.38914672,0.00028,6.943175589,
0.0003,0.07257445642,0.0003,7.674036178,
0.00032,2.630586516,0.00032,7.308605883,
0.00034,2.265156221,0.00034,8.77032706,
0.00036,4.823168281,0.00036,7.674036178,
0.00038,4.823168281,0.00038,7.674036178,
0.0004,5.919459163,0.0004,6.943175589,
0.00042,7.746610634,0.00042,7.674036178,
0.00044,6.284889457,0.00044,7.674036178,
0.00046,6.650319752,0.00046,6.943175589,
0.00048,7.015750046,0.00048,7.308605883,
0.0005,7.38118034,0.0005,7.674036178,
0.00052,6.284889457,0.00052,6.943175589,
0.00054,8.842901517,0.00054,6.943175589,
0.00056,8.842901517,0.00056,7.674036178,
0.00058,7.38118034,0.00058,6.943175589,
0.0006,8.112040928,0.0006,7.674036178,
0.00062,8.477471222,0.00062,7.674036178,
0.00064,5.554028869,0.00064,8.039466472,
0.00066,5.919459163,0.00066,7.308605883,
0.00068,5.919459163,0.00068,6.943175589,
0.0007,2.265156221,0.0007,6.943175589,
0.00072,1.899725927,0.00072,6.943175589,
0.00074,1.168865339,0.00074,8.039466472,
0.00076,-1.754577014,0.00076,6.943175589,
0.00078,-1.023716426,0.00078,7.674036178,
0.0008,-2.485437603,0.0008,8.039466472,
0.00082,-1.023716426,0.00082,6.943175589,
0.00084,-4.312589074,0.00084,6.577745295,
0.00086,-4.678019368,0.00086,8.039466472,
0.00088,-5.77431025,0.00088,6.943175589,
0.0009,-6.139740544,0.0009,7.674036178,
0.00092,-7.236031427,0.00092,7.308605883,
0.00094,-7.966892015,0.00094,6.212315001,
0.00096,-9.794043486,0.00096,7.674036178,
0.00098,-8.33232231,0.00098,7.308605883,
0.001,-7.966892015,0.001,6.943175589,
0.00102,-7.966892015,0.00102,7.308605883,
0.00104,-6.139740544,0.00104,6.943175589,
0.00106,-6.505170839,0.00106,6.943175589,
0.00108,-5.77431025,0.00108,7.308605883,
0.0011,-9.063182898,0.0011,7.674036178,
0.00112,-5.408879956,0.00112,6.577745295,
0.00114,-5.043449662,0.00114,7.674036178,
0.00116,-2.120007309,0.00116,7.308605883,
0.00118,-2.485437603,0.00118,7.308605883,
0.0012,-0.6582861319,0.0012,7.308605883,
0.00122,1.168865339,0.00122,7.308605883,
0.00124,0.8034350448,0.00124,7.674036178,
0.00126,2.630586516,0.00126,7.308605883,
0.00128,3.726877398,0.00128,7.308605883,
0.0013,4.457737986,0.0013,6.943175589,
0.00132,5.188598575,0.00132,7.308605883,
0.00134,5.919459163,0.00134,8.039466472,
0.00136,5.919459163,0.00136,7.308605883,
0.00138,7.746610634,0.00138,6.943175589,
0.0014,7.746610634,0.0014,7.674036178,
0.00142,7.015750046,0.00142,6.943175589,
0.00144,8.477471222,0.00144,7.674036178,
0.00146,8.112040928,0.00146,7.674036178,
0.00148,5.188598575,0.00148,6.943175589,
0.0015,7.015750046,0.0015,7.308605883,
0.00152,7.746610634,0.00152,6.943175589,
0.00154,8.842901517,0.00154,7.308605883,
0.00156,6.650319752,0.00156,6.943175589,
0.00158,4.457737986,0.00158,7.308605883,
0.0016,4.457737986,0.0016,8.039466472,
0.00162,3.361447104,0.00162,7.308605883,
0.00164,2.630586516,0.00164,7.308605883,
0.00166,1.534295633,0.00166,7.674036178,
0.00168,-1.38914672,0.00168,7.308605883,
0.0017,-1.023716426,0.0017,7.308605883,
0.00172,-2.850867897,0.00172,8.039466472,
0.00174,-3.581728485,0.00174,7.674036178,
0.00176,-3.947158779,0.00176,7.308605883,
0.00178,-4.312589074,0.00178,7.674036178,
0.0018,-6.505170839,0.0018,7.308605883,
0.00182,-6.139740544,0.00182,6.943175589,
0.00184,-7.601461721,0.00184,8.039466472,
0.00186,-6.870601133,0.00186,7.308605883,
0.00188,-7.601461721,0.00188,7.308605883,
0.0019,-7.966892015,0.0019,8.039466472,
0.00192,-7.601461721,0.00192,7.308605883,
0.00194,-8.697752604,0.00194,7.674036178,
0.00196,-7.236031427,0.00196,7.674036178,
0.00198,-7.601461721,0.00198,7.674036178,
0.002,-7.236031427,0.002,8.039466472,
0.00202,-6.139740544,0.00202,7.674036178,
0.00204,-6.505170839,0.00204,7.308605883,
0.00206,-5.408879956,0.00206,7.308605883,
0.00208,-3.216298191,0.00208,8.039466472,
0.0021,-3.581728485,0.0021,7.308605883,
0.00212,-2.120007309,0.00212,7.308605883,
0.00214,-0.2928558377,0.00214,7.674036178,
0.00216,0.07257445642,0.00216,7.308605883,
0.00218,1.534295633,0.00218,6.943175589,
0.0022,2.99601681,0.0022,8.039466472,
0.00222,3.726877398,0.00222,7.674036178,
0.00224,4.823168281,0.00224,7.308605883,
0.00226,4.457737986,0.00226,7.674036178,
0.00228,5.554028869,0.00228,8.404896766,
0.0023,7.746610634,0.0023,7.308605883,
0.00232,7.015750046,0.00232,7.674036178,
0.00234,7.38118034,0.00234,7.674036178,
0.00236,7.015750046,0.00236,7.308605883,
0.00238,7.746610634,0.00238,7.308605883,
0.0024,7.38118034,0.0024,7.308605883,
0.00242,7.38118034,0.00242,7.674036178,
0.00244,7.746610634,0.00244,7.674036178,
0.00246,6.650319752,0.00246,7.674036178,
0.00248,5.554028869,0.00248,7.308605883,
0.0025,5.554028869,0.0025,7.674036178,
0.00252,4.092307692,0.00252,7.674036178,
0.00254,4.823168281,0.00254,7.674036178,
0.00256,2.99601681,0.00256,8.404896766,
0.00258,1.534295633,0.00258,7.674036178,
0.0026,0.8034350448,0.0026,7.308605883,
0.00262,0.4380047506,0.00262,8.039466472,
0.00264,-1.38914672,0.00264,7.674036178,
0.00266,-2.485437603,0.00266,6.943175589,
0.00268,-3.216298191,0.00268,8.404896766,
0.0027,-5.77431025,0.0027,7.308605883,
0.00272,-5.043449662,0.00272,7.308605883,
0.00274,-6.139740544,0.00274,7.674036178,
0.00276,-7.236031427,0.00276,7.308605883,
0.00278,-9.428613192,0.00278,7.308605883,
0.0028,-6.870601133,0.0028,7.674036178,
0.00282,-7.236031427,0.00282,7.674036178,
0.00284,-7.966892015,0.00284,6.943175589,
0.00286,-8.697752604,0.00286,7.674036178,
0.00288,-7.966892015,0.00288,7.308605883,
0.0029,-7.601461721,0.0029,7.308605883,
0.00292,-7.966892015,0.00292,7.674036178,
0.00294,-7.236031427,0.00294,8.039466472,
0.00296,-5.408879956,0.00296,7.308605883,
0.00298,-6.870601133,0.00298,8.039466472,
0.003,-4.678019368,0.003,7.308605883,
0.00302,-3.581728485,0.00302,6.943175589,
0.00304,-2.485437603,0.00304,7.674036178,
0.00306,-1.023716426,0.00306,7.308605883,
0.00308,-0.2928558377,0.00308,7.308605883,
0.0031,1.168865339,0.0031,8.039466472,
0.00312,1.534295633,0.00312,7.308605883,
0.00314,2.99601681,0.00314,7.674036178,
0.00316,3.726877398,0.00316,8.039466472,
0.00318,7.015750046,0.00318,7.308605883,
0.0032,5.919459163,0.0032,6.943175589,
0.00322,6.650319752,0.00322,8.039466472,
0.00324,6.284889457,0.00324,7.308605883,
0.00326,5.188598575,0.00326,6.212315001,
0.00328,7.746610634,0.00328,8.039466472,
0.0033,7.38118034,0.0033,6.577745295,
0.00332,7.38118034,0.00332,7.308605883,
0.00334,7.38118034,0.00334,7.674036178,
0.00336,5.554028869,0.00336,7.308605883,
0.00338,7.015750046,0.00338,6.943175589,
0.0034,7.38118034,0.0034,8.404896766,
0.00342,7.38118034,0.00342,7.308605883,
0.00344,5.919459163,0.00344,7.674036178,
0.00346,4.092307692,0.00346,8.404896766,
0.00348,4.457737986,0.00348,8.039466472,
0.0035,4.092307692,0.0035,7.674036178,
0.00352,1.168865339,0.00352,8.039466472,
0.00354,0.4380047506,0.00354,7.674036178,
0.00356,-1.023716426,0.00356,7.674036178,
0.00358,-2.485437603,0.00358,8.039466472,
0.0036,-1.754577014,0.0036,7.308605883,
0.00362,-2.850867897,0.00362,7.674036178,
0.00364,-5.408879956,0.00364,7.674036178,
0.00366,-5.77431025,0.00366,7.674036178,
0.00368,-5.77431025,0.00368,7.674036178,
0.0037,-7.601461721,0.0037,7.674036178,
0.00372,-7.236031427,0.00372,7.308605883,
0.00374,-5.77431025,0.00374,8.039466472,
0.00376,-8.33232231,0.00376,8.404896766,
0.00378,-8.697752604,0.00378,7.308605883,
0.0038,-7.601461721,0.0038,7.674036178,
0.00382,-7.966892015,0.00382,7.674036178,
0.00384,-7.601461721,0.00384,7.308605883,
0.00386,-7.236031427,0.00386,6.577745295,
0.00388,-7.236031427,0.00388,7.308605883,
0.0039,-3.947158779,0.0039,7.674036178,
0.00392,-3.947158779,0.00392,7.674036178,
0.00394,-3.581728485,0.00394,7.674036178,
0.00396,-2.485437603,0.00396,8.77032706,
0.00398,-1.754577014,0.00398,8.039466472,
0.004,-2.485437603,0.004,7.308605883,
0.00402,0.07257445642,0.00402,7.674036178,
0.00404,1.534295633,0.00404,7.674036178,
0.00406,1.899725927,0.00406,6.577745295,
0.00408,2.99601681,0.00408,7.308605883,
0.0041,5.554028869,0.0041,7.308605883,
0.00412,4.457737986,0.00412,7.308605883,
0.00414,5.919459163,0.00414,7.674036178,
0.00416,7.015750046,0.00416,8.404896766,
0.00418,11.03548328,0.00418,7.674036178,
0.0042,6.650319752,0.0042,7.308605883,
0.00422,7.746610634,0.00422,7.308605883,
0.00424,7.38118034,0.00424,7.674036178,
0.00426,7.015750046,0.00426,6.577745295,
0.00428,5.919459163,0.00428,7.308605883,
0.0043,6.650319752,0.0043,7.674036178,
0.00432,7.38118034,0.00432,7.674036178,
0.00434,5.919459163,0.00434,6.943175589,
0.00436,7.015750046,0.00436,7.308605883,
0.00438,5.188598575,0.00438,7.674036178,
0.0044,3.726877398,0.0044,7.674036178,
0.00442,3.726877398,0.00442,7.674036178,
0.00444,2.630586516,0.00444,7.308605883,
0.00446,1.534295633,0.00446,7.674036178,
0.00448,-0.2928558377,0.00448,8.039466472,
0.0045,-1.023716426,0.0045,7.308605883,
0.00452,-2.485437603,0.00452,7.308605883,
0.00454,-2.485437603,0.00454,8.039466472,
0.00456,-5.043449662,0.00456,8.039466472,
0.00458,-5.043449662,0.00458,7.674036178,
0.0046,-5.408879956,0.0046,7.674036178,
0.00462,-6.505170839,0.00462,7.308605883,
0.00464,-6.870601133,0.00464,7.308605883,
0.00466,-8.33232231,0.00466,7.308605883,
0.00468,-8.33232231,0.00468,7.674036178,
0.0047,-7.966892015,0.0047,7.308605883,
0.00472,-7.601461721,0.00472,7.674036178,
0.00474,-8.33232231,0.00474,7.308605883,
0.00476,-8.697752604,0.00476,7.308605883,
0.00478,-8.697752604,0.00478,8.039466472,
0.0048,-6.870601133,0.0048,7.674036178,
0.00482,-6.139740544,0.00482,7.308605883,
0.00484,-4.312589074,0.00484,8.039466472,
0.00486,-6.870601133,0.00486,8.039466472,
0.00488,-2.120007309,0.00488,6.943175589,
0.0049,-1.38914672,0.0049,7.674036178,
0.00492,-1.023716426,0.00492,7.674036178,
0.00494,-0.2928558377,0.00494,7.308605883,
0.00496,1.168865339,0.00496,7.674036178,
0.00498,-1.023716426,0.00498,6.943175589,
0.005,2.630586516,0.005,6.943175589,
0.00502,2.630586516,0.00502,8.039466472,
0.00504,4.092307692,0.00504,7.308605883,
0.00506,5.919459163,0.00506,6.943175589,
0.00508,7.38118034,0.00508,7.308605883,
0.0051,7.015750046,0.0051,7.308605883,
0.00512,7.015750046,0.00512,7.308605883,
0.00514,7.015750046,0.00514,7.674036178,
0.00516,6.650319752,0.00516,7.308605883,
0.00518,8.842901517,0.00518,7.308605883,
0.0052,7.746610634,0.0052,7.674036178,
0.00522,7.38118034,0.00522,7.308605883,
0.00524,7.38118034,0.00524,7.308605883,
0.00526,8.477471222,0.00526,7.308605883,
0.00528,4.823168281,0.00528,7.308605883,
0.0053,5.188598575,0.0053,7.308605883,
0.00532,5.188598575,0.00532,7.674036178,
0.00534,4.457737986,0.00534,7.308605883,
0.00536,2.99601681,0.00536,7.308605883,
0.00538,-0.2928558377,0.00538,7.674036178,
0.0054,3.361447104,0.0054,7.674036178,
0.00542,-0.2928558377,0.00542,6.943175589,
0.00544,-1.38914672,0.00544,7.674036178,
0.00546,-2.485437603,0.00546,7.674036178,
0.00548,-3.581728485,0.00548,7.308605883,
0.0055,-4.312589074,0.0055,8.039466472,
0.00552,-5.408879956,0.00552,7.308605883,
0.00554,-6.505170839,0.00554,6.577745295,
0.00556,-6.505170839,0.00556,8.039466472,
0.00558,-7.236031427,0.00558,7.308605883,
0.0056,-7.601461721,0.0056,7.308605883,
0.00562,-8.33232231,0.00562,8.039466472,
0.00564,-7.966892015,0.00564,7.308605883,
0.00566,-8.33232231,0.00566,6.943175589,
0.00568,-8.697752604,0.00568,8.039466472,
0.0057,-7.966892015,0.0057,7.308605883,
0.00572,-7.601461721,0.00572,7.308605883,
0.00574,-6.505170839,0.00574,8.039466472,
0.00576,-5.408879956,0.00576,7.308605883,
0.00578,-5.408879956,0.00578,7.308605883,
0.0058,-4.312589074,0.0058,7.674036178,
0.00582,-3.947158779,0.00582,7.674036178,
0.00584,-1.38914672,0.00584,8.039466472,
0.00586,1.899725927,0.00586,8.039466472,
0.00588,0.8034350448,0.00588,6.943175589,
0.0059,0.4380047506,0.0059,6.943175589,
0.00592,2.265156221,0.00592,7.674036178,
0.00594,2.99601681,0.00594,7.308605883,
0.00596,4.092307692,0.00596,7.308605883,
0.00598,6.284889457,0.00598,8.039466472,
0.006,4.823168281,0.006,6.943175589,
0.00602,5.919459163,0.00602,7.308605883,
0.00604,7.015750046,0.00604,7.674036178,
0.00606,6.650319752,0.00606,7.674036178,
0.00608,6.284889457,0.00608,7.308605883,
0.0061,7.38118034,0.0061,7.674036178,
0.00612,6.650319752,0.00612,7.674036178,
0.00614,5.919459163,0.00614,7.308605883,
0.00616,7.38118034,0.00616,8.039466472,
0.00618,5.919459163,0.00618,7.308605883,
0.0062,7.746610634,0.0062,7.308605883,
0.00622,7.38118034,0.00622,7.674036178,
0.00624,5.188598575,0.00624,7.674036178,
0.00626,4.457737986,0.00626,7.308605883,
0.00628,3.361447104,0.00628,8.039466472,
0.0063,2.99601681,0.0063,6.943175589,
0.00632,2.265156221,0.00632,7.674036178,
0.00634,0.8034350448,0.00634,7.674036178,
0.00636,-1.023716426,0.00636,7.308605883,
0.00638,-0.6582861319,0.00638,7.674036178,
0.0064,-2.485437603,0.0064,8.039466472,
0.00642,-3.581728485,0.00642,7.674036178,
0.00644,-4.312589074,0.00644,6.943175589,
0.00646,-5.77431025,0.00646,7.674036178,
0.00648,-6.505170839,0.00648,7.674036178,
0.0065,-6.870601133,0.0065,7.308605883,
0.00652,-7.601461721,0.00652,8.039466472,
0.00654,-7.966892015,0.00654,7.308605883,
0.00656,-8.697752604,0.00656,7.674036178,
0.00658,-9.428613192,0.00658,8.404896766,
0.0066,-7.966892015,0.0066,7.674036178,
0.00662,-7.601461721,0.00662,7.308605883,
0.00664,-6.870601133,0.00664,8.039466472,
0.00666,-6.870601133,0.00666,7.308605883,
0.00668,-5.408879956,0.00668,6.577745295,
0.0067,-3.947158779,0.0067,7.308605883,
0.00672,-4.678019368,0.00672,7.674036178,
0.00674,-3.947158779,0.00674,7.308605883,
0.00676,-3.216298191,0.00676,7.674036178,
0.00678,-1.38914672,0.00678,7.674036178,
0.0068,-0.6582861319,0.0068,7.308605883,
0.00682,0.07257445642,0.00682,8.039466472,
0.00684,1.534295633,0.00684,7.674036178,
0.00686,1.899725927,0.00686,7.674036178,
0.00688,4.092307692,0.00688,8.404896766,
0.0069,4.092307692,0.0069,7.674036178,
0.00692,5.554028869,0.00692,7.308605883,
0.00694,6.284889457,0.00694,8.039466472,
0.00696,7.015750046,0.00696,7.674036178,
0.00698,7.38118034,0.00698,6.212315001,
0.007,8.112040928,0.007,8.039466472,
0.00702,6.650319752,0.00702,7.674036178,
0.00704,8.112040928,0.00704,7.308605883,
0.00706,8.112040928,0.00706,8.039466472,
0.00708,6.284889457,0.00708,9.501187648,
0.0071,7.38118034,0.0071,7.308605883,
0.00712,7.015750046,0.00712,8.039466472,
0.00714,7.38118034,0.00714,7.674036178,
0.00716,7.015750046,0.00716,7.308605883,
0.00718,6.284889457,0.00718,7.308605883,
0.0072,4.457737986,0.0072,7.308605883,
0.00722,3.726877398,0.00722,7.674036178,
0.00724,3.361447104,0.00724,8.039466472,
0.00726,2.630586516,0.00726,7.674036178,
0.00728,0.4380047506,0.00728,8.039466472,
0.0073,-0.6582861319,0.0073,8.039466472,
0.00732,-2.120007309,0.00732,7.308605883,
0.00734,-3.947158779,0.00734,7.674036178,
0.00736,-5.043449662,0.00736,7.674036178,
0.00738,-6.139740544,0.00738,7.308605883,
0.0074,-6.139740544,0.0074,7.674036178,
0.00742,-6.505170839,0.00742,8.039466472,
0.00744,-7.601461721,0.00744,7.674036178,
0.00746,-5.77431025,0.00746,7.308605883,
0.00748,-6.870601133,0.00748,8.404896766,
0.0075,-6.870601133,0.0075,8.039466472,
0.00752,-7.966892015,0.00752,7.308605883,
0.00754,-7.966892015,0.00754,8.039466472,
0.00756,-10.15947378,0.00756,7.674036178,
0.00758,-7.236031427,0.00758,7.674036178,
0.0076,-7.601461721,0.0076,7.674036178,
0.00762,-6.139740544,0.00762,7.674036178,
0.00764,-5.408879956,0.00764,7.308605883,
0.00766,-4.312589074,0.00766,8.039466472,
0.00768,-3.947158779,0.00768,6.943175589,
0.0077,-1.023716426,0.0077,7.674036178,
0.00772,0.07257445642,0.00772,7.674036178,
0.00774,-1.754577014,0.00774,8.039466472,
0.00776,0.8034350448,0.00776,7.308605883,
0.00778,2.99601681,0.00778,8.77032706,
0.0078,1.534295633,0.0078,6.943175589,
0.00782,5.554028869,0.00782,7.308605883,
0.00784,4.823168281,0.00784,8.039466472,
0.00786,4.823168281,0.00786,7.674036178,
0.00788,6.650319752,0.00788,6.943175589,
0.0079,8.112040928,0.0079,8.039466472,
0.00792,9.208331811,0.00792,7.308605883,
0.00794,7.746610634,0.00794,7.674036178,
0.00796,6.650319752,0.00796,7.308605883,
0.00798,7.746610634,0.00798,7.674036178,
0.008,7.38118034,0.008,7.674036178,
0.00802,7.015750046,0.00802,7.674036178,
0.00804,7.38118034,0.00804,7.674036178,
0.00806,5.919459163,0.00806,7.674036178,
0.00808,7.746610634,0.00808,7.674036178,
0.0081,5.188598575,0.0081,7.674036178,
0.00812,3.726877398,0.00812,7.674036178,
0.00814,4.823168281,0.00814,8.039466472,
0.00816,2.99601681,0.00816,7.674036178,
0.00818,2.265156221,0.00818,7.674036178,
0.0082,0.4380047506,0.0082,6.943175589,
0.00822,0.07257445642,0.00822,7.308605883,
0.00824,-0.6582861319,0.00824,6.943175589,
0.00826,-2.850867897,0.00826,7.308605883,
0.00828,-2.485437603,0.00828,6.943175589,
0.0083,-3.947158779,0.0083,7.674036178,
0.00832,-3.581728485,0.00832,6.943175589,
0.00834,-5.77431025,0.00834,7.308605883,
0.00836,-7.601461721,0.00836,6.943175589,
0.00838,-6.870601133,0.00838,6.577745295,
0.0084,-6.139740544,0.0084,7.308605883,
0.00842,-8.33232231,0.00842,7.674036178,
0.00844,-7.601461721,0.00844,6.943175589,
0.00846,-6.870601133,0.00846,7.308605883,
0.00848,-7.601461721,0.00848,7.674036178,
0.0085,-7.966892015,0.0085,7.308605883,
0.00852,-5.77431025,0.00852,8.039466472,
0.00854,-5.043449662,0.00854,7.674036178,
0.00856,-6.139740544,0.00856,6.943175589,
0.00858,-6.139740544,0.00858,7.308605883,
0.0086,-4.678019368,0.0086,7.674036178,
0.00862,-3.216298191,0.00862,7.674036178,
0.00864,-0.6582861319,0.00864,7.674036178,
0.00866,-1.023716426,0.00866,7.308605883,
0.00868,-1.38914672,0.00868,6.943175589,
0.0087,2.630586516,0.0087,7.674036178,
0.00872,2.630586516,0.00872,7.674036178,
0.00874,2.99601681,0.00874,7.308605883,
0.00876,5.554028869,0.00876,7.308605883,
0.00878,4.092307692,0.00878,7.308605883,
0.0088,5.919459163,0.0088,6.943175589,
0.00882,6.650319752,0.00882,7.674036178,
0.00884,8.112040928,0.00884,7.308605883,
0.00886,7.746610634,0.00886,7.674036178,
0.00888,7.746610634,0.00888,7.674036178,
0.0089,7.015750046,0.0089,7.308605883,
0.00892,6.284889457,0.00892,6.943175589,
0.00894,9.208331811,0.00894,7.674036178,
0.00896,7.746610634,0.00896,6.943175589,
0.00898,5.554028869,0.00898,7.308605883,
0.009,7.746610634,0.009,6.212315001,
0.00902,7.38118034,0.00902,7.308605883,
0.00904,5.919459163,0.00904,7.308605883,
0.00906,4.823168281,0.00906,7.674036178,
0.00908,5.188598575,0.00908,7.308605883,
0.0091,2.99601681,0.0091,7.308605883,
0.00912,1.168865339,0.00912,6.943175589,
0.00914,0.07257445642,0.00914,7.308605883,
0.00916,-1.023716426,0.00916,8.039466472,
0.00918,-0.6582861319,0.00918,7.674036178,
0.0092,-2.120007309,0.0092,7.674036178,
0.00922,-4.678019368,0.00922,7.308605883,
0.00924,-3.947158779,0.00924,7.308605883,
0.00926,-5.408879956,0.00926,8.039466472,
0.00928,-6.139740544,0.00928,7.674036178,
0.0093,-8.33232231,0.0093,7.674036178,
0.00932,-6.505170839,0.00932,7.308605883,
0.00934,-7.601461721,0.00934,7.674036178,
0.00936,-7.966892015,0.00936,7.674036178,
0.00938,-7.601461721,0.00938,7.674036178,
0.0094,-7.966892015,0.0094,7.308605883,
0.00942,-7.966892015,0.00942,7.674036178,
0.00944,-6.870601133,0.00944,7.674036178,
0.00946,-7.601461721,0.00946,7.308605883,
0.00948,-8.33232231,0.00948,7.674036178,
0.0095,-5.408879956,0.0095,6.943175589,
0.00952,-4.312589074,0.00952,7.674036178,
0.00954,-5.408879956,0.00954,7.674036178,
0.00956,-2.120007309,0.00956,7.674036178,
0.00958,-1.38914672,0.00958,8.039466472,
0.0096,-0.6582861319,0.0096,8.77032706,
0.00962,0.4380047506,0.00962,8.404896766,
0.00964,1.534295633,0.00964,7.308605883,
0.00966,2.99601681,0.00966,7.674036178,
0.00968,2.265156221,0.00968,6.943175589,
0.0097,5.188598575,0.0097,8.039466472,
0.00972,5.188598575,0.00972,7.674036178,
0.00974,6.284889457,0.00974,7.674036178,
0.00976,7.38118034,0.00976,7.674036178,
0.00978,6.284889457,0.00978,7.674036178,
0.0098,8.112040928,0.0098,6.577745295,
0.00982,8.112040928,0.00982,8.039466472,
0.00984,8.477471222,0.00984,7.308605883,
0.00986,7.38118034,0.00986,7.308605883,
0.00988,7.746610634,0.00988,8.039466472,
0.0099,7.746610634,0.0099,8.77032706,
0.00992,7.746610634,0.00992,7.308605883,
0.00994,7.746610634,0.00994,7.674036178,
0.00996,6.284889457,0.00996,7.308605883,
0.00998,5.919459163,0.00998,7.308605883,
0.01,4.457737986,0.01,8.039466472,
0.01002,3.361447104,0.01002,7.674036178,
0.01004,2.99601681,0.01004,7.674036178,
0.01006,2.265156221,0.01006,8.039466472,
0.01008,-0.2928558377,0.01008,7.308605883,
0.0101,0.07257445642,0.0101,6.212315001,
0.01012,-1.38914672,0.01012,7.674036178,
0.01014,-4.312589074,0.01014,7.674036178,
0.01016,-4.312589074,0.01016,7.674036178,
0.01018,-4.312589074,0.01018,7.674036178,
0.0102,-5.77431025,0.0102,7.674036178,
0.01022,-6.870601133,0.01022,7.674036178,
0.01024,-7.236031427,0.01024,7.674036178,
0.01026,-7.966892015,0.01026,7.674036178,
0.01028,-7.236031427,0.01028,7.674036178,
0.0103,-7.966892015,0.0103,8.77032706,
0.01032,-8.33232231,0.01032,7.674036178,
0.01034,-7.236031427,0.01034,7.674036178,
0.01036,-7.601461721,0.01036,7.674036178,
0.01038,-6.870601133,0.01038,7.674036178,
0.0104,-6.870601133,0.0104,7.308605883,
0.01042,-5.408879956,0.01042,8.039466472,
0.01044,-5.77431025,0.01044,7.674036178,
0.01046,-3.581728485,0.01046,7.674036178,
0.01048,-3.947158779,0.01048,7.674036178,
0.0105,-3.216298191,0.0105,7.308605883,
0.01052,-1.38914672,0.01052,7.308605883,
0.01054,-1.754577014,0.01054,8.039466472,
0.01056,-0.2928558377,0.01056,7.308605883,
0.01058,2.630586516,0.01058,7.674036178,
0.0106,2.99601681,0.0106,7.308605883,
0.01062,1.899725927,0.01062,7.674036178,
0.01064,4.823168281,0.01064,7.308605883,
0.01066,5.554028869,0.01066,8.039466472,
0.01068,4.823168281,0.01068,8.039466472,
0.0107,7.015750046,0.0107,8.404896766,
0.01072,7.746610634,0.01072,8.039466472,
0.01074,8.477471222,0.01074,7.308605883,
0.01076,7.746610634,0.01076,7.308605883,
0.01078,7.015750046,0.01078,8.039466472,
0.0108,7.015750046,0.0108,6.577745295,
0.01082,5.919459163,0.01082,7.308605883,
0.01084,7.015750046,0.01084,7.674036178,
0.01086,6.650319752,0.01086,7.674036178,
0.01088,7.746610634,0.01088,7.674036178,
0.0109,7.746610634,0.0109,8.404896766,
0.01092,4.823168281,0.01092,7.674036178,
0.01094,4.457737986,0.01094,6.943175589,
0.01096,2.99601681,0.01096,7.674036178,
0.01098,0.4380047506,0.01098,8.039466472,
0.011,1.168865339,0.011,7.308605883,
0.01102,0.4380047506,0.01102,8.039466472,
0.01104,-0.6582861319,0.01104,7.674036178,
0.01106,-1.754577014,0.01106,7.308605883,
0.01108,-3.216298191,0.01108,7.308605883,
0.0111,-5.408879956,0.0111,6.943175589,
0.01112,-5.77431025,0.01112,7.674036178,
0.01114,-6.870601133,0.01114,7.308605883,
0.01116,-6.139740544,0.01116,7.308605883,
0.01118,-6.870601133,0.01118,7.674036178,
0.0112,-7.966892015,0.0112,7.674036178,
0.01122,-7.236031427,0.01122,6.943175589,
0.01124,-9.428613192,0.01124,7.308605883,
0.01126,-7.601461721,0.01126,7.674036178,
0.01128,-6.139740544,0.01128,6.943175589,
0.0113,-6.139740544,0.0113,7.674036178,
0.01132,-6.139740544,0.01132,6.943175589,
0.01134,-6.505170839,0.01134,6.943175589,
0.01136,-5.77431025,0.01136,7.674036178,
0.01138,-6.139740544,0.01138,7.674036178,
0.0114,-3.581728485,0.0114,6.943175589,
0.01142,-3.947158779,0.01142,8.039466472,
0.01144,-1.023716426,0.01144,7.674036178,
0.01146,-1.38914672,0.01146,6.943175589,
0.01148,1.168865339,0.01148,7.674036178,
0.0115,0.8034350448,0.0115,6.943175589,
0.01152,0.07257445642,0.01152,6.943175589,
0.01154,4.457737986,0.01154,7.308605883,
0.01156,4.823168281,0.01156,7.308605883,
0.01158,5.188598575,0.01158,7.308605883,
0.0116,6.284889457,0.0116,7.674036178,
0.01162,6.284889457,0.01162,7.308605883,
0.01164,6.650319752,0.01164,7.308605883,
0.01166,8.477471222,0.01166,7.308605883,
0.01168,8.112040928,0.01168,7.308605883,
0.0117,7.746610634,0.0117,7.308605883,
0.01172,8.477471222,0.01172,7.308605883,
0.01174,7.746610634,0.01174,7.674036178,
0.01176,5.919459163,0.01176,6.943175589,
0.01178,7.38118034,0.01178,7.308605883,
0.0118,8.477471222,0.0118,7.308605883,
0.01182,8.842901517,0.01182,7.674036178,
0.01184,5.919459163,0.01184,7.674036178,
0.01186,5.554028869,0.01186,7.674036178,
0.01188,2.99601681,0.01188,7.674036178,
0.0119,2.265156221,0.0119,7.674036178,
0.01192,2.630586516,0.01192,7.674036178,
0.01194,-0.6582861319,0.01194,6.943175589,
0.01196,-0.6582861319,0.01196,7.308605883,
0.01198,-2.120007309,0.01198,7.674036178,
0.012,-4.312589074,0.012,7.308605883,
0.01202,-5.408879956,0.01202,7.674036178,
0.01204,-4.678019368,0.01204,6.943175589,
0.01206,-6.139740544,0.01206,6.943175589,
0.01208,-6.505170839,0.01208,7.308605883,
0.0121,-7.601461721,0.0121,7.308605883,
0.01212,-6.505170839,0.01212,6.943175589,
0.01214,-6.870601133,0.01214,7.674036178,
0.01216,-8.33232231,0.01216,7.674036178,
0.01218,-7.966892015,0.01218,7.674036178,
0.0122,-8.33232231,0.0122,6.943175589,
0.01222,-7.601461721,0.01222,7.674036178,
0.01224,-7.966892015,0.01224,6.943175589,
0.01226,-6.139740544,0.01226,7.674036178,
0.01228,-6.505170839,0.01228,7.674036178,
0.0123,-6.505170839,0.0123,6.943175589,
0.01232,-3.581728485,0.01232,7.308605883,
0.01234,-3.581728485,0.01234,7.674036178,
0.01236,-3.216298191,0.01236,6.943175589,
0.01238,-1.38914672,0.01238,7.308605883,
0.0124,-1.023716426,0.0124,7.308605883,
0.01242,1.168865339,0.01242,6.943175589,
0.01244,2.265156221,0.01244,7.674036178,
0.01246,2.630586516,0.01246,7.674036178,
0.01248,3.726877398,0.01248,6.943175589,
0.0125,4.823168281,0.0125,7.674036178,
0.01252,5.919459163,0.01252,7.308605883,
0.01254,5.919459163,0.01254,6.943175589,
0.01256,6.650319752,0.01256,7.308605883,
0.01258,8.477471222,0.01258,7.308605883,
0.0126,5.919459163,0.0126,7.308605883,
0.01262,7.746610634,0.01262,7.674036178,
0.01264,7.746610634,0.01264,7.674036178,
0.01266,4.823168281,0.01266,7.308605883,
0.01268,7.015750046,0.01268,7.308605883,
0.0127,7.38118034,0.0127,7.308605883,
0.01272,6.284889457,0.01272,6.943175589,
0.01274,8.842901517,0.01274,7.308605883,
0.01276,6.284889457,0.01276,7.308605883,
0.01278,4.823168281,0.01278,6.577745295,
0.0128,5.188598575,0.0128,7.308605883,
0.01282,2.265156221,0.01282,7.674036178,
0.01284,2.265156221,0.01284,6.943175589,
0.01286,1.168865339,0.01286,7.674036178,
0.01288,-1.38914672,0.01288,7.308605883,
0.0129,-1.38914672,0.0129,7.308605883,
0.01292,-1.023716426,0.01292,8.039466472,
0.01294,-2.850867897,0.01294,7.308605883,
0.01296,-5.77431025,0.01296,7.674036178,
0.01298,-5.408879956,0.01298,7.308605883,
0.013,-5.043449662,0.013,7.308605883,
0.01302,-6.505170839,0.01302,7.674036178,
0.01304,-6.870601133,0.01304,7.308605883,
0.01306,-7.236031427,0.01306,6.943175589,
0.01308,-7.601461721,0.01308,8.039466472,
0.0131,-8.697752604,0.0131,7.308605883,
0.01312,-6.505170839,0.01312,7.308605883,
0.01314,-8.33232231,0.01314,8.404896766,
0.01316,-7.966892015,0.01316,7.674036178,
0.01318,-7.601461721,0.01318,7.308605883,
0.0132,-6.870601133,0.0132,7.674036178,
0.01322,-7.601461721,0.01322,7.674036178,
0.01324,-6.139740544,0.01324,7.308605883,
0.01326,-4.312589074,0.01326,8.039466472,
0.01328,-3.581728485,0.01328,7.674036178,
0.0133,-1.754577014,0.0133,7.674036178,
0.01332,-0.2928558377,0.01332,8.039466472,
0.01334,-1.023716426,0.01334,7.308605883,
0.01336,0.4380047506,0.01336,6.943175589,
0.01338,1.534295633,0.01338,8.039466472,
0.0134,2.630586516,0.0134,7.674036178,
0.01342,5.554028869,0.01342,8.039466472,
0.01344,5.554028869,0.01344,8.039466472,
0.01346,4.092307692,0.01346,7.308605883,
0.01348,6.284889457,0.01348,7.308605883,
0.0135,7.015750046,0.0135,8.404896766,
0.01352,6.650319752,0.01352,6.212315001,
0.01354,8.112040928,0.01354,6.943175589,
0.01356,7.38118034,0.01356,7.674036178,
0.01358,6.650319752,0.01358,7.308605883,
0.0136,6.650319752,0.0136,6.943175589,
0.01362,5.919459163,0.01362,6.943175589,
0.01364,7.015750046,0.01364,7.674036178,
0.01366,7.015750046,0.01366,6.943175589,
0.01368,7.015750046,0.01368,7.674036178,
0.0137,5.188598575,0.0137,7.308605883,
0.01372,3.726877398,0.01372,9.135757354,
0.01374,4.092307692,0.01374,8.039466472,
0.01376,2.630586516,0.01376,7.308605883,
0.01378,1.534295633,0.01378,7.308605883,
0.0138,0.8034350448,0.0138,7.674036178,
0.01382,-0.6582861319,0.01382,7.674036178,
0.01384,-1.38914672,0.01384,7.308605883,
0.01386,-2.120007309,0.01386,7.674036178,
0.01388,-4.312589074,0.01388,7.674036178,
0.0139,-5.043449662,0.0139,7.308605883,
0.01392,-3.947158779,0.01392,6.212315001,
0.01394,-5.77431025,0.01394,7.674036178,
0.01396,-6.870601133,0.01396,6.943175589,
0.01398,-7.236031427,0.01398,8.039466472,
0.014,-7.966892015,0.014,7.308605883,
0.01402,-9.428613192,0.01402,8.77032706,
0.01404,-8.33232231,0.01404,8.039466472,
0.01406,-8.33232231,0.01406,7.308605883,
0.01408,-8.33232231,0.01408,7.674036178,
0.0141,-7.601461721,0.0141,7.674036178,
0.01412,-7.236031427,0.01412,6.577745295,
0.01414,-8.697752604,0.01414,7.674036178,
0.01416,-5.408879956,0.01416,8.039466472,
0.01418,-4.312589074,0.01418,6.943175589,
0.0142,-3.947158779,0.0142,7.674036178,
0.01422,-2.485437603,0.01422,8.039466472,
0.01424,-1.754577014,0.01424,7.674036178,
0.01426,-0.2928558377,0.01426,7.674036178,
0.01428,0.4380047506,0.01428,7.674036178,
0.0143,1.899725927,0.0143,7.674036178,
0.01432,1.534295633,0.01432,7.674036178,
0.01434,2.99601681,0.01434,6.943175589,
0.01436,5.188598575,0.01436,7.674036178,
0.01438,4.457737986,0.01438,7.674036178,
0.0144,7.38118034,0.0144,7.308605883,
0.01442,5.919459163,0.01442,6.577745295,
0.01444,7.38118034,0.01444,6.943175589,
0.01446,6.284889457,0.01446,8.039466472,
0.01448,8.112040928,0.01448,7.674036178,
0.0145,7.015750046,0.0145,7.308605883,
0.01452,7.015750046,0.01452,8.77032706,
0.01454,7.38118034,0.01454,7.674036178,
0.01456,7.015750046,0.01456,7.308605883,
0.01458,8.112040928,0.01458,8.039466472,
0.0146,7.38118034,0.0146,7.674036178,
0.01462,2.99601681,0.01462,7.308605883,
0.01464,5.188598575,0.01464,8.404896766,
0.01466,4.092307692,0.01466,7.674036178,
0.01468,2.99601681,0.01468,7.308605883,
0.0147,2.265156221,0.0147,8.039466472,
0.01472,1.899725927,0.01472,6.943175589,
0.01474,0.4380047506,0.01474,6.943175589,
0.01476,-1.023716426,0.01476,7.674036178,
0.01478,-1.754577014,0.01478,7.674036178,
0.0148,-6.139740544,0.0148,7.308605883,
0.01482,-3.581728485,0.01482,8.77032706,
0.01484,-5.408879956,0.01484,7.308605883,
0.01486,-4.678019368,0.01486,8.039466472,
0.01488,-6.139740544,0.01488,7.674036178,
0.0149,-5.77431025,0.0149,7.308605883,
0.01492,-7.236031427,0.01492,7.308605883,
0.01494,-7.601461721,0.01494,7.674036178,
0.01496,-7.966892015,0.01496,7.308605883,
0.01498,-6.870601133,0.01498,7.674036178,
0.015,-10.15947378,0.015,8.039466472,
0.01502,-7.236031427,0.01502,7.674036178,
0.01504,-6.139740544,0.01504,8.404896766,
0.01506,-7.601461721,0.01506,7.674036178,
0.01508,-5.77431025,0.01508,7.674036178,
0.0151,-5.043449662,0.0151,8.039466472,
0.01512,-5.77431025,0.01512,7.308605883,
0.01514,-3.216298191,0.01514,8.039466472,
0.01516,-1.754577014,0.01516,7.308605883,
0.01518,-1.754577014,0.01518,7.308605883,
0.0152,-0.2928558377,0.0152,7.308605883,
0.01522,0.8034350448,0.01522,7.674036178,
0.01524,-1.38914672,0.01524,7.308605883,
0.01526,3.361447104,0.01526,7.308605883,
0.01528,3.726877398,0.01528,8.039466472,
0.0153,5.554028869,0.0153,7.674036178,
0.01532,6.284889457,0.01532,7.308605883,
0.01534,5.919459163,0.01534,8.039466472,
0.01536,5.554028869,0.01536,7.674036178,
0.01538,7.746610634,0.01538,7.308605883,
0.0154,6.650319752,0.0154,8.039466472,
0.01542,8.112040928,0.01542,7.674036178,
0.01544,6.650319752,0.01544,7.674036178,
0.01546,6.650319752,0.01546,7.674036178,
0.01548,6.650319752,0.01548,7.674036178,
0.0155,8.112040928,0.0155,7.674036178,
0.01552,7.746610634,0.01552,7.674036178,
0.01554,7.015750046,0.01554,7.308605883,
0.01556,6.284889457,0.01556,7.674036178,
0.01558,4.823168281,0.01558,7.674036178,
0.0156,3.726877398,0.0156,8.039466472,
0.01562,5.554028869,0.01562,7.674036178,
0.01564,2.630586516,0.01564,7.674036178,
0.01566,0.07257445642,0.01566,7.674036178,
0.01568,-0.6582861319,0.01568,7.308605883,
0.0157,-1.023716426,0.0157,7.674036178,
0.01572,-1.023716426,0.01572,7.674036178,
0.01574,-3.216298191,0.01574,7.308605883,
0.01576,-4.312589074,0.01576,8.039466472,
0.01578,-5.043449662,0.01578,8.404896766,
0.0158,-5.77431025,0.0158,7.308605883,
0.01582,-6.870601133,0.01582,7.674036178,
0.01584,-7.966892015,0.01584,7.308605883,
0.01586,-7.601461721,0.01586,7.308605883,
0.01588,-7.601461721,0.01588,7.674036178,
0.0159,-7.966892015,0.0159,7.308605883,
0.01592,-7.966892015,0.01592,7.308605883,
0.01594,-6.870601133,0.01594,8.404896766,
0.01596,-7.236031427,0.01596,7.308605883,
0.01598,-5.77431025,0.01598,7.308605883,
0.016,-7.236031427,0.016,7.674036178,
0.01602,-5.77431025,0.01602,7.674036178,
0.01604,-5.408879956,0.01604,7.674036178,
0.01606,-5.408879956,0.01606,7.308605883,
0.01608,-3.216298191,0.01608,7.674036178,
0.0161,-2.120007309,0.0161,7.308605883,
0.01612,-1.38914672,0.01612,8.039466472,
0.01614,-0.6582861319,0.01614,6.577745295,
0.01616,-0.2928558377,0.01616,6.943175589,
0.01618,1.899725927,0.01618,7.674036178,
0.0162,1.168865339,0.0162,7.674036178,
0.01622,4.823168281,0.01622,7.308605883,
0.01624,5.919459163,0.01624,8.77032706,
0.01626,5.188598575,0.01626,7.674036178,
0.01628,6.650319752,0.01628,6.943175589,
0.0163,7.38118034,0.0163,8.039466472,
0.01632,6.284889457,0.01632,7.674036178,
0.01634,8.112040928,0.01634,6.577745295,
0.01636,7.746610634,0.01636,7.308605883,
0.01638,7.015750046,0.01638,7.674036178,
0.0164,7.38118034,0.0164,7.674036178,
0.01642,7.015750046,0.01642,7.674036178,
0.01644,7.38118034,0.01644,6.577745295,
0.01646,9.939192399,0.01646,7.674036178,
0.01648,7.015750046,0.01648,8.039466472,
0.0165,5.554028869,0.0165,8.039466472,
0.01652,4.823168281,0.01652,7.674036178,
0.01654,4.457737986,0.01654,8.77032706,
0.01656,2.630586516,0.01656,7.674036178,
0.01658,2.265156221,0.01658,7.674036178,
0.0166,0.8034350448,0.0166,7.674036178,
0.01662,-0.2928558377,0.01662,7.308605883,
0.01664,-1.023716426,0.01664,6.577745295,
0.01666,-2.850867897,0.01666,7.674036178,
0.01668,-3.947158779,0.01668,7.674036178,
0.0167,-3.581728485,0.0167,7.674036178,
0.01672,-4.312589074,0.01672,7.308605883,
0.01674,-8.33232231,0.01674,8.404896766,
0.01676,-6.870601133,0.01676,7.674036178,
0.01678,-6.505170839,0.01678,6.943175589,
0.0168,-7.236031427,0.0168,7.674036178,
0.01682,-7.601461721,0.01682,6.943175589,
0.01684,-8.697752604,0.01684,6.212315001,
0.01686,-8.33232231,0.01686,7.674036178,
0.01688,-6.870601133,0.01688,7.308605883,
0.0169,-7.601461721,0.0169,7.308605883,
0.01692,-6.505170839,0.01692,7.308605883,
0.01694,-5.77431025,0.01694,7.308605883,
0.01696,-6.505170839,0.01696,6.943175589,
0.01698,-6.870601133,0.01698,7.674036178,
0.017,-2.850867897,0.017,7.308605883,
0.01702,-3.216298191,0.01702,6.943175589,
0.01704,-1.754577014,0.01704,6.943175589,
0.01706,0.07257445642,0.01706,7.308605883,
0.01708,1.168865339,0.01708,6.943175589,
0.0171,1.534295633,0.0171,7.308605883,
0.01712,2.99601681,0.01712,7.674036178,
0.01714,2.99601681,0.01714,7.308605883,
0.01716,3.726877398,0.01716,7.674036178,
0.01718,4.092307692,0.01718,7.674036178,
0.0172,5.554028869,0.0172,6.577745295,
0.01722,7.015750046,0.01722,7.308605883,
0.01724,6.650319752,0.01724,8.039466472,
0.01726,8.842901517,0.01726,7.308605883,
0.01728,8.477471222,0.01728,7.308605883,
0.0173,7.746610634,0.0173,7.674036178,
0.01732,7.746610634,0.01732,6.943175589,
0.01734,7.746610634,0.01734,7.674036178,
0.01736,7.38118034,0.01736,6.943175589,
0.01738,7.746610634,0.01738,7.308605883,
0.0174,8.112040928,0.0174,8.039466472,
0.01742,6.650319752,0.01742,7.308605883,
0.01744,4.457737986,0.01744,6.943175589,
0.01746,4.457737986,0.01746,7.308605883,
0.01748,3.726877398,0.01748,7.308605883,
0.0175,0.07257445642,0.0175,6.943175589,
0.01752,1.534295633,0.01752,7.308605883,
0.01754,0.8034350448,0.01754,8.039466472,
0.01756,0.8034350448,0.01756,6.943175589,
0.01758,-2.120007309,0.01758,7.674036178,
0.0176,-2.485437603,0.0176,7.308605883,
0.01762,-4.678019368,0.01762,6.943175589,
0.01764,-5.043449662,0.01764,8.039466472,
0.01766,-6.505170839,0.01766,7.308605883,
0.01768,-6.505170839,0.01768,7.308605883,
0.0177,-6.505170839,0.0177,7.308605883,
0.01772,-6.139740544,0.01772,7.308605883,
0.01774,-8.33232231,0.01774,6.943175589,
0.01776,-8.33232231,0.01776,7.308605883,
0.01778,-7.966892015,0.01778,6.943175589,
0.0178,-9.063182898,0.0178,7.308605883,
0.01782,-6.870601133,0.01782,7.674036178,
0.01784,-6.505170839,0.01784,7.308605883,
0.01786,-6.870601133,0.01786,7.674036178,
0.01788,-6.870601133,0.01788,7.308605883,
0.0179,-5.043449662,0.0179,7.308605883,
0.01792,-5.408879956,0.01792,7.308605883,
0.01794,-3.581728485,0.01794,7.308605883,
0.01796,-1.754577014,0.01796,7.308605883,
0.01798,-1.38914672,0.01798,7.308605883,
0.018,-0.2928558377,0.018,7.674036178,
0.01802,-0.6582861319,0.01802,7.674036178,
0.01804,2.265156221,0.01804,6.943175589,
0.01806,1.899725927,0.01806,7.674036178,
0.01808,4.092307692,0.01808,7.308605883,
0.0181,4.823168281,0.0181,6.943175589,
0.01812,7.015750046,0.01812,7.308605883,
0.01814,6.284889457,0.01814,7.674036178,
0.01816,6.284889457,0.01816,6.943175589,
0.01818,6.650319752,0.01818,7.674036178,
0.0182,7.015750046,0.0182,7.308605883,
0.01822,8.112040928,0.01822,7.308605883,
0.01824,8.112040928,0.01824,8.039466472,
0.01826,7.38118034,0.01826,7.674036178,
0.01828,6.650319752,0.01828,6.943175589,
0.0183,9.208331811,0.0183,7.674036178,
0.01832,9.208331811,0.01832,7.674036178,
0.01834,6.284889457,0.01834,6.943175589,
0.01836,6.650319752,0.01836,8.039466472,
0.01838,6.650319752,0.01838,7.674036178,
0.0184,4.457737986,0.0184,6.943175589,
0.01842,3.361447104,0.01842,7.308605883,
0.01844,2.630586516,0.01844,7.308605883,
0.01846,1.534295633,0.01846,7.308605883,
0.01848,0.4380047506,0.01848,7.308605883,
0.0185,-3.216298191,0.0185,7.674036178,
0.01852,-2.120007309,0.01852,6.943175589,
0.01854,-2.850867897,0.01854,7.308605883,
0.01856,-3.581728485,0.01856,7.308605883,
0.01858,-5.77431025,0.01858,6.943175589,
0.0186,-5.408879956,0.0186,7.308605883,
0.01862,-8.33232231,0.01862,8.404896766,
0.01864,-6.870601133,0.01864,6.943175589,
0.01866,-7.236031427,0.01866,7.674036178,
0.01868,-7.966892015,0.01868,7.674036178,
0.0187,-8.33232231,0.0187,8.039466472,
0.01872,-8.697752604,0.01872,7.308605883,
0.01874,-9.794043486,0.01874,7.308605883,
0.01876,-7.601461721,0.01876,8.039466472,
0.01878,-8.697752604,0.01878,7.674036178,
0.0188,-6.139740544,0.0188,7.308605883,
0.01882,-5.043449662,0.01882,7.674036178,
0.01884,-6.139740544,0.01884,7.674036178,
0.01886,-3.947158779,0.01886,6.943175589,
0.01888,-3.581728485,0.01888,8.039466472,
0.0189,-1.38914672,0.0189,7.674036178,
0.01892,-1.38914672,0.01892,7.308605883,
0.01894,-0.2928558377,0.01894,7.674036178,
0.01896,1.168865339,0.01896,8.404896766,
0.01898,1.168865339,0.01898,7.308605883,
0.019,3.361447104,0.019,7.674036178,
0.01902,4.092307692,0.01902,7.674036178,
0.01904,4.823168281,0.01904,7.308605883,
0.01906,5.554028869,0.01906,6.212315001,
0.01908,6.284889457,0.01908,7.674036178,
0.0191,8.112040928,0.0191,7.308605883,
0.01912,6.650319752,0.01912,8.039466472,
0.01914,9.573762105,0.01914,7.308605883,
0.01916,6.650319752,0.01916,9.135757354,
0.01918,5.554028869,0.01918,7.674036178,
0.0192,8.112040928,0.0192,6.943175589,
0.01922,8.112040928,0.01922,6.943175589,
0.01924,7.746610634,0.01924,7.308605883,
0.01926,8.112040928,0.01926,6.577745295,
0.01928,7.746610634,0.01928,7.308605883,
0.0193,4.823168281,0.0193,7.674036178,
0.01932,2.630586516,0.01932,7.308605883,
0.01934,3.726877398,0.01934,7.674036178,
0.01936,3.726877398,0.01936,6.943175589,
0.01938,3.726877398,0.01938,7.308605883,
0.0194,0.8034350448,0.0194,7.308605883,
0.01942,0.4380047506,0.01942,7.308605883,
0.01944,-0.6582861319,0.01944,7.308605883,
0.01946,-4.678019368,0.01946,8.77032706,
0.01948,-4.312589074,0.01948,7.308605883,
0.0195,-4.678019368,0.0195,7.308605883,
0.01952,-7.236031427,0.01952,7.674036178,
0.01954,-5.77431025,0.01954,7.308605883,
0.01956,-7.966892015,0.01956,6.577745295,
0.01958,-7.601461721,0.01958,7.308605883,
0.0196,-5.77431025,0.0196,8.039466472,
0.01962,-7.601461721,0.01962,6.943175589,
0.01964,-7.236031427,0.01964,6.943175589,
0.01966,-7.236031427,0.01966,6.943175589,
0.01968,-6.870601133,0.01968,6.943175589,
0.0197,-6.870601133,0.0197,7.674036178,
0.01972,-6.505170839,0.01972,7.308605883,
0.01974,-6.505170839,0.01974,6.943175589,
0.01976,-5.043449662,0.01976,8.404896766,
0.01978,-5.77431025,0.01978,7.308605883,
0.0198,-3.581728485,0.0198,7.308605883,
0.01982,-2.485437603,0.01982,7.674036178,
0.01984,-0.2928558377,0.01984,7.674036178,
0.01986,-0.2928558377,0.01986,5.846884707,
0.01988,0.8034350448,0.01988,7.308605883,
0.0199,0.07257445642,0.0199,7.308605883,
0.01992,1.168865339,0.01992,6.943175589,
0.01994,3.726877398,0.01994,6.577745295,
0.01996,3.361447104,0.01996,8.039466472,
0.01998,7.015750046,0.01998,7.308605883,
0.02,6.284889457,0.02,7.308605883,
0.02002,7.015750046,0.02002,7.674036178,
0.02004,6.650319752,0.02004,6.943175589,
0.02006,7.746610634,0.02006,8.039466472,
0.02008,7.38118034,0.02008,7.674036178,
0.0201,7.746610634,0.0201,7.308605883,
0.02012,7.015750046,0.02012,7.308605883,
0.02014,7.746610634,0.02014,7.308605883,
0.02016,9.208331811,0.02016,6.577745295,
0.02018,7.746610634,0.02018,7.308605883,
0.0202,8.842901517,0.0202,6.577745295,
0.02022,8.842901517,0.02022,6.943175589,
0.02024,5.554028869,0.02024,7.308605883,
0.02026,5.919459163,0.02026,7.308605883,
0.02028,3.726877398,0.02028,7.308605883,
0.0203,2.99601681,0.0203,7.308605883,
0.02032,1.168865339,0.02032,7.308605883,
0.02034,0.8034350448,0.02034,6.943175589,
0.02036,-2.485437603,0.02036,7.674036178,
0.02038,-2.485437603,0.02038,7.674036178,
0.0204,-4.678019368,0.0204,6.943175589,
0.02042,-3.581728485,0.02042,7.308605883,
0.02044,-5.408879956,0.02044,7.308605883,
0.02046,-6.505170839,0.02046,6.943175589,
0.02048,-5.77431025,0.02048,7.308605883,
0.0205,-6.870601133,0.0205,7.308605883,
0.02052,-8.33232231,0.02052,6.943175589,
0.02054,-6.505170839,0.02054,8.039466472,
0.02056,-7.966892015,0.02056,7.674036178,
0.02058,-7.236031427,0.02058,6.943175589,
0.0206,-7.236031427,0.0206,7.308605883,
0.02062,-6.505170839,0.02062,7.308605883,
0.02064,-5.408879956,0.02064,6.943175589,
0.02066,-6.505170839,0.02066,7.308605883,
0.02068,-6.139740544,0.02068,7.674036178,
0.0207,-5.408879956,0.0207,6.577745295,
0.02072,-3.947158779,0.02072,7.674036178,
0.02074,-2.850867897,0.02074,7.674036178,
0.02076,-2.485437603,0.02076,6.943175589,
0.02078,-1.023716426,0.02078,7.308605883,
0.0208,-0.2928558377,0.0208,7.674036178,
0.02082,-0.2928558377,0.02082,6.943175589,
0.02084,2.630586516,0.02084,7.308605883,
0.02086,2.630586516,0.02086,7.674036178,
0.02088,4.457737986,0.02088,7.308605883,
0.0209,5.919459163,0.0209,6.943175589,
0.02092,5.554028869,0.02092,7.308605883,
0.02094,5.554028869,0.02094,6.943175589,
0.02096,7.746610634,0.02096,7.308605883,
0.02098,6.650319752,0.02098,7.308605883,
0.021,6.650319752,0.021,6.943175589,
0.02102,8.477471222,0.02102,7.308605883,
0.02104,6.284889457,0.02104,6.943175589,
0.02106,7.746610634,0.02106,6.943175589,
0.02108,7.38118034,0.02108,7.674036178,
0.0211,7.38118034,0.0211,7.674036178,
0.02112,7.015750046,0.02112,6.943175589,
0.02114,9.939192399,0.02114,7.308605883,
0.02116,7.015750046,0.02116,7.308605883,
0.02118,4.823168281,0.02118,7.308605883,
0.0212,5.554028869,0.0212,8.404896766,
0.02122,2.630586516,0.02122,7.308605883,
0.02124,2.265156221,0.02124,6.577745295,
0.02126,0.8034350448,0.02126,7.674036178,
0.02128,0.07257445642,0.02128,8.039466472,
0.0213,-1.754577014,0.0213,6.943175589,
0.02132,-2.120007309,0.02132,7.308605883,
0.02134,-3.581728485,0.02134,6.943175589,
0.02136,-3.581728485,0.02136,7.308605883,
0.02138,-4.678019368,0.02138,7.674036178,
0.0214,-6.139740544,0.0214,7.308605883,
0.02142,-6.139740544,0.02142,6.943175589,
0.02144,-6.505170839,0.02144,7.308605883,
0.02146,-10.15947378,0.02146,7.308605883,
0.02148,-9.063182898,0.02148,7.308605883,
0.0215,-8.33232231,0.0215,7.308605883,
0.02152,-8.33232231,0.02152,7.674036178,
0.02154,-8.33232231,0.02154,7.674036178,
0.02156,-7.601461721,0.02156,7.674036178,
0.02158,-7.236031427,0.02158,8.039466472,
0.0216,-6.870601133,0.0216,7.674036178,
0.02162,-6.139740544,0.02162,7.308605883,
0.02164,-5.043449662,0.02164,7.674036178,
0.02166,-4.312589074,0.02166,8.039466472,
0.02168,-1.38914672,0.02168,7.308605883,
0.0217,-1.754577014,0.0217,7.308605883,
0.02172,-1.38914672,0.02172,8.404896766,
0.02174,0.4380047506,0.02174,7.308605883,
0.02176,1.168865339,0.02176,7.308605883,
0.02178,1.899725927,0.02178,8.039466472,
0.0218,2.630586516,0.0218,7.674036178,
0.02182,4.457737986,0.02182,7.308605883,
0.02184,5.919459163,0.02184,8.404896766,
0.02186,5.554028869,0.02186,7.308605883,
0.02188,6.284889457,0.02188,6.577745295,
0.0219,7.38118034,0.0219,8.039466472,
0.02192,7.746610634,0.02192,7.308605883,
0.02194,7.38118034,0.02194,7.308605883,
0.02196,8.477471222,0.02196,7.674036178,
0.02198,7.746610634,0.02198,8.77032706,
0.022,7.015750046,0.022,7.674036178,
0.02202,7.746610634,0.02202,8.039466472,
0.02204,8.112040928,0.02204,7.674036178,
0.02206,8.477471222,0.02206,7.308605883,
0.02208,7.015750046,0.02208,8.77032706,
0.0221,4.823168281,0.0221,7.308605883,
0.02212,3.726877398,0.02212,7.308605883,
0.02214,4.092307692,0.02214,8.039466472,
0.02216,1.534295633,0.02216,7.308605883,
0.02218,1.534295633,0.02218,7.308605883,
0.0222,0.07257445642,0.0222,8.039466472,
0.02222,-1.023716426,0.02222,7.674036178,
0.02224,-2.850867897,0.02224,7.308605883,
0.02226,-3.581728485,0.02226,8.039466472,
0.02228,-3.947158779,0.02228,7.308605883,
0.0223,-5.043449662,0.0223,7.308605883,
0.02232,-5.77431025,0.02232,7.674036178,
0.02234,-5.77431025,0.02234,7.308605883,
0.02236,-6.505170839,0.02236,7.308605883,
0.02238,-6.870601133,0.02238,7.308605883,
0.0224,-7.601461721,0.0224,7.674036178,
0.02242,-8.697752604,0.02242,7.308605883,
0.02244,-9.428613192,0.02244,7.674036178,
0.02246,-7.601461721,0.02246,7.674036178,
0.02248,-6.870601133,0.02248,8.404896766,
0.0225,-8.697752604,0.0225,8.039466472,
0.02252,-7.601461721,0.02252,8.404896766,
0.02254,-6.870601133,0.02254,7.308605883,
0.02256,-5.043449662,0.02256,7.674036178,
0.02258,-5.77431025,0.02258,6.212315001,
0.0226,-2.850867897,0.0226,7.308605883,
0.02262,-1.754577014,0.02262,8.039466472,
0.02264,-1.754577014,0.02264,7.308605883,
0.02266,-0.2928558377,0.02266,6.943175589,
0.02268,0.8034350448,0.02268,8.404896766,
0.0227,0.8034350448,0.0227,7.308605883,
0.02272,1.899725927,0.02272,6.943175589,
0.02274,4.092307692,0.02274,8.039466472,
0.02276,8.477471222,0.02276,7.674036178,
0.02278,4.092307692,0.02278,8.404896766,
0.0228,6.284889457,0.0228,7.674036178,
0.02282,6.650319752,0.02282,7.308605883,
0.02284,7.015750046,0.02284,7.308605883,
0.02286,8.112040928,0.02286,7.674036178,
0.02288,6.284889457,0.02288,6.943175589,
0.0229,8.112040928,0.0229,6.943175589,
0.02292,8.112040928,0.02292,8.404896766,
0.02294,7.746610634,0.02294,7.308605883,
0.02296,7.38118034,0.02296,7.308605883,
0.02298,7.746610634,0.02298,6.943175589,
0.023,5.919459163,0.023,7.674036178,
0.02302,6.284889457,0.02302,7.308605883,
0.02304,4.092307692,0.02304,8.404896766,
0.02306,4.092307692,0.02306,7.308605883,
0.02308,2.99601681,0.02308,7.674036178,
0.0231,3.361447104,0.0231,8.039466472,
0.02312,0.8034350448,0.02312,7.308605883,
0.02314,0.8034350448,0.02314,7.308605883,
0.02316,-1.023716426,0.02316,7.674036178,
0.02318,-2.120007309,0.02318,7.674036178,
0.0232,-1.023716426,0.0232,7.308605883,
0.02322,-3.947158779,0.02322,8.039466472,
0.02324,-6.139740544,0.02324,7.674036178,
0.02326,-5.77431025,0.02326,6.943175589,
0.02328,-7.236031427,0.02328,7.674036178,
0.0233,-5.408879956,0.0233,7.308605883,
0.02332,-7.966892015,0.02332,7.308605883,
0.02334,-7.236031427,0.02334,7.674036178,
0.02336,-7.601461721,0.02336,6.943175589,
0.02338,-8.33232231,0.02338,6.943175589,
0.0234,-10.15947378,0.0234,7.674036178,
0.02342,-9.063182898,0.02342,7.308605883,
0.02344,-6.870601133,0.02344,7.674036178,
0.02346,-7.966892015,0.02346,8.039466472,
0.02348,-5.77431025,0.02348,7.674036178,
0.0235,-3.947158779,0.0235,7.674036178,
0.02352,-5.408879956,0.02352,8.039466472,
0.02354,-3.581728485,0.02354,7.308605883,
0.02356,-2.120007309,0.02356,7.674036178,
0.02358,-1.754577014,0.02358,7.674036178,
0.0236,1.168865339,0.0236,7.674036178,
0.02362,-1.023716426,0.02362,7.674036178,
0.02364,1.899725927,0.02364,7.674036178,
0.02366,2.630586516,0.02366,7.308605883,
0.02368,3.361447104,0.02368,7.308605883,
0.0237,4.823168281,0.0237,8.039466472,
0.02372,7.015750046,0.02372,7.308605883,
0.02374,6.650319752,0.02374,8.039466472,
0.02376,7.38118034,0.02376,8.77032706,
0.02378,8.112040928,0.02378,6.943175589,
0.0238,7.38118034,0.0238,7.308605883,
0.02382,5.554028869,0.02382,7.674036178,
0.02384,7.746610634,0.02384,7.674036178,
0.02386,6.284889457,0.02386,7.308605883,
0.02388,6.650319752,0.02388,7.674036178,
0.0239,9.208331811,0.0239,6.943175589,
0.02392,7.38118034,0.02392,7.308605883,
0.02394,7.015750046,0.02394,8.039466472,
0.02396,6.284889457,0.02396,7.308605883,
0.02398,5.554028869,0.02398,7.674036178,
0.024,6.284889457,0.024,7.308605883,
0.02402,3.361447104,0.02402,7.308605883,
0.02404,1.899725927,0.02404,7.674036178,
0.02406,0.8034350448,0.02406,7.674036178,
0.02408,-1.023716426,0.02408,7.308605883,
0.0241,-2.485437603,0.0241,7.674036178,
0.02412,-3.581728485,0.02412,7.308605883,
0.02414,-5.408879956,0.02414,6.943175589,
0.02416,-5.043449662,0.02416,7.674036178,
0.02418,-5.043449662,0.02418,7.308605883,
0.0242,-5.77431025,0.0242,7.308605883,
0.02422,-5.77431025,0.02422,7.308605883,
0.02424,-7.966892015,0.02424,7.674036178,
0.02426,-6.870601133,0.02426,7.674036178,
0.02428,-8.33232231,0.02428,8.039466472,
0.0243,-6.505170839,0.0243,7.674036178,
0.02432,-8.33232231,0.02432,6.943175589,
0.02434,-6.870601133,0.02434,7.308605883,
0.02436,-7.236031427,0.02436,6.943175589,
0.02438,-7.966892015,0.02438,8.039466472,
0.0244,-6.139740544,0.0244,7.674036178,
0.02442,-5.408879956,0.02442,8.039466472,
0.02444,-6.139740544,0.02444,7.674036178,
0.02446,-3.216298191,0.02446,7.674036178,
0.02448,-1.754577014,0.02448,7.674036178,
0.0245,-2.850867897,0.0245,7.308605883,
0.02452,-0.6582861319,0.02452,7.308605883,
0.02454,0.4380047506,0.02454,7.308605883,
0.02456,0.8034350448,0.02456,8.039466472,
0.02458,2.630586516,0.02458,7.308605883,
0.0246,2.265156221,0.0246,8.039466472,
0.02462,5.554028869,0.02462,7.674036178,
0.02464,5.554028869,0.02464,7.308605883,
0.02466,7.38118034,0.02466,6.943175589,
0.02468,6.650319752,0.02468,6.943175589,
0.0247,9.573762105,0.0247,7.674036178,
0.02472,6.650319752,0.02472,6.943175589,
0.02474,7.746610634,0.02474,7.308605883,
0.02476,7.746610634,0.02476,7.308605883,
0.02478,7.746610634,0.02478,7.308605883,
0.0248,8.112040928,0.0248,6.943175589,
0.02482,7.38118034,0.02482,7.308605883,
0.02484,7.746610634,0.02484,7.308605883,
0.02486,7.38118034,0.02486,6.943175589,
0.02488,7.746610634,0.02488,7.674036178,
0.0249,8.477471222,0.0249,7.308605883,
0.02492,8.112040928,0.02492,6.943175589,
0.02494,3.361447104,0.02494,7.674036178,
0.02496,2.265156221,0.02496,7.674036178,
0.02498,0.8034350448,0.02498,6.577745295,
0.025,1.168865339,0.025,7.674036178,
0.02502,-1.023716426,0.02502,7.308605883,
0.02504,-3.947158779,0.02504,7.308605883,
0.02506,-1.754577014,0.02506,7.674036178,
0.02508,-3.216298191,0.02508,7.674036178,
0.0251,-5.77431025,0.0251,6.943175589,
0.02512,-5.043449662,0.02512,8.039466472,
0.02514,-5.408879956,0.02514,7.308605883,
0.02516,-6.870601133,0.02516,6.943175589,
0.02518,-7.601461721,0.02518,7.308605883,
0.0252,-5.408879956,0.0252,7.308605883,
0.02522,-8.33232231,0.02522,7.308605883,
0.02524,-6.870601133,0.02524,7.308605883,
0.02526,-7.966892015,0.02526,7.308605883,
0.02528,-7.966892015,0.02528,6.943175589,
0.0253,-6.505170839,0.0253,7.674036178,
0.02532,-7.601461721,0.02532,7.308605883,
0.02534,-6.505170839,0.02534,8.039466472,
0.02536,-5.408879956,0.02536,6.943175589,
0.02538,-4.678019368,0.02538,7.674036178,
0.0254,-3.216298191,0.0254,6.577745295,
0.02542,-2.485437603,0.02542,7.308605883,
0.02544,-1.023716426,0.02544,7.674036178,
0.02546,-1.754577014,0.02546,6.943175589,
0.02548,1.534295633,0.02548,7.308605883,
0.0255,1.168865339,0.0255,8.039466472,
0.02552,1.899725927,0.02552,7.308605883,
0.02554,4.092307692,0.02554,7.308605883,
0.02556,4.823168281,0.02556,7.308605883,
0.02558,5.188598575,0.02558,6.943175589,
0.0256,5.188598575,0.0256,7.674036178,
0.02562,10.30462269,0.02562,7.308605883,
0.02564,6.284889457,0.02564,6.943175589,
0.02566,8.112040928,0.02566,7.308605883,
0.02568,6.650319752,0.02568,7.308605883,
0.0257,6.284889457,0.0257,5.846884707,
0.02572,7.38118034,0.02572,7.308605883,
0.02574,7.015750046,0.02574,7.308605883,
0.02576,7.38118034,0.02576,7.674036178,
0.02578,9.208331811,0.02578,7.674036178,
0.0258,8.112040928,0.0258,8.77032706,
0.02582,6.284889457,0.02582,7.674036178,
0.02584,5.919459163,0.02584,8.039466472,
0.02586,2.265156221,0.02586,7.308605883,
0.02588,4.823168281,0.02588,6.943175589,
0.0259,4.092307692,0.0259,6.212315001,
0.02592,2.99601681,0.02592,7.308605883,
0.02594,0.4380047506,0.02594,6.943175589,
0.02596,-0.6582861319,0.02596,7.674036178,
0.02598,-1.38914672,0.02598,7.674036178,
0.026,-3.581728485,0.026,6.943175589,
0.02602,-5.408879956,0.02602,7.308605883,
0.02604,-5.043449662,0.02604,7.674036178,
0.02606,-5.77431025,0.02606,7.308605883,
0.02608,-6.139740544,0.02608,8.039466472,
0.0261,-5.77431025,0.0261,5.846884707,
0.02612,-6.870601133,0.02612,7.674036178,
0.02614,-7.236031427,0.02614,7.674036178,
0.02616,-7.601461721,0.02616,7.674036178,
0.02618,-8.697752604,0.02618,6.943175589,
0.0262,-7.601461721,0.0262,8.404896766,
0.02622,-6.505170839,0.02622,7.308605883,
0.02624,-6.870601133,0.02624,6.943175589,
0.02626,-6.139740544,0.02626,7.674036178,
0.02628,-6.139740544,0.02628,7.308605883,
0.0263,-6.139740544,0.0263,6.943175589,
0.02632,-5.043449662,0.02632,8.77032706,
0.02634,-2.850867897,0.02634,7.308605883,
0.02636,-2.850867897,0.02636,6.943175589,
0.02638,-1.754577014,0.02638,7.674036178,
0.0264,-0.6582861319,0.0264,7.674036178,
0.02642,3.361447104,0.02642,6.943175589,
0.02644,1.899725927,0.02644,7.308605883,
0.02646,3.361447104,0.02646,6.577745295,
0.02648,4.823168281,0.02648,7.308605883,
0.0265,5.919459163,0.0265,8.039466472,
0.02652,6.650319752,0.02652,7.308605883,
0.02654,5.919459163,0.02654,7.308605883,
0.02656,6.650319752,0.02656,7.308605883,
0.02658,7.38118034,0.02658,7.308605883,
0.0266,7.38118034,0.0266,6.212315001,
0.02662,7.746610634,0.02662,7.674036178,
0.02664,7.746610634,0.02664,7.308605883,
0.02666,7.015750046,0.02666,6.943175589,
0.02668,7.746610634,0.02668,7.674036178,
0.0267,7.38118034,0.0267,7.674036178,
0.02672,6.650319752,0.02672,7.308605883,
0.02674,8.112040928,0.02674,7.308605883,
0.02676,6.650319752,0.02676,7.674036178,
0.02678,3.726877398,0.02678,6.943175589,
0.0268,4.092307692,0.0268,8.039466472,
0.02682,2.630586516,0.02682,7.674036178,
0.02684,1.534295633,0.02684,7.308605883,
0.02686,0.4380047506,0.02686,7.674036178,
0.02688,1.168865339,0.02688,7.308605883,
0.0269,-0.6582861319,0.0269,6.212315001,
0.02692,-1.38914672,0.02692,7.308605883,
0.02694,-3.216298191,0.02694,7.308605883,
0.02696,-5.043449662,0.02696,6.943175589,
0.02698,-5.043449662,0.02698,7.308605883,
0.027,-5.408879956,0.027,7.674036178,
0.02702,-6.139740544,0.02702,6.577745295,
0.02704,-5.408879956,0.02704,7.308605883,
0.02706,-9.428613192,0.02706,7.674036178,
0.02708,-7.966892015,0.02708,6.943175589,
0.0271,-8.33232231,0.0271,7.308605883,
0.02712,-7.601461721,0.02712,7.308605883,
0.02714,-8.33232231,0.02714,6.577745295,
0.02716,-6.139740544,0.02716,7.674036178,
0.02718,-8.33232231,0.02718,7.308605883,
0.0272,-6.505170839,0.0272,6.943175589,
0.02722,-4.312589074,0.02722,7.308605883,
0.02724,-3.947158779,0.02724,7.674036178,
0.02726,-3.947158779,0.02726,7.308605883,
0.02728,-1.754577014,0.02728,7.674036178,
0.0273,-2.485437603,0.0273,6.943175589,
0.02732,-3.216298191,0.02732,7.308605883,
0.02734,0.8034350448,0.02734,7.308605883,
0.02736,1.899725927,0.02736,7.308605883,
0.02738,1.899725927,0.02738,6.943175589,
0.0274,2.99601681,0.0274,7.308605883,
0.02742,3.726877398,0.02742,7.308605883,
0.02744,5.188598575,0.02744,7.308605883,
0.02746,5.919459163,0.02746,7.674036178,
0.02748,6.284889457,0.02748,7.674036178,
0.0275,7.38118034,0.0275,7.674036178,
0.02752,7.746610634,0.02752,7.674036178,
0.02754,7.015750046,0.02754,6.943175589,
0.02756,7.38118034,0.02756,7.308605883,
0.02758,7.015750046,0.02758,8.039466472,
0.0276,7.38118034,0.0276,7.674036178,
0.02762,5.554028869,0.02762,5.846884707,
0.02764,7.38118034,0.02764,7.674036178,
0.02766,6.284889457,0.02766,7.674036178,
0.02768,7.015750046,0.02768,7.308605883,
0.0277,5.919459163,0.0277,7.308605883,
0.02772,2.99601681,0.02772,7.674036178,
0.02774,3.361447104,0.02774,7.308605883,
0.02776,1.899725927,0.02776,7.674036178,
0.02778,1.168865339,0.02778,7.674036178,
0.0278,0.07257445642,0.0278,7.308605883,
0.02782,0.07257445642,0.02782,8.039466472,
0.02784,-2.850867897,0.02784,6.943175589,
0.02786,-2.850867897,0.02786,7.308605883,
0.02788,-1.754577014,0.02788,7.674036178,
0.0279,-5.043449662,0.0279,7.674036178,
0.02792,-5.77431025,0.02792,7.308605883,
0.02794,-5.408879956,0.02794,7.308605883,
0.02796,-7.236031427,0.02796,7.308605883,
0.02798,-7.966892015,0.02798,7.308605883,
0.028,-7.966892015,0.028,8.039466472,
0.02802,-8.33232231,0.02802,7.308605883,
0.02804,-9.428613192,0.02804,7.308605883,
0.02806,-7.601461721,0.02806,7.674036178,
0.02808,-8.33232231,0.02808,7.308605883,
0.0281,-7.966892015,0.0281,7.308605883,
0.02812,-7.236031427,0.02812,8.039466472,
0.02814,-6.505170839,0.02814,7.674036178,
0.02816,-6.505170839,0.02816,7.674036178,
0.02818,-5.043449662,0.02818,7.674036178,
0.0282,-4.312589074,0.0282,7.308605883,
0.02822,-3.581728485,0.02822,7.308605883,
0.02824,-1.023716426,0.02824,8.039466472,
0.02826,-1.38914672,0.02826,7.308605883,
0.02828,1.168865339,0.02828,7.674036178,
0.0283,1.168865339,0.0283,7.674036178,
0.02832,1.168865339,0.02832,7.308605883,
0.02834,3.726877398,0.02834,7.308605883,
0.02836,4.823168281,0.02836,7.674036178,
0.02838,5.554028869,0.02838,7.674036178,
0.0284,6.650319752,0.0284,7.674036178,
0.02842,5.554028869,0.02842,8.039466472,
0.02844,4.823168281,0.02844,7.308605883,
0.02846,7.38118034,0.02846,7.674036178,
0.02848,7.38118034,0.02848,7.674036178,
0.0285,7.015750046,0.0285,7.308605883,
0.02852,7.015750046,0.02852,7.308605883,
0.02854,7.746610634,0.02854,8.039466472,
0.02856,7.38118034,0.02856,7.674036178,
0.02858,7.38118034,0.02858,7.308605883,
0.0286,7.015750046,0.0286,8.039466472,
0.02862,6.650319752,0.02862,7.674036178,
0.02864,4.823168281,0.02864,7.674036178,
0.02866,4.092307692,0.02866,8.039466472,
0.02868,3.726877398,0.02868,7.308605883,
0.0287,1.168865339,0.0287,7.308605883,
0.02872,0.8034350448,0.02872,8.039466472,
0.02874,-0.2928558377,0.02874,7.308605883,
0.02876,-1.38914672,0.02876,7.308605883,
0.02878,-2.850867897,0.02878,7.674036178,
0.0288,-3.947158779,0.0288,7.674036178,
0.02882,-5.408879956,0.02882,7.308605883,
0.02884,-5.043449662,0.02884,8.039466472,
0.02886,-7.601461721,0.02886,7.674036178,
0.02888,-6.139740544,0.02888,7.674036178,
0.0289,-6.870601133,0.0289,7.674036178,
0.02892,-6.870601133,0.02892,7.674036178,
0.02894,-9.063182898,0.02894,7.308605883,
0.02896,-7.601461721,0.02896,7.674036178,
0.02898,-6.139740544,0.02898,8.039466472,
0.029,-7.966892015,0.029,7.308605883,
0.02902,-7.966892015,0.02902,8.404896766,
0.02904,-7.601461721,0.02904,7.674036178,
0.02906,-6.505170839,0.02906,7.308605883,
0.02908,-5.77431025,0.02908,7.674036178,
0.0291,-5.408879956,0.0291,7.308605883,
0.02912,-5.043449662,0.02912,6.212315001,
0.02914,-2.485437603,0.02914,7.674036178,
0.02916,-2.120007309,0.02916,7.308605883,
0.02918,-1.754577014,0.02918,7.674036178,
0.0292,-2.120007309,0.0292,7.674036178,
0.02922,1.534295633,0.02922,7.674036178,
0.02924,1.899725927,0.02924,7.674036178,
0.02926,2.265156221,0.02926,7.674036178,
0.02928,5.919459163,0.02928,7.674036178,
0.0293,5.188598575,0.0293,8.039466472,
0.02932,5.554028869,0.02932,8.039466472,
0.02934,6.284889457,0.02934,8.039466472,
0.02936,7.38118034,0.02936,8.039466472,
0.02938,7.38118034,0.02938,7.674036178,
0.0294,6.650319752,0.0294,7.308605883,
0.02942,7.746610634,0.02942,8.404896766,
0.02944,6.650319752,0.02944,7.674036178,
0.02946,7.746610634,0.02946,7.308605883,
0.02948,8.842901517,0.02948,8.039466472,
0.0295,7.746610634,0.0295,7.308605883,
0.02952,8.477471222,0.02952,6.943175589,
0.02954,8.112040928,0.02954,7.308605883,
0.02956,6.650319752,0.02956,7.308605883,
0.02958,6.284889457,0.02958,7.674036178,
0.0296,3.361447104,0.0296,7.674036178,
0.02962,2.265156221,0.02962,7.674036178,
0.02964,1.899725927,0.02964,8.039466472,
0.02966,0.4380047506,0.02966,7.308605883,
0.02968,-0.2928558377,0.02968,7.308605883,
0.0297,-1.38914672,0.0297,6.943175589,
0.02972,-3.216298191,0.02972,8.77032706,
0.02974,-4.312589074,0.02974,7.674036178,
0.02976,-5.77431025,0.02976,7.308605883,
0.02978,-4.678019368,0.02978,7.674036178,
0.0298,-7.236031427,0.0298,7.674036178,
0.02982,-6.870601133,0.02982,7.674036178,
0.02984,-7.601461721,0.02984,7.674036178,
0.02986,-7.601461721,0.02986,7.308605883,
0.02988,-7.966892015,0.02988,8.039466472,
0.0299,-7.601461721,0.0299,7.308605883,
0.02992,-7.966892015,0.02992,6.577745295,
0.02994,-8.697752604,0.02994,7.674036178,
0.02996,-7.966892015,0.02996,7.308605883,
0.02998,-7.236031427,0.02998,7.308605883,
0.03,-6.870601133,0.03,8.039466472,
0.03002,-3.947158779,0.03002,8.039466472,
0.03004,-5.77431025,0.03004,7.308605883,
0.03006,-3.947158779,0.03006,7.674036178,
0.03008,-3.581728485,0.03008,7.674036178,
0.0301,-1.023716426,0.0301,7.674036178,
0.03012,-1.38914672,0.03012,7.674036178,
0.03014,1.899725927,0.03014,6.943175589,
0.03016,0.4380047506,0.03016,7.674036178,
0.03018,2.630586516,0.03018,6.212315001,
0.0302,2.99601681,0.0302,7.674036178,
0.03022,4.823168281,0.03022,6.943175589,
0.03024,3.726877398,0.03024,7.308605883,
0.03026,5.919459163,0.03026,6.943175589,
0.03028,7.38118034,0.03028,7.308605883,
0.0303,7.015750046,0.0303,7.308605883,
0.03032,6.284889457,0.03032,7.308605883,
0.03034,6.284889457,0.03034,7.674036178,
0.03036,7.38118034,0.03036,7.308605883,
0.03038,7.015750046,0.03038,7.308605883,
0.0304,8.477471222,0.0304,7.674036178,
0.03042,7.015750046,0.03042,7.674036178,
0.03044,3.726877398,0.03044,7.308605883,
0.03046,7.746610634,0.03046,8.404896766,
0.03048,5.919459163,0.03048,7.308605883,
0.0305,5.188598575,0.0305,6.943175589,
0.03052,5.554028869,0.03052,7.674036178,
0.03054,3.726877398,0.03054,7.308605883,
0.03056,2.99601681,0.03056,7.308605883,
0.03058,1.168865339,0.03058,8.039466472,
0.0306,1.168865339,0.0306,7.674036178,
0.03062,-1.023716426,0.03062,6.577745295,
0.03064,-3.216298191,0.03064,7.674036178,
0.03066,-3.581728485,0.03066,7.308605883,
0.03068,-3.947158779,0.03068,7.308605883,
0.0307,-5.043449662,0.0307,7.674036178,
0.03072,-5.408879956,0.03072,8.039466472,
0.03074,-5.043449662,0.03074,7.308605883,
0.03076,-6.505170839,0.03076,8.039466472,
0.03078,-8.33232231,0.03078,7.308605883,
0.0308,-7.236031427,0.0308,6.943175589,
0.03082,-7.966892015,0.03082,7.674036178,
0.03084,-7.601461721,0.03084,7.674036178,
0.03086,-7.966892015,0.03086,7.308605883,
0.03088,-5.408879956,0.03088,7.674036178,
0.0309,-6.870601133,0.0309,8.039466472,
0.03092,-6.870601133,0.03092,7.308605883,
0.03094,-7.601461721,0.03094,7.308605883,
0.03096,-5.77431025,0.03096,6.943175589,
0.03098,-5.043449662,0.03098,7.308605883,
0.031,-3.947158779,0.031,7.308605883,
0.03102,-3.581728485,0.03102,7.674036178,
0.03104,-0.2928558377,0.03104,7.308605883,
0.03106,-0.2928558377,0.03106,7.308605883,
0.03108,-0.6582861319,0.03108,7.308605883,
0.0311,0.8034350448,0.0311,7.308605883,
0.03112,2.99601681,0.03112,7.674036178,
0.03114,1.534295633,0.03114,7.308605883,
0.03116,5.554028869,0.03116,6.943175589,
0.03118,6.650319752,0.03118,7.674036178,
0.0312,6.650319752,0.0312,7.674036178,
0.03122,7.746610634,0.03122,6.943175589,
0.03124,6.284889457,0.03124,7.674036178,
0.03126,5.919459163,0.03126,6.943175589,
0.03128,7.38118034,0.03128,6.943175589,
0.0313,7.38118034,0.0313,8.404896766,
0.03132,5.919459163,0.03132,7.308605883,
0.03134,7.38118034,0.03134,7.308605883,
0.03136,8.112040928,0.03136,8.039466472,
0.03138,8.112040928,0.03138,7.308605883,
0.0314,7.015750046,0.0314,7.308605883,
0.03142,7.38118034,0.03142,7.674036178,
0.03144,4.457737986,0.03144,6.943175589,
0.03146,3.726877398,0.03146,8.039466472,
0.03148,3.726877398,0.03148,8.039466472,
0.0315,1.168865339,0.0315,6.577745295,
0.03152,-0.2928558377,0.03152,7.308605883,
0.03154,-1.38914672,0.03154,7.674036178,
0.03156,-1.38914672,0.03156,7.308605883,
0.03158,-1.023716426,0.03158,6.943175589,
0.0316,-3.581728485,0.0316,8.039466472,
0.03162,-4.312589074,0.03162,7.308605883,
0.03164,-4.312589074,0.03164,7.308605883,
0.03166,-5.77431025,0.03166,8.039466472,
0.03168,-7.601461721,0.03168,7.308605883,
0.0317,-9.063182898,0.0317,7.308605883,
0.03172,-9.063182898,0.03172,7.674036178,
0.03174,-8.33232231,0.03174,7.308605883,
0.03176,-6.870601133,0.03176,6.943175589,
0.03178,-6.139740544,0.03178,7.674036178,
0.0318,-7.966892015,0.0318,7.308605883,
0.03182,-7.601461721,0.03182,7.308605883,
0.03184,-6.505170839,0.03184,8.404896766,
0.03186,-7.236031427,0.03186,7.308605883,
0.03188,-6.139740544,0.03188,6.943175589,
0.0319,-4.678019368,0.0319,7.674036178,
0.03192,-4.678019368,0.03192,7.674036178,
0.03194,-3.947158779,0.03194,7.308605883,
0.03196,-3.216298191,0.03196,8.039466472,
0.03198,-2.485437603,0.03198,7.308605883,
0.032,0.4380047506,0.032,7.308605883,
0.03202,0.4380047506,0.03202,8.039466472,
0.03204,0.8034350448,0.03204,7.674036178,
0.03206,3.726877398,0.03206,7.674036178,
0.03208,3.361447104,0.03208,8.039466472,
0.0321,2.99601681,0.0321,8.404896766,
0.03212,6.650319752,0.03212,7.674036178,
0.03214,7.015750046,0.03214,8.039466472,
0.03216,7.38118034,0.03216,7.308605883,
0.03218,6.284889457,0.03218,7.308605883,
0.0322,6.650319752,0.0322,8.039466472,
0.03222,6.650319752,0.03222,7.674036178,
0.03224,8.842901517,0.03224,7.308605883,
0.03226,8.842901517,0.03226,8.039466472,
0.03228,8.112040928,0.03228,7.308605883,
0.0323,7.38118034,0.0323,7.308605883,
0.03232,9.573762105,0.03232,8.039466472,
0.03234,6.650319752,0.03234,7.674036178,
0.03236,5.188598575,0.03236,7.308605883,
0.03238,4.457737986,0.03238,7.674036178,
0.0324,3.361447104,0.0324,7.674036178,
0.03242,4.092307692,0.03242,7.308605883,
0.03244,6.284889457,0.03244,7.308605883,
0.03246,-0.2928558377,0.03246,7.674036178,
0.03248,0.07257445642,0.03248,7.674036178,
0.0325,-1.38914672,0.0325,7.674036178,
0.03252,-2.850867897,0.03252,7.674036178,
0.03254,-3.947158779,0.03254,7.308605883,
0.03256,-5.408879956,0.03256,7.674036178,
0.03258,-5.77431025,0.03258,7.674036178,
0.0326,-5.043449662,0.0326,7.308605883,
0.03262,-6.870601133,0.03262,7.308605883,
0.03264,-7.966892015,0.03264,8.404896766,
0.03266,-5.043449662,0.03266,7.308605883,
0.03268,-7.236031427,0.03268,7.308605883,
0.0327,-8.697752604,0.0327,7.674036178,
0.03272,-7.966892015,0.03272,6.943175589,
0.03274,-8.697752604,0.03274,6.943175589,
0.03276,-6.870601133,0.03276,8.039466472,
0.03278,-6.870601133,0.03278,7.674036178,
0.0328,-6.870601133,0.0328,7.674036178,
0.03282,-6.139740544,0.03282,7.674036178,
0.03284,-4.678019368,0.03284,6.577745295,
0.03286,-3.947158779,0.03286,8.039466472,
0.03288,-2.485437603,0.03288,7.674036178,
0.0329,-2.120007309,0.0329,7.308605883,
0.03292,-1.38914672,0.03292,8.039466472,
0.03294,-1.023716426,0.03294,7.308605883,
0.03296,1.168865339,0.03296,7.308605883,
0.03298,2.265156221,0.03298,7.674036178,
0.033,2.99601681,0.033,7.674036178,
0.03302,3.361447104,0.03302,7.674036178,
0.03304,4.457737986,0.03304,6.943175589,
0.03306,5.554028869,0.03306,7.674036178,
0.03308,7.015750046,0.03308,7.308605883,
0.0331,8.477471222,0.0331,7.674036178,
0.03312,6.650319752,0.03312,7.674036178,
0.03314,7.746610634,0.03314,7.308605883,
0.03316,7.746610634,0.03316,7.674036178,
0.03318,7.38118034,0.03318,7.674036178,
0.0332,7.746610634,0.0332,7.308605883,
0.03322,8.477471222,0.03322,7.674036178,
0.03324,7.746610634,0.03324,8.77032706,
0.03326,7.746610634,0.03326,7.308605883,
0.03328,7.38118034,0.03328,8.039466472,
0.0333,4.823168281,0.0333,7.308605883,
0.03332,4.823168281,0.03332,7.308605883,
0.03334,3.726877398,0.03334,7.308605883,
0.03336,1.899725927,0.03336,7.674036178,
0.03338,1.534295633,0.03338,7.308605883,
0.0334,0.07257445642,0.0334,7.674036178,
0.03342,-1.023716426,0.03342,7.674036178,
0.03344,-2.120007309,0.03344,6.577745295,
0.03346,-3.947158779,0.03346,8.039466472,
0.03348,-3.581728485,0.03348,7.674036178,
0.0335,-4.312589074,0.0335,7.308605883,
0.03352,-4.312589074,0.03352,7.674036178,
0.03354,-5.77431025,0.03354,9.501187648,
0.03356,-7.236031427,0.03356,7.308605883,
0.03358,-7.236031427,0.03358,7.674036178,
0.0336,-7.601461721,0.0336,7.674036178,
0.03362,-7.601461721,0.03362,7.308605883,
0.03364,-6.870601133,0.03364,5.846884707,
0.03366,-7.966892015,0.03366,7.674036178,
0.03368,-7.966892015,0.03368,7.308605883,
0.0337,-6.870601133,0.0337,7.674036178,
0.03372,-6.505170839,0.03372,7.308605883,
0.03374,-6.870601133,0.03374,6.212315001,
0.03376,-4.312589074,0.03376,7.674036178,
0.03378,-5.043449662,0.03378,7.308605883,
0.0338,-4.312589074,0.0338,7.308605883,
0.03382,-3.216298191,0.03382,7.674036178,
0.03384,-1.754577014,0.03384,7.308605883,
0.03386,0.07257445642,0.03386,7.308605883,
0.03388,1.168865339,0.03388,7.674036178,
0.0339,2.630586516,0.0339,7.674036178,
0.03392,2.99601681,0.03392,6.943175589,
0.03394,4.092307692,0.03394,6.943175589,
0.03396,6.284889457,0.03396,7.674036178,
0.03398,6.284889457,0.03398,7.308605883,
0.034,6.284889457,0.034,6.577745295,
0.03402,7.746610634,0.03402,8.77032706,
0.03404,7.38118034,0.03404,8.404896766,
0.03406,6.284889457,0.03406,6.212315001,
0.03408,7.746610634,0.03408,7.308605883,
0.0341,7.015750046,0.0341,6.943175589,
0.03412,7.015750046,0.03412,7.674036178,
0.03414,7.746610634,0.03414,6.212315001,
0.03416,6.650319752,0.03416,7.674036178,
0.03418,7.746610634,0.03418,6.943175589,
0.0342,7.746610634,0.0342,7.674036178,
0.03422,7.015750046,0.03422,7.308605883,
0.03424,5.188598575,0.03424,7.308605883,
0.03426,5.554028869,0.03426,6.943175589,
0.03428,3.726877398,0.03428,7.308605883,
0.0343,0.8034350448,0.0343,7.308605883,
0.03432,0.8034350448,0.03432,7.308605883,
0.03434,0.4380047506,0.03434,8.404896766,
0.03436,-2.485437603,0.03436,6.943175589,
0.03438,-2.120007309,0.03438,7.308605883,
0.0344,-2.850867897,0.0344,7.674036178,
0.03442,-3.947158779,0.03442,6.943175589,
0.03444,-5.043449662,0.03444,8.404896766,
0.03446,-5.043449662,0.03446,7.308605883,
0.03448,-7.236031427,0.03448,7.674036178,
0.0345,-6.505170839,0.0345,7.674036178,
0.03452,-7.236031427,0.03452,7.308605883,
0.03454,-8.697752604,0.03454,5.846884707,
0.03456,-6.870601133,0.03456,7.308605883,
0.03458,-7.601461721,0.03458,7.674036178,
0.0346,-6.139740544,0.0346,7.674036178,
0.03462,-7.966892015,0.03462,7.674036178,
0.03464,-7.236031427,0.03464,8.039466472,
0.03466,-6.870601133,0.03466,7.308605883,
0.03468,-6.139740544,0.03468,7.674036178,
0.0347,-5.77431025,0.0347,7.674036178,
0.03472,-3.581728485,0.03472,7.674036178,
0.03474,-3.947158779,0.03474,8.404896766,
0.03476,-2.850867897,0.03476,7.674036178,
0.03478,-0.2928558377,0.03478,7.674036178,
0.0348,0.4380047506,0.0348,7.674036178,
0.03482,1.168865339,0.03482,7.674036178,
0.03484,3.361447104,0.03484,8.404896766,
0.03486,5.554028869,0.03486,7.674036178,
0.03488,5.188598575,0.03488,7.674036178,
0.0349,4.092307692,0.0349,7.674036178,
0.03492,6.650319752,0.03492,7.308605883,
0.03494,9.573762105,0.03494,8.404896766,
0.03496,5.188598575,0.03496,7.308605883,
0.03498,5.919459163,0.03498,7.308605883,
0.035,6.650319752,0.035,7.308605883,
0.03502,6.650319752,0.03502,7.308605883,
0.03504,7.746610634,0.03504,6.943175589,
0.03506,8.112040928,0.03506,7.308605883,
0.03508,5.919459163,0.03508,7.308605883,
0.0351,7.746610634,0.0351,7.674036178,
0.03512,5.919459163,0.03512,7.308605883,
0.03514,7.015750046,0.03514,6.943175589,
0.03516,7.015750046,0.03516,7.674036178,
0.03518,4.823168281,0.03518,7.674036178,
0.0352,2.99601681,0.0352,7.308605883,
0.03522,2.630586516,0.03522,7.674036178,
0.03524,0.8034350448,0.03524,7.674036178,
0.03526,0.8034350448,0.03526,7.308605883,
0.03528,-0.6582861319,0.03528,7.674036178,
0.0353,-2.120007309,0.0353,8.039466472,
0.03532,-2.850867897,0.03532,6.943175589,
0.03534,-4.678019368,0.03534,7.674036178,
0.03536,-5.77431025,0.03536,8.039466472,
0.03538,-5.77431025,0.03538,6.943175589,
0.0354,-5.77431025,0.0354,7.674036178,
0.03542,-7.236031427,0.03542,7.308605883,
0.03544,-6.870601133,0.03544,6.943175589,
0.03546,-8.33232231,0.03546,7.674036178,
0.03548,-7.966892015,0.03548,8.039466472,
0.0355,-8.33232231,0.0355,7.308605883,
0.03552,-8.33232231,0.03552,7.674036178,
0.03554,-8.697752604,0.03554,7.308605883,
0.03556,-8.33232231,0.03556,6.577745295,
0.03558,-7.601461721,0.03558,7.674036178,
0.0356,-7.601461721,0.0356,7.674036178,
0.03562,-6.505170839,0.03562,7.308605883,
0.03564,-4.312589074,0.03564,8.039466472,
0.03566,-4.312589074,0.03566,6.943175589,
0.03568,-3.216298191,0.03568,7.674036178,
0.0357,-2.120007309,0.0357,8.039466472,
0.03572,-1.023716426,0.03572,7.308605883,
0.03574,0.8034350448,0.03574,6.943175589,
0.03576,0.8034350448,0.03576,8.039466472,
0.03578,2.99601681,0.03578,8.039466472,
0.0358,4.823168281,0.0358,7.308605883,
0.03582,4.457737986,0.03582,7.674036178,
0.03584,6.284889457,0.03584,7.308605883,
0.03586,5.919459163,0.03586,7.674036178,
0.03588,7.015750046,0.03588,7.308605883,
0.0359,8.112040928,0.0359,7.674036178,
0.03592,7.38118034,0.03592,7.674036178,
0.03594,8.842901517,0.03594,7.674036178,
0.03596,8.112040928,0.03596,7.674036178,
0.03598,7.746610634,0.03598,7.674036178,
0.036,7.38118034,0.036,7.308605883,
0.03602,5.919459163,0.03602,7.674036178,
0.03604,7.746610634,0.03604,7.674036178,
0.03606,7.38118034,0.03606,7.308605883,
0.03608,6.284889457,0.03608,7.674036178,
0.0361,6.284889457,0.0361,7.674036178,
0.03612,3.361447104,0.03612,8.039466472,
0.03614,2.630586516,0.03614,7.308605883,
0.03616,2.630586516,0.03616,7.674036178,
0.03618,-0.2928558377,0.03618,8.039466472,
0.0362,-0.2928558377,0.0362,7.674036178,
0.03622,-1.023716426,0.03622,7.674036178,
0.03624,-0.6582861319,0.03624,7.674036178,
0.03626,-2.850867897,0.03626,7.308605883,
0.03628,-3.581728485,0.03628,7.308605883,
0.0363,-5.043449662,0.0363,7.674036178,
0.03632,-6.139740544,0.03632,7.674036178,
0.03634,-5.77431025,0.03634,7.674036178,
0.03636,-6.139740544,0.03636,7.308605883,
0.03638,-7.236031427,0.03638,7.308605883,
0.0364,-7.966892015,0.0364,7.308605883,
0.03642,-7.966892015,0.03642,7.674036178,
0.03644,-6.870601133,0.03644,8.039466472,
0.03646,-7.601461721,0.03646,7.308605883,
0.03648,-7.966892015,0.03648,6.943175589,
0.0365,-7.236031427,0.0365,7.674036178,
0.03652,-6.870601133,0.03652,7.674036178,
0.03654,-5.77431025,0.03654,7.308605883,
0.03656,-5.408879956,0.03656,7.674036178,
0.03658,-4.312589074,0.03658,6.577745295,
0.0366,-3.947158779,0.0366,7.674036178,
0.03662,-3.581728485,0.03662,8.404896766,
0.03664,-0.2928558377,0.03664,8.039466472,
0.03666,-0.2928558377,0.03666,7.674036178,
0.03668,1.534295633,0.03668,7.674036178,
0.0367,2.265156221,0.0367,7.308605883,
0.03672,2.99601681,0.03672,7.308605883,
0.03674,4.823168281,0.03674,7.674036178,
0.03676,5.188598575,0.03676,7.674036178,
0.03678,7.015750046,0.03678,7.674036178,
0.0368,4.823168281,0.0368,7.308605883,
0.03682,7.015750046,0.03682,6.943175589,
0.03684,7.746610634,0.03684,7.308605883,
0.03686,8.112040928,0.03686,7.308605883,
0.03688,8.477471222,0.03688,7.308605883,
0.0369,7.746610634,0.0369,7.674036178,
0.03692,8.112040928,0.03692,7.308605883,
0.03694,7.015750046,0.03694,6.943175589,
0.03696,7.015750046,0.03696,7.674036178,
0.03698,8.112040928,0.03698,7.674036178,
0.037,6.650319752,0.037,6.943175589,
0.03702,5.919459163,0.03702,6.943175589,
0.03704,4.092307692,0.03704,7.674036178,
0.03706,4.457737986,0.03706,6.212315001,
0.03708,3.361447104,0.03708,7.674036178,
0.0371,2.265156221,0.0371,7.674036178,
0.03712,0.07257445642,0.03712,6.943175589,
0.03714,-0.2928558377,0.03714,7.674036178,
0.03716,-2.850867897,0.03716,7.308605883,
0.03718,-2.850867897,0.03718,7.308605883,
0.0372,-3.581728485,0.0372,7.308605883,
0.03722,-3.947158779,0.03722,7.308605883,
0.03724,-5.77431025,0.03724,7.308605883,
0.03726,-5.043449662,0.03726,8.039466472,
0.03728,-5.043449662,0.03728,8.039466472,
0.0373,-7.601461721,0.0373,6.577745295,
0.03732,-7.966892015,0.03732,7.308605883,
0.03734,-7.601461721,0.03734,6.943175589,
0.03736,-7.966892015,0.03736,5.846884707,
0.03738,-7.601461721,0.03738,7.674036178,
0.0374,-8.33232231,0.0374,7.674036178,
0.03742,-7.236031427,0.03742,7.674036178,
0.03744,-6.139740544,0.03744,7.308605883,
0.03746,-7.966892015,0.03746,8.039466472,
0.03748,-5.408879956,0.03748,6.943175589,
0.0375,-5.77431025,0.0375,7.308605883,
0.03752,-4.678019368,0.03752,7.308605883,
0.03754,-3.947158779,0.03754,7.308605883,
0.03756,-1.38914672,0.03756,8.039466472,
0.03758,-1.023716426,0.03758,7.308605883,
0.0376,-0.6582861319,0.0376,7.308605883,
0.03762,1.168865339,0.03762,7.674036178,
0.03764,1.899725927,0.03764,7.674036178,
0.03766,4.457737986,0.03766,6.212315001,
0.03768,7.746610634,0.03768,7.308605883,
0.0377,4.092307692,0.0377,6.943175589,
0.03772,6.284889457,0.03772,6.943175589,
0.03774,7.38118034,0.03774,7.674036178,
0.03776,7.015750046,0.03776,7.308605883,
0.03778,6.284889457,0.03778,6.943175589,
0.0378,7.38118034,0.0378,7.674036178,
0.03782,8.112040928,0.03782,6.943175589,
0.03784,8.112040928,0.03784,6.943175589,
0.03786,8.112040928,0.03786,8.404896766,
0.03788,8.112040928,0.03788,6.577745295,
0.0379,7.015750046,0.0379,7.308605883,
0.03792,7.746610634,0.03792,7.308605883,
0.03794,8.477471222,0.03794,7.308605883,
0.03796,5.554028869,0.03796,6.212315001,
0.03798,4.457737986,0.03798,7.674036178,
0.038,3.726877398,0.038,7.674036178,
0.03802,3.726877398,0.03802,6.212315001,
0.03804,1.168865339,0.03804,7.674036178,
0.03806,1.168865339,0.03806,7.674036178,
0.03808,-2.850867897,0.03808,7.308605883,
0.0381,-3.947158779,0.0381,7.308605883,
0.03812,-2.120007309,0.03812,7.308605883,
0.03814,-3.216298191,0.03814,6.212315001,
0.03816,-4.678019368,0.03816,8.039466472,
0.03818,-3.947158779,0.03818,7.308605883,
0.0382,-6.505170839,0.0382,6.577745295,
0.03822,-6.505170839,0.03822,7.674036178,
0.03824,-7.236031427,0.03824,7.308605883,
0.03826,-7.601461721,0.03826,6.212315001,
0.03828,-9.063182898,0.03828,7.308605883,
0.0383,-7.601461721,0.0383,7.308605883,
0.03832,-10.15947378,0.03832,6.943175589,
0.03834,-7.236031427,0.03834,7.674036178,
0.03836,-7.236031427,0.03836,7.308605883,
0.03838,-6.870601133,0.03838,6.943175589,
0.0384,-5.77431025,0.0384,7.674036178,
0.03842,-5.408879956,0.03842,7.308605883,
0.03844,-3.947158779,0.03844,6.943175589,
0.03846,-3.216298191,0.03846,7.308605883,
0.03848,-0.6582861319,0.03848,7.674036178,
0.0385,-1.754577014,0.0385,6.943175589,
0.03852,-1.023716426,0.03852,7.308605883,
0.03854,0.4380047506,0.03854,7.674036178,
0.03856,2.630586516,0.03856,6.943175589,
0.03858,0.07257445642,0.03858,7.308605883,
0.0386,4.092307692,0.0386,7.674036178,
0.03862,4.457737986,0.03862,6.943175589,
0.03864,5.919459163,0.03864,7.674036178,
0.03866,6.650319752,0.03866,7.308605883,
0.03868,7.746610634,0.03868,6.943175589,
0.0387,5.554028869,0.0387,7.674036178,
0.03872,6.650319752,0.03872,7.674036178,
0.03874,8.112040928,0.03874,6.943175589,
0.03876,7.38118034,0.03876,8.039466472,
0.03878,7.746610634,0.03878,7.674036178,
0.0388,7.015750046,0.0388,7.308605883,
0.03882,8.477471222,0.03882,8.039466472,
0.03884,7.38118034,0.03884,7.308605883,
0.03886,7.38118034,0.03886,6.943175589,
0.03888,4.457737986,0.03888,8.039466472,
0.0389,5.188598575,0.0389,7.674036178,
0.03892,4.823168281,0.03892,6.943175589,
0.03894,2.630586516,0.03894,8.039466472,
0.03896,2.630586516,0.03896,7.308605883,
0.03898,0.4380047506,0.03898,6.943175589,
0.039,0.8034350448,0.039,7.674036178,
0.03902,0.4380047506,0.03902,7.308605883,
0.03904,-2.850867897,0.03904,6.943175589,
0.03906,-3.216298191,0.03906,6.943175589,
0.03908,-2.485437603,0.03908,7.308605883,
0.0391,-5.043449662,0.0391,7.308605883,
0.03912,-6.139740544,0.03912,8.039466472,
0.03914,-6.870601133,0.03914,6.943175589,
0.03916,-7.236031427,0.03916,7.674036178,
0.03918,-7.966892015,0.03918,8.77032706,
0.0392,-9.428613192,0.0392,7.674036178,
0.03922,-7.601461721,0.03922,7.308605883,
0.03924,-8.33232231,0.03924,8.039466472,
0.03926,-9.063182898,0.03926,7.308605883,
0.03928,-9.428613192,0.03928,7.674036178,
0.0393,-8.33232231,0.0393,8.039466472,
0.03932,-7.236031427,0.03932,6.943175589,
0.03934,-8.33232231,0.03934,7.308605883,
0.03936,-6.139740544,0.03936,7.674036178,
0.03938,-5.043449662,0.03938,7.308605883,
0.0394,-5.77431025,0.0394,7.308605883,
0.03942,-2.120007309,0.03942,8.039466472,
0.03944,-2.850867897,0.03944,7.674036178,
0.03946,-0.6582861319,0.03946,7.674036178,
0.03948,1.168865339,0.03948,8.039466472,
0.0395,2.99601681,0.0395,7.308605883,
0.03952,1.899725927,0.03952,7.308605883,
0.03954,4.092307692,0.03954,8.039466472,
0.03956,4.092307692,0.03956,7.308605883,
0.03958,4.457737986,0.03958,7.308605883,
0.0396,5.188598575,0.0396,7.308605883,
0.03962,6.284889457,0.03962,7.308605883,
0.03964,8.477471222,0.03964,7.308605883,
0.03966,7.015750046,0.03966,7.674036178,
0.03968,8.112040928,0.03968,6.943175589,
0.0397,7.746610634,0.0397,7.308605883,
0.03972,9.208331811,0.03972,7.308605883,
0.03974,7.015750046,0.03974,7.308605883,
0.03976,5.554028869,0.03976,7.674036178,
0.03978,7.746610634,0.03978,7.674036178,
0.0398,6.650319752,0.0398,7.674036178,
0.03982,5.554028869,0.03982,6.943175589,
0.03984,5.188598575,0.03984,7.674036178,
0.03986,2.99601681,0.03986,7.308605883,
0.03988,2.99601681,0.03988,7.674036178,
0.0399,1.534295633,0.0399,8.039466472,
0.03992,0.8034350448,0.03992,7.308605883,
0.03994,0.8034350448,0.03994,7.674036178,
0.03996,-2.850867897,0.03996,7.674036178,
0.03998,-2.485437603,0.03998,7.308605883,
0.04,-3.216298191,0.04,7.674036178,
0.04002,-4.678019368,0.04002,7.674036178,
0.04004,-6.505170839,0.04004,7.674036178,
0.04006,-5.77431025,0.04006,7.308605883,
0.04008,-7.601461721,0.04008,8.039466472,
0.0401,-9.063182898,0.0401,8.404896766,
0.04012,-7.236031427,0.04012,7.674036178,
0.04014,-7.966892015,0.04014,8.039466472,
0.04016,-8.33232231,0.04016,8.039466472,
0.04018,-7.966892015,0.04018,8.039466472,
0.0402,-7.966892015,0.0402,8.039466472,
0.04022,-7.966892015,0.04022,7.674036178,
0.04024,-7.236031427,0.04024,7.308605883,
0.04026,-6.870601133,0.04026,7.674036178,
0.04028,-5.77431025,0.04028,7.308605883,
0.0403,-6.139740544,0.0403,7.674036178,
0.04032,-5.043449662,0.04032,7.674036178,
0.04034,-3.216298191,0.04034,7.308605883,
0.04036,-1.38914672,0.04036,7.674036178,
0.04038,-0.2928558377,0.04038,7.308605883,
0.0404,0.4380047506,0.0404,7.674036178,
0.04042,1.534295633,0.04042,7.308605883,
0.04044,2.265156221,0.04044,8.039466472,
0.04046,4.457737986,0.04046,6.943175589,
0.04048,4.457737986,0.04048,8.039466472,
0.0405,5.554028869,0.0405,7.308605883,
0.04052,5.919459163,0.04052,7.674036178,
0.04054,6.284889457,0.04054,7.308605883,
0.04056,7.015750046,0.04056,7.308605883,
0.04058,5.188598575,0.04058,7.674036178,
0.0406,7.746610634,0.0406,8.039466472,
0.04062,5.919459163,0.04062,7.674036178,
0.04064,8.112040928,0.04064,7.674036178,
0.04066,8.842901517,0.04066,8.039466472,
0.04068,7.746610634,0.04068,7.308605883,
0.0407,7.746610634,0.0407,7.674036178,
0.04072,7.38118034,0.04072,7.674036178,
0.04074,7.38118034,0.04074,7.308605883,
0.04076,5.554028869,0.04076,7.674036178,
0.04078,5.188598575,0.04078,6.577745295,
0.0408,4.092307692,0.0408,7.308605883,
0.04082,2.630586516,0.04082,7.308605883,
0.04084,-0.2928558377,0.04084,7.308605883,
0.04086,-0.2928558377,0.04086,7.674036178,
0.04088,-0.2928558377,0.04088,8.77032706,
0.0409,-2.485437603,0.0409,7.674036178,
0.04092,-2.485437603,0.04092,7.674036178,
0.04094,-3.216298191,0.04094,7.674036178,
0.04096,-5.408879956,0.04096,7.308605883,
0.04098,-6.139740544,0.04098,7.308605883,
0.041,-5.408879956,0.041,7.674036178,
0.04102,-6.505170839,0.04102,7.674036178,
0.04104,-7.236031427,0.04104,7.674036178,
0.04106,-6.139740544,0.04106,7.308605883,
0.04108,-8.33232231,0.04108,6.577745295,
0.0411,-7.601461721,0.0411,7.674036178,
0.04112,-7.601461721,0.04112,7.674036178,
0.04114,-9.063182898,0.04114,7.308605883,
0.04116,-7.236031427,0.04116,7.674036178,
0.04118,-4.678019368,0.04118,7.308605883,
0.0412,-6.505170839,0.0412,7.674036178,
0.04122,-5.408879956,0.04122,7.674036178,
0.04124,-3.947158779,0.04124,7.308605883,
0.04126,-3.581728485,0.04126,7.674036178,
0.04128,-2.850867897,0.04128,9.501187648,
0.0413,-1.023716426,0.0413,7.308605883,
0.04132,-0.6582861319,0.04132,7.674036178,
0.04134,0.4380047506,0.04134,7.308605883,
0.04136,0.8034350448,0.04136,7.308605883,
0.04138,3.361447104,0.04138,7.308605883,
0.0414,2.99601681,0.0414,7.674036178,
0.04142,4.457737986,0.04142,7.308605883,
0.04144,5.554028869,0.04144,7.674036178,
0.04146,7.746610634,0.04146,7.674036178,
0.04148,7.38118034,0.04148,5.846884707,
0.0415,7.746610634,0.0415,7.674036178,
0.04152,7.38118034,0.04152,7.674036178,
0.04154,7.015750046,0.04154,7.308605883,
0.04156,7.015750046,0.04156,6.943175589,
0.04158,9.573762105,0.04158,7.308605883,
0.0416,8.477471222,0.0416,6.943175589,
0.04162,7.38118034,0.04162,6.943175589,
0.04164,7.015750046,0.04164,8.039466472,
0.04166,6.650319752,0.04166,6.943175589,
0.04168,5.188598575,0.04168,8.039466472,
0.0417,7.015750046,0.0417,7.674036178,
0.04172,3.726877398,0.04172,7.308605883,
0.04174,3.361447104,0.04174,6.577745295,
0.04176,2.630586516,0.04176,8.039466472,
0.04178,-0.2928558377,0.04178,6.577745295,
0.0418,-0.6582861319,0.0418,7.308605883,
0.04182,-0.2928558377,0.04182,8.039466472,
0.04184,-2.850867897,0.04184,7.674036178,
0.04186,-3.947158779,0.04186,7.674036178,
0.04188,-3.947158779,0.04188,9.135757354,
0.0419,-6.139740544,0.0419,7.674036178,
0.04192,-6.870601133,0.04192,7.674036178,
0.04194,-6.505170839,0.04194,8.039466472,
0.04196,-7.601461721,0.04196,7.308605883,
0.04198,-7.601461721,0.04198,6.212315001,
0.042,-7.601461721,0.042,8.039466472,
0.04202,-8.33232231,0.04202,7.308605883,
0.04204,-7.236031427,0.04204,7.308605883,
0.04206,-7.601461721,0.04206,7.674036178,
0.04208,-7.601461721,0.04208,7.674036178,
0.0421,-6.139740544,0.0421,6.943175589,
0.04212,-6.870601133,0.04212,7.674036178,
0.04214,-6.870601133,0.04214,7.308605883,
0.04216,-6.870601133,0.04216,7.308605883,
0.04218,-5.043449662,0.04218,8.404896766,
0.0422,-3.216298191,0.0422,7.308605883,
0.04222,-2.850867897,0.04222,6.943175589,
0.04224,-1.023716426,0.04224,8.039466472,
0.04226,0.07257445642,0.04226,6.943175589,
0.04228,0.4380047506,0.04228,7.674036178,
0.0423,1.168865339,0.0423,7.674036178,
0.04232,2.265156221,0.04232,7.308605883,
0.04234,4.457737986,0.04234,6.943175589,
0.04236,5.188598575,0.04236,7.674036178,
0.04238,5.919459163,0.04238,6.577745295,
0.0424,5.188598575,0.0424,7.308605883,
0.04242,7.015750046,0.04242,8.039466472,
0.04244,7.015750046,0.04244,7.308605883,
0.04246,7.015750046,0.04246,7.674036178,
0.04248,7.746610634,0.04248,7.308605883,
0.0425,7.746610634,0.0425,7.308605883,
0.04252,7.38118034,0.04252,7.308605883,
0.04254,6.650319752,0.04254,8.039466472,
0.04256,7.015750046,0.04256,7.674036178,
0.04258,8.842901517,0.04258,6.943175589,
0.0426,7.38118034,0.0426,8.039466472,
0.04262,4.092307692,0.04262,7.308605883,
0.04264,4.092307692,0.04264,7.308605883,
0.04266,4.457737986,0.04266,8.039466472,
0.04268,2.99601681,0.04268,7.674036178,
0.0427,2.99601681,0.0427,7.674036178,
0.04272,0.8034350448,0.04272,7.674036178,
0.04274,-1.38914672,0.04274,7.308605883,
0.04276,-1.38914672,0.04276,7.308605883,
0.04278,-3.947158779,0.04278,8.404896766,
0.0428,-4.312589074,0.0428,7.308605883,
0.04282,-5.408879956,0.04282,6.943175589,
0.04284,-6.139740544,0.04284,7.674036178,
0.04286,-7.966892015,0.04286,6.943175589,
0.04288,-6.870601133,0.04288,7.308605883,
0.0429,-7.966892015,0.0429,7.674036178,
0.04292,-8.697752604,0.04292,7.308605883,
0.04294,-7.966892015,0.04294,7.674036178,
0.04296,-8.697752604,0.04296,8.039466472,
0.04298,-7.966892015,0.04298,6.943175589,
0.043,-8.697752604,0.043,6.943175589,
0.04302,-7.601461721,0.04302,7.674036178,
0.04304,-7.236031427,0.04304,6.577745295,
0.04306,-7.236031427,0.04306,7.674036178,
0.04308,-6.139740544,0.04308,7.674036178,
0.0431,-8.697752604,0.0431,7.674036178,
0.04312,-3.947158779,0.04312,7.308605883,
0.04314,-2.850867897,0.04314,8.404896766,
0.04316,-2.850867897,0.04316,7.308605883,
0.04318,-0.6582861319,0.04318,7.308605883,
0.0432,0.8034350448,0.0432,8.039466472,
0.04322,0.8034350448,0.04322,7.674036178,
0.04324,2.630586516,0.04324,7.308605883,
0.04326,2.99601681,0.04326,8.039466472,
0.04328,5.554028869,0.04328,7.308605883,
0.0433,4.823168281,0.0433,7.308605883,
0.04332,5.554028869,0.04332,8.404896766,
0.04334,7.015750046,0.04334,7.674036178,
0.04336,7.015750046,0.04336,7.308605883,
0.04338,6.650319752,0.04338,7.674036178,
0.0434,7.015750046,0.0434,7.674036178,
0.04342,7.746610634,0.04342,7.308605883,
0.04344,6.650319752,0.04344,7.674036178,
0.04346,7.015750046,0.04346,7.674036178,
0.04348,8.477471222,0.04348,7.674036178,
0.0435,7.38118034,0.0435,7.674036178,
0.04352,6.650319752,0.04352,7.308605883,
0.04354,8.477471222,0.04354,7.308605883,
0.04356,5.919459163,0.04356,8.039466472,
0.04358,3.726877398,0.04358,7.674036178,
0.0436,3.726877398,0.0436,7.308605883,
0.04362,3.361447104,0.04362,7.308605883,
0.04364,1.534295633,0.04364,7.674036178,
0.04366,-0.2928558377,0.04366,7.308605883,
0.04368,-1.38914672,0.04368,7.308605883,
0.0437,-2.120007309,0.0437,7.674036178,
0.04372,-2.850867897,0.04372,7.308605883,
0.04374,-1.754577014,0.04374,7.674036178,
0.04376,-4.678019368,0.04376,8.039466472,
0.04378,-5.408879956,0.04378,7.674036178,
0.0438,-5.408879956,0.0438,7.674036178,
0.04382,-8.33232231,0.04382,7.674036178,
0.04384,-7.601461721,0.04384,7.674036178,
0.04386,-7.966892015,0.04386,7.308605883,
0.04388,-8.33232231,0.04388,8.039466472,
0.0439,-8.33232231,0.0439,7.308605883,
0.04392,-8.33232231,0.04392,7.674036178,
0.04394,-9.063182898,0.04394,7.674036178,
0.04396,-7.236031427,0.04396,7.674036178,
0.04398,-6.505170839,0.04398,7.674036178,
0.044,-6.505170839,0.044,7.674036178,
0.04402,-6.139740544,0.04402,7.308605883,
0.04404,-4.678019368,0.04404,7.674036178,
0.04406,-4.678019368,0.04406,8.039466472,
0.04408,-2.485437603,0.04408,7.308605883,
0.0441,-2.120007309,0.0441,7.674036178,
0.04412,-1.023716426,0.04412,7.674036178,
0.04414,-0.2928558377,0.04414,7.674036178,
0.04416,1.534295633,0.04416,7.674036178,
0.04418,1.899725927,0.04418,7.674036178,
0.0442,3.361447104,0.0442,7.308605883,
0.04422,5.188598575,0.04422,7.308605883,
0.04424,4.823168281,0.04424,7.674036178,
0.04426,6.650319752,0.04426,7.674036178,
0.04428,7.746610634,0.04428,7.308605883,
0.0443,6.650319752,0.0443,8.404896766,
0.04432,8.112040928,0.04432,7.674036178,
0.04434,8.112040928,0.04434,7.308605883,
0.04436,6.650319752,0.04436,7.674036178,
0.04438,7.015750046,0.04438,7.308605883,
0.0444,8.477471222,0.0444,7.308605883,
0.04442,7.015750046,0.04442,7.674036178,
0.04444,7.746610634,0.04444,7.308605883,
0.04446,8.842901517,0.04446,7.674036178,
0.04448,6.284889457,0.04448,7.674036178,
0.0445,4.823168281,0.0445,7.674036178,
0.04452,5.554028869,0.04452,8.039466472,
0.04454,2.265156221,0.04454,7.674036178,
0.04456,2.99601681,0.04456,7.674036178,
0.04458,1.168865339,0.04458,7.674036178,
0.0446,0.07257445642,0.0446,7.674036178,
0.04462,-1.023716426,0.04462,6.577745295,
0.04464,-1.38914672,0.04464,7.674036178,
0.04466,-4.312589074,0.04466,7.674036178,
0.04468,-3.581728485,0.04468,7.674036178,
0.0447,-4.312589074,0.0447,7.674036178,
0.04472,-6.139740544,0.04472,7.674036178,
0.04474,-6.139740544,0.04474,7.308605883,
0.04476,-6.505170839,0.04476,8.039466472,
0.04478,-7.966892015,0.04478,7.674036178,
0.0448,-7.601461721,0.0448,6.943175589,
0.04482,-7.601461721,0.04482,7.308605883,
0.04484,-6.870601133,0.04484,6.943175589,
0.04486,-7.601461721,0.04486,7.308605883,
0.04488,-7.601461721,0.04488,7.308605883,
0.0449,-6.870601133,0.0449,6.577745295,
0.04492,-6.870601133,0.04492,7.308605883,
0.04494,-6.870601133,0.04494,7.674036178,
0.04496,-4.678019368,0.04496,7.308605883,
0.04498,-3.581728485,0.04498,7.674036178,
0.045,-1.754577014,0.045,8.404896766,
0.04502,-1.754577014,0.04502,7.674036178,
0.04504,-1.023716426,0.04504,7.674036178,
0.04506,0.8034350448,0.04506,7.674036178,
0.04508,0.8034350448,0.04508,7.674036178,
0.0451,1.899725927,0.0451,7.674036178,
0.04512,2.265156221,0.04512,7.308605883,
0.04514,3.361447104,0.04514,7.674036178,
0.04516,4.092307692,0.04516,7.674036178,
0.04518,4.457737986,0.04518,7.308605883,
0.0452,7.746610634,0.0452,6.943175589,
0.04522,6.650319752,0.04522,7.308605883,
0.04524,6.284889457,0.04524,7.308605883,
0.04526,7.746610634,0.04526,7.674036178,
0.04528,7.015750046,0.04528,6.943175589,
0.0453,6.650319752,0.0453,7.674036178,
0.04532,8.842901517,0.04532,8.039466472,
0.04534,7.746610634,0.04534,7.674036178,
0.04536,8.112040928,0.04536,6.943175589,
0.04538,7.38118034,0.04538,7.308605883,
0.0454,7.38118034,0.0454,7.674036178,
0.04542,5.188598575,0.04542,7.308605883,
0.04544,6.284889457,0.04544,8.039466472,
0.04546,4.823168281,0.04546,6.943175589,
0.04548,2.630586516,0.04548,7.308605883,
0.0455,1.534295633,0.0455,7.308605883,
0.04552,0.4380047506,0.04552,6.943175589,
0.04554,0.07257445642,0.04554,7.674036178,
0.04556,-1.38914672,0.04556,7.308605883,
0.04558,-2.485437603,0.04558,6.577745295,
0.0456,-2.485437603,0.0456,5.481454413,
0.04562,-3.581728485,0.04562,7.674036178,
0.04564,-5.408879956,0.04564,6.943175589,
0.04566,-5.408879956,0.04566,7.308605883,
0.04568,-7.236031427,0.04568,7.308605883,
0.0457,-7.236031427,0.0457,8.039466472,
0.04572,-6.139740544,0.04572,6.943175589,
0.04574,-10.52490407,0.04574,7.674036178,
0.04576,-8.33232231,0.04576,6.943175589,
0.04578,-7.966892015,0.04578,7.308605883,
0.0458,-7.236031427,0.0458,8.039466472,
0.04582,-6.870601133,0.04582,7.308605883,
0.04584,-6.870601133,0.04584,7.308605883,
0.04586,-5.77431025,0.04586,7.674036178,
0.04588,-5.043449662,0.04588,6.943175589,
0.0459,-4.312589074,0.0459,6.943175589,
0.04592,-4.312589074,0.04592,7.308605883,
0.04594,-3.947158779,0.04594,6.943175589,
0.04596,-2.485437603,0.04596,7.308605883,
0.04598,-0.2928558377,0.04598,7.308605883,
0.046,-0.6582861319,0.046,6.577745295,
0.04602,-0.6582861319,0.04602,7.308605883,
0.04604,2.99601681,0.04604,7.308605883,
0.04606,2.630586516,0.04606,6.943175589,
0.04608,4.823168281,0.04608,7.308605883,
0.0461,6.284889457,0.0461,7.308605883,
0.04612,7.015750046,0.04612,6.943175589,
0.04614,7.746610634,0.04614,7.308605883,
0.04616,7.015750046,0.04616,6.943175589,
0.04618,7.015750046,0.04618,7.308605883,
0.0462,7.746610634,0.0462,6.943175589,
0.04622,7.746610634,0.04622,7.308605883,
0.04624,7.38118034,0.04624,6.943175589,
0.04626,7.38118034,0.04626,7.308605883,
0.04628,6.650319752,0.04628,7.308605883,
0.0463,7.38118034,0.0463,6.577745295,
0.04632,3.726877398,0.04632,7.674036178,
0.04634,8.112040928,0.04634,7.308605883,
0.04636,5.554028869,0.04636,6.943175589,
0.04638,5.554028869,0.04638,7.308605883,
0.0464,2.630586516,0.0464,7.308605883,
0.04642,1.534295633,0.04642,7.308605883,
0.04644,1.899725927,0.04644,7.674036178,
0.04646,0.8034350448,0.04646,7.674036178,
0.04648,-1.023716426,0.04648,7.308605883,
0.0465,-1.023716426,0.0465,8.039466472,
0.04652,-1.38914672,0.04652,7.674036178,
0.04654,-4.312589074,0.04654,6.943175589,
0.04656,-6.139740544,0.04656,7.674036178,
0.04658,-3.581728485,0.04658,7.308605883,
0.0466,-5.77431025,0.0466,6.943175589,
0.04662,-7.601461721,0.04662,7.674036178,
0.04664,-7.966892015,0.04664,7.674036178,
0.04666,-10.52490407,0.04666,6.943175589,
0.04668,-7.601461721,0.04668,7.674036178,
0.0467,-8.697752604,0.0467,7.308605883,
0.04672,-7.601461721,0.04672,6.943175589,
0.04674,-7.236031427,0.04674,7.674036178,
0.04676,-6.505170839,0.04676,7.308605883,
0.04678,-7.236031427,0.04678,6.943175589,
0.0468,-6.870601133,0.0468,7.308605883,
0.04682,-6.505170839,0.04682,7.308605883,
0.04684,-5.043449662,0.04684,6.943175589,
0.04686,-3.216298191,0.04686,7.308605883,
0.04688,-1.754577014,0.04688,7.674036178,
0.0469,-1.38914672,0.0469,7.308605883,
0.04692,-1.38914672,0.04692,7.308605883,
0.04694,-0.6582861319,0.04694,7.674036178,
0.04696,1.899725927,0.04696,7.308605883,
0.04698,3.361447104,0.04698,7.674036178,
0.047,4.457737986,0.047,6.943175589,
0.04702,2.99601681,0.04702,6.943175589,
0.04704,6.284889457,0.04704,7.308605883,
0.04706,6.650319752,0.04706,7.308605883,
0.04708,7.015750046,0.04708,7.308605883,
0.0471,7.38118034,0.0471,7.674036178,
0.04712,8.112040928,0.04712,7.674036178,
0.04714,7.746610634,0.04714,6.943175589,
0.04716,7.38118034,0.04716,7.308605883,
0.04718,7.746610634,0.04718,7.308605883,
0.0472,6.650319752,0.0472,6.943175589,
0.04722,8.477471222,0.04722,7.308605883,
0.04724,7.015750046,0.04724,7.674036178,
0.04726,9.939192399,0.04726,7.674036178,
0.04728,6.284889457,0.04728,8.039466472,
0.0473,2.265156221,0.0473,6.943175589,
0.04732,5.554028869,0.04732,7.674036178,
0.04734,3.726877398,0.04734,7.674036178,
0.04736,1.899725927,0.04736,7.674036178,
0.04738,2.265156221,0.04738,7.308605883,
0.0474,0.07257445642,0.0474,7.674036178,
0.04742,-1.38914672,0.04742,7.308605883,
0.04744,-3.216298191,0.04744,6.943175589,
0.04746,-3.581728485,0.04746,7.674036178,
0.04748,-3.947158779,0.04748,7.308605883,
0.0475,-5.043449662,0.0475,6.943175589,
0.04752,-6.870601133,0.04752,8.039466472,
0.04754,-6.505170839,0.04754,7.308605883,
0.04756,-9.063182898,0.04756,6.943175589,
0.04758,-8.33232231,0.04758,7.674036178,
0.0476,-9.428613192,0.0476,7.308605883,
0.04762,-10.15947378,0.04762,7.308605883,
0.04764,-7.236031427,0.04764,7.674036178,
0.04766,-7.601461721,0.04766,7.308605883,
0.04768,-7.236031427,0.04768,7.308605883,
0.0477,-6.505170839,0.0477,7.674036178,
0.04772,-6.870601133,0.04772,7.308605883,
0.04774,-5.77431025,0.04774,6.943175589,
0.04776,-6.139740544,0.04776,7.674036178,
0.04778,-5.408879956,0.04778,7.308605883,
0.0478,-2.120007309,0.0478,7.674036178,
0.04782,-1.38914672,0.04782,8.039466472,
0.04784,-1.754577014,0.04784,6.943175589,
0.04786,0.07257445642,0.04786,6.943175589,
0.04788,0.8034350448,0.04788,7.674036178,
0.0479,1.168865339,0.0479,7.674036178,
0.04792,3.361447104,0.04792,6.943175589,
0.04794,4.457737986,0.04794,7.674036178,
0.04796,6.284889457,0.04796,7.308605883,
0.04798,4.457737986,0.04798,7.308605883,
0.048,7.38118034,0.048,8.039466472,
0.04802,6.284889457,0.04802,7.674036178,
0.04804,7.38118034,0.04804,7.308605883,
0.04806,6.284889457,0.04806,7.674036178,
0.04808,6.284889457,0.04808,8.039466472,
0.0481,7.38118034,0.0481,7.308605883,
0.04812,5.188598575,0.04812,7.674036178,
0.04814,7.38118034,0.04814,8.77032706,
0.04816,7.38118034,0.04816,7.674036178,
0.04818,7.746610634,0.04818,7.674036178,
0.0482,6.650319752,0.0482,7.308605883,
0.04822,5.919459163,0.04822,6.943175589,
0.04824,4.457737986,0.04824,8.039466472,
0.04826,4.457737986,0.04826,7.674036178,
0.04828,3.361447104,0.04828,7.308605883,
0.0483,3.726877398,0.0483,7.674036178,
0.04832,1.534295633,0.04832,7.308605883,
0.04834,-0.6582861319,0.04834,7.308605883,
0.04836,-2.120007309,0.04836,8.039466472,
0.04838,-3.581728485,0.04838,7.308605883,
0.0484,-3.581728485,0.0484,7.308605883,
0.04842,-5.043449662,0.04842,8.039466472,
0.04844,-5.77431025,0.04844,7.308605883,
0.04846,-6.505170839,0.04846,7.308605883,
0.04848,-6.870601133,0.04848,8.039466472,
0.0485,-8.697752604,0.0485,7.308605883,
0.04852,-8.697752604,0.04852,7.308605883,
0.04854,-7.601461721,0.04854,8.039466472,
0.04856,-8.33232231,0.04856,7.674036178,
0.04858,-9.428613192,0.04858,6.943175589,
0.0486,-10.15947378,0.0486,7.308605883,
0.04862,-5.408879956,0.04862,7.308605883,
0.04864,-7.966892015,0.04864,7.674036178,
0.04866,-6.139740544,0.04866,7.674036178,
0.04868,-5.77431025,0.04868,7.308605883,
0.0487,-5.408879956,0.0487,6.943175589,
0.04872,-2.850867897,0.04872,8.404896766,
0.04874,-3.581728485,0.04874,7.308605883,
0.04876,-0.6582861319,0.04876,6.943175589,
0.04878,-0.2928558377,0.04878,7.308605883,
0.0488,0.07257445642,0.0488,7.308605883,
0.04882,1.899725927,0.04882,8.039466472,
0.04884,1.899725927,0.04884,8.039466472,
0.04886,3.361447104,0.04886,7.308605883,
0.04888,3.361447104,0.04888,6.577745295,
0.0489,5.554028869,0.0489,8.039466472,
0.04892,5.554028869,0.04892,5.846884707,
0.04894,7.015750046,0.04894,7.308605883,
0.04896,6.650319752,0.04896,8.039466472,
0.04898,7.38118034,0.04898,7.308605883,
0.049,7.38118034,0.049,7.308605883,
0.04902,7.38118034,0.04902,9.135757354,
0.04904,7.38118034,0.04904,7.674036178,
0.04906,7.015750046,0.04906,6.943175589,
0.04908,8.477471222,0.04908,8.404896766,
0.0491,7.38118034,0.0491,7.308605883,
0.04912,7.38118034,0.04912,6.577745295,
0.04914,7.015750046,0.04914,7.674036178,
0.04916,5.188598575,0.04916,7.308605883,
0.04918,6.284889457,0.04918,7.674036178,
0.0492,4.823168281,0.0492,7.674036178,
0.04922,3.361447104,0.04922,5.846884707,
0.04924,1.899725927,0.04924,7.674036178,
0.04926,-0.2928558377,0.04926,6.577745295,
0.04928,0.4380047506,0.04928,7.674036178,
0.0493,-2.120007309,0.0493,7.308605883,
0.04932,-2.850867897,0.04932,8.039466472,
0.04934,-2.485437603,0.04934,7.674036178,
0.04936,-2.485437603,0.04936,8.039466472,
0.04938,-6.505170839,0.04938,7.308605883,
0.0494,-6.139740544,0.0494,8.404896766,
0.04942,-7.601461721,0.04942,8.77032706,
0.04944,-7.966892015,0.04944,7.674036178,
0.04946,-6.870601133,0.04946,7.308605883,
0.04948,-8.33232231,0.04948,7.674036178,
0.0495,-7.601461721,0.0495,7.674036178,
0.04952,-7.601461721,0.04952,6.577745295,
0.04954,-7.966892015,0.04954,7.674036178,
0.04956,-6.870601133,0.04956,8.039466472,
0.04958,-6.139740544,0.04958,7.308605883,
0.0496,-5.77431025,0.0496,8.039466472,
0.04962,-6.505170839,0.04962,6.212315001,
0.04964,-5.043449662,0.04964,7.674036178,
0.04966,-4.312589074,0.04966,7.674036178,
0.04968,-2.485437603,0.04968,8.039466472,
0.0497,-1.38914672,0.0497,7.308605883,
0.04972,-0.6582861319,0.04972,6.577745295,
0.04974,-0.2928558377,0.04974,7.674036178,
0.04976,1.899725927,0.04976,7.674036178,
0.04978,0.4380047506,0.04978,7.674036178,
0.0498,3.726877398,0.0498,7.308605883,
0.04982,5.188598575,0.04982,6.212315001,
0.04984,5.188598575,0.04984,7.674036178,
0.04986,5.554028869,0.04986,7.674036178,
0.04988,6.284889457,0.04988,6.943175589,
0.0499,6.650319752,0.0499,7.674036178,
0.04992,7.015750046,0.04992,6.577745295,
0.04994,8.477471222,0.04994,7.674036178,
0.04996,7.38118034,0.04996,7.674036178,
0.04998,5.554028869,0.04998,7.674036178,
0.05,8.477471222,0.05,8.039466472,
0.05002,5.919459163,0.05002,8.77032706,
0.05004,8.112040928,0.05004,7.674036178,
0.05006,7.746610634,0.05006,7.308605883,
0.05008,6.284889457,0.05008,7.674036178,
0.0501,5.188598575,0.0501,7.308605883,
0.05012,5.188598575,0.05012,7.674036178,
0.05014,-0.2928558377,0.05014,7.308605883,
0.05016,1.168865339,0.05016,7.308605883,
0.05018,1.168865339,0.05018,7.674036178,
0.0502,-0.2928558377,0.0502,7.674036178,
0.05022,-0.2928558377,0.05022,6.577745295,
0.05024,-1.754577014,0.05024,7.674036178,
0.05026,-3.947158779,0.05026,7.308605883,
0.05028,-3.947158779,0.05028,8.039466472,
0.0503,-4.312589074,0.0503,7.674036178,
0.05032,-6.870601133,0.05032,5.846884707,
0.05034,-6.870601133,0.05034,7.674036178,
0.05036,-7.236031427,0.05036,8.039466472,
0.05038,-8.697752604,0.05038,7.308605883,
0.0504,-8.697752604,0.0504,8.039466472,
0.05042,-4.678019368,0.05042,7.674036178,
0.05044,-7.601461721,0.05044,6.943175589,
0.05046,-7.966892015,0.05046,8.404896766,
0.05048,-11.62119496,0.05048,7.308605883,
0.0505,-7.236031427,0.0505,6.943175589,
0.05052,-7.236031427,0.05052,8.77032706,
0.05054,-6.505170839,0.05054,7.674036178,
0.05056,-5.043449662,0.05056,6.943175589,
0.05058,-4.678019368,0.05058,8.039466472,
0.0506,-2.850867897,0.0506,7.308605883,
0.05062,-2.120007309,0.05062,7.674036178,
0.05064,-1.754577014,0.05064,8.039466472,
0.05066,-0.2928558377,0.05066,7.308605883,
0.05068,-0.2928558377,0.05068,7.308605883,
0.0507,0.4380047506,0.0507,7.674036178,
0.05072,2.99601681,0.05072,6.943175589,
0.05074,3.726877398,0.05074,7.674036178,
0.05076,4.823168281,0.05076,8.404896766,
0.05078,4.092307692,0.05078,7.674036178,
0.0508,5.188598575,0.0508,7.308605883,
0.05082,7.38118034,0.05082,7.308605883,
0.05084,7.746610634,0.05084,7.308605883,
0.05086,8.477471222,0.05086,7.308605883,
0.05088,7.746610634,0.05088,8.039466472,
0.0509,7.38118034,0.0509,7.674036178,
0.05092,5.188598575,0.05092,6.943175589,
0.05094,7.746610634,0.05094,8.039466472,
0.05096,7.015750046,0.05096,7.674036178,
0.05098,7.746610634,0.05098,7.308605883,
0.051,7.38118034,0.051,7.674036178,
0.05102,4.823168281,0.05102,7.674036178,
0.05104,5.919459163,0.05104,7.308605883,
0.05106,3.361447104,0.05106,7.674036178,
0.05108,2.265156221,0.05108,7.308605883,
0.0511,0.8034350448,0.0511,7.308605883,
0.05112,0.4380047506,0.05112,8.039466472,
0.05114,-1.754577014,0.05114,7.308605883,
0.05116,-1.754577014,0.05116,7.308605883,
0.05118,-3.216298191,0.05118,8.039466472,
0.0512,-3.947158779,0.0512,7.674036178,
0.05122,-5.408879956,0.05122,7.308605883,
0.05124,-6.139740544,0.05124,8.039466472,
0.05126,-5.77431025,0.05126,7.674036178,
0.05128,-6.505170839,0.05128,7.674036178,
0.0513,-6.870601133,0.0513,8.039466472,
0.05132,-8.33232231,0.05132,7.308605883,
0.05134,-7.966892015,0.05134,7.674036178,
0.05136,-7.966892015,0.05136,7.674036178,
0.05138,-7.966892015,0.05138,7.308605883,
0.0514,-7.966892015,0.0514,7.308605883,
0.05142,-7.601461721,0.05142,8.039466472,
0.05144,-6.139740544,0.05144,8.039466472,
0.05146,-6.139740544,0.05146,7.308605883,
0.05148,-5.77431025,0.05148,7.674036178,
0.0515,-5.043449662,0.0515,6.943175589,
0.05152,-5.043449662,0.05152,6.943175589,
0.05154,-2.485437603,0.05154,8.039466472,
0.05156,-1.754577014,0.05156,7.308605883,
0.05158,-2.485437603,0.05158,7.308605883,
0.0516,0.07257445642,0.0516,7.674036178,
0.05162,0.4380047506,0.05162,7.308605883,
0.05164,2.265156221,0.05164,7.308605883,
0.05166,2.99601681,0.05166,7.674036178,
0.05168,2.265156221,0.05168,7.308605883,
0.0517,4.092307692,0.0517,7.308605883,
0.05172,4.823168281,0.05172,7.674036178,
0.05174,5.919459163,0.05174,7.308605883,
0.05176,5.919459163,0.05176,6.943175589,
0.05178,7.38118034,0.05178,7.674036178,
0.0518,7.38118034,0.0518,7.308605883,
0.05182,7.38118034,0.05182,7.308605883,
0.05184,7.38118034,0.05184,8.039466472,
0.05186,6.650319752,0.05186,7.308605883,
0.05188,7.015750046,0.05188,7.308605883,
0.0519,7.015750046,0.0519,7.674036178,
0.05192,7.015750046,0.05192,8.039466472,
0.05194,6.284889457,0.05194,6.943175589,
0.05196,5.919459163,0.05196,7.674036178,
0.05198,4.092307692,0.05198,8.77032706,
0.052,3.726877398,0.052,7.308605883,
0.05202,4.092307692,0.05202,6.943175589,
0.05204,0.8034350448,0.05204,7.674036178,
0.05206,-0.6582861319,0.05206,7.674036178,
0.05208,-1.38914672,0.05208,8.039466472,
0.0521,-2.485437603,0.0521,7.308605883,
0.05212,-2.850867897,0.05212,7.674036178,
0.05214,-4.312589074,0.05214,8.039466472,
0.05216,-5.043449662,0.05216,6.943175589,
0.05218,-5.77431025,0.05218,7.308605883,
0.0522,-6.139740544,0.0522,7.674036178,
0.05222,-6.870601133,0.05222,8.039466472,
0.05224,-6.870601133,0.05224,7.308605883,
0.05226,-8.697752604,0.05226,7.674036178,
0.05228,-7.601461721,0.05228,7.674036178,
0.0523,-6.505170839,0.0523,7.674036178,
0.05232,-7.601461721,0.05232,7.674036178,
0.05234,-7.601461721,0.05234,6.943175589,
0.05236,-6.505170839,0.05236,7.308605883,
0.05238,-6.139740544,0.05238,7.674036178,
0.0524,-6.505170839,0.0524,7.674036178,
0.05242,-5.408879956,0.05242,6.943175589,
0.05244,-4.312589074,0.05244,8.039466472,
0.05246,-4.678019368,0.05246,7.674036178,
0.05248,-1.754577014,0.05248,7.308605883,
0.0525,-0.6582861319,0.0525,7.674036178,
0.05252,-0.6582861319,0.05252,7.308605883,
0.05254,-1.38914672,0.05254,7.674036178,
0.05256,2.265156221,0.05256,8.039466472,
0.05258,2.265156221,0.05258,7.674036178,
0.0526,3.726877398,0.0526,6.943175589,
0.05262,5.188598575,0.05262,8.039466472,
0.05264,5.554028869,0.05264,7.308605883,
0.05266,6.284889457,0.05266,7.308605883,
0.05268,6.650319752,0.05268,8.039466472,
0.0527,6.650319752,0.0527,8.039466472,
0.05272,7.015750046,0.05272,7.674036178,
0.05274,7.746610634,0.05274,7.674036178,
0.05276,7.38118034,0.05276,7.674036178,
0.05278,7.38118034,0.05278,7.674036178,
0.0528,8.112040928,0.0528,7.674036178,
0.05282,6.650319752,0.05282,7.308605883,
0.05284,6.284889457,0.05284,7.308605883,
0.05286,6.284889457,0.05286,7.674036178,
0.05288,5.188598575,0.05288,7.674036178,
0.0529,5.554028869,0.0529,7.308605883,
0.05292,5.188598575,0.05292,7.674036178,
0.05294,2.630586516,0.05294,8.039466472,
0.05296,2.99601681,0.05296,7.308605883,
0.05298,0.8034350448,0.05298,8.039466472,
0.053,-0.6582861319,0.053,7.674036178,
0.05302,-0.6582861319,0.05302,7.308605883,
0.05304,-2.120007309,0.05304,7.308605883,
0.05306,-3.216298191,0.05306,7.308605883,
0.05308,-4.312589074,0.05308,7.308605883,
0.0531,-6.139740544,0.0531,7.674036178,
0.05312,-5.77431025,0.05312,7.674036178,
0.05314,-6.139740544,0.05314,6.943175589,
0.05316,-6.870601133,0.05316,7.674036178,
0.05318,-7.601461721,0.05318,7.674036178,
0.0532,-7.236031427,0.0532,7.674036178,
0.05322,-7.236031427,0.05322,7.674036178,
0.05324,-8.33232231,0.05324,8.404896766,
0.05326,-7.601461721,0.05326,7.308605883,
0.05328,-7.601461721,0.05328,7.308605883,
0.0533,-7.601461721,0.0533,7.674036178,
0.05332,-5.77431025,0.05332,7.674036178,
0.05334,-5.408879956,0.05334,8.404896766,
0.05336,-5.043449662,0.05336,7.308605883,
0.05338,-4.312589074,0.05338,7.308605883,
0.0534,-3.216298191,0.0534,7.674036178,
0.05342,-2.850867897,0.05342,7.308605883,
0.05344,-2.120007309,0.05344,6.943175589,
0.05346,0.07257445642,0.05346,7.674036178,
0.05348,1.168865339,0.05348,7.674036178,
0.0535,2.265156221,0.0535,7.674036178,
0.05352,4.823168281,0.05352,7.674036178,
0.05354,4.092307692,0.05354,6.943175589,
0.05356,4.823168281,0.05356,6.943175589,
0.05358,6.650319752,0.05358,7.674036178,
0.0536,6.284889457,0.0536,7.674036178,
0.05362,7.38118034,0.05362,8.039466472,
0.05364,5.554028869,0.05364,8.77032706,
0.05366,8.477471222,0.05366,7.674036178,
0.05368,7.38118034,0.05368,7.674036178,
0.0537,7.015750046,0.0537,7.674036178,
0.05372,7.746610634,0.05372,7.674036178,
0.05374,6.650319752,0.05374,6.577745295,
0.05376,7.38118034,0.05376,7.674036178,
0.05378,7.015750046,0.05378,8.404896766,
0.0538,6.650319752,0.0538,7.308605883,
0.05382,4.457737986,0.05382,7.308605883,
0.05384,4.823168281,0.05384,6.212315001,
0.05386,4.823168281,0.05386,7.674036178,
0.05388,2.630586516,0.05388,8.039466472,
0.0539,1.899725927,0.0539,7.308605883,
0.05392,-0.6582861319,0.05392,6.943175589,
0.05394,-1.38914672,0.05394,8.039466472,
0.05396,-1.754577014,0.05396,7.308605883,
0.05398,-2.850867897,0.05398,7.674036178,
0.054,-2.850867897,0.054,6.943175589,
0.05402,-4.678019368,0.05402,7.674036178,
0.05404,-5.408879956,0.05404,8.039466472,
0.05406,-5.77431025,0.05406,7.674036178,
0.05408,-6.139740544,0.05408,7.674036178,
0.0541,-6.870601133,0.0541,7.308605883,
0.05412,-7.966892015,0.05412,7.308605883,
0.05414,-7.236031427,0.05414,8.039466472,
0.05416,-6.505170839,0.05416,7.674036178,
0.05418,-9.428613192,0.05418,7.308605883,
0.0542,-9.063182898,0.0542,7.674036178,
0.05422,-8.33232231,0.05422,7.308605883,
0.05424,-7.236031427,0.05424,6.943175589,
0.05426,-5.408879956,0.05426,7.674036178,
0.05428,-4.678019368,0.05428,7.308605883,
0.0543,-5.043449662,0.0543,6.577745295,
0.05432,-3.216298191,0.05432,7.308605883,
0.05434,-2.120007309,0.05434,6.577745295,
0.05436,-3.581728485,0.05436,6.943175589,
0.05438,-0.2928558377,0.05438,7.674036178,
0.0544,1.168865339,0.0544,7.674036178,
0.05442,1.168865339,0.05442,6.943175589,
0.05444,2.630586516,0.05444,8.77032706,
0.05446,4.823168281,0.05446,7.308605883,
0.05448,4.457737986,0.05448,6.943175589,
0.0545,5.554028869,0.0545,7.674036178,
0.05452,4.092307692,0.05452,7.674036178,
0.05454,7.746610634,0.05454,6.212315001,
0.05456,6.284889457,0.05456,6.943175589,
0.05458,7.746610634,0.05458,7.674036178,
0.0546,7.746610634,0.0546,6.577745295,
0.05462,7.746610634,0.05462,7.308605883,
0.05464,7.746610634,0.05464,7.308605883,
0.05466,5.554028869,0.05466,6.943175589,
0.05468,7.746610634,0.05468,7.308605883,
0.0547,7.746610634,0.0547,7.308605883,
0.05472,7.746610634,0.05472,7.308605883,
0.05474,5.919459163,0.05474,7.308605883,
0.05476,5.919459163,0.05476,7.308605883,
0.05478,4.457737986,0.05478,7.308605883,
0.0548,4.092307692,0.0548,7.674036178,
0.05482,4.823168281,0.05482,7.308605883,
0.05484,-0.2928558377,0.05484,7.308605883,
0.05486,1.534295633,0.05486,7.308605883,
0.05488,-0.6582861319,0.05488,8.039466472,
0.0549,-2.120007309,0.0549,7.308605883,
0.05492,-2.850867897,0.05492,7.674036178,
0.05494,-3.581728485,0.05494,7.308605883,
0.05496,-6.139740544,0.05496,6.943175589,
0.05498,-5.043449662,0.05498,7.308605883,
0.055,-6.505170839,0.055,7.674036178,
0.05502,-7.601461721,0.05502,6.577745295,
0.05504,-6.505170839,0.05504,7.674036178,
0.05506,-7.236031427,0.05506,8.039466472,
0.05508,-7.236031427,0.05508,7.674036178,
0.0551,-6.505170839,0.0551,7.674036178,
0.05512,-7.236031427,0.05512,8.039466472,
0.05514,-6.505170839,0.05514,8.039466472,
0.05516,-6.139740544,0.05516,7.308605883,
0.05518,-7.601461721,0.05518,7.674036178,
0.0552,-5.408879956,0.0552,7.308605883,
0.05522,-6.505170839,0.05522,7.308605883,
0.05524,-4.312589074,0.05524,7.674036178,
0.05526,-3.947158779,0.05526,7.674036178,
0.05528,-2.120007309,0.05528,7.674036178,
0.0553,-2.485437603,0.0553,7.308605883,
0.05532,-1.754577014,0.05532,7.308605883,
0.05534,0.07257445642,0.05534,7.674036178,
0.05536,1.168865339,0.05536,8.039466472,
0.05538,2.99601681,0.05538,7.674036178,
0.0554,4.092307692,0.0554,7.308605883,
0.05542,4.092307692,0.05542,7.674036178,
0.05544,6.284889457,0.05544,7.674036178,
0.05546,4.823168281,0.05546,7.308605883,
0.05548,5.554028869,0.05548,6.943175589,
0.0555,6.650319752,0.0555,7.308605883,
0.05552,7.746610634,0.05552,7.308605883,
0.05554,7.015750046,0.05554,7.674036178,
0.05556,6.650319752,0.05556,7.674036178,
0.05558,8.112040928,0.05558,7.674036178,
0.0556,8.112040928,0.0556,7.308605883,
0.05562,9.208331811,0.05562,7.674036178,
0.05564,6.284889457,0.05564,7.308605883,
0.05566,7.015750046,0.05566,6.943175589,
0.05568,4.823168281,0.05568,8.039466472,
0.0557,4.823168281,0.0557,7.308605883,
0.05572,2.99601681,0.05572,7.308605883,
0.05574,1.899725927,0.05574,8.039466472,
0.05576,2.630586516,0.05576,7.308605883,
0.05578,0.8034350448,0.05578,7.674036178,
0.0558,0.07257445642,0.0558,8.039466472,
0.05582,-1.754577014,0.05582,7.308605883,
0.05584,-2.850867897,0.05584,8.039466472,
0.05586,-3.581728485,0.05586,8.404896766,
0.05588,-4.678019368,0.05588,7.308605883,
0.0559,-5.043449662,0.0559,7.674036178,
0.05592,-5.043449662,0.05592,7.308605883,
0.05594,-6.870601133,0.05594,7.674036178,
0.05596,-8.33232231,0.05596,8.039466472,
0.05598,-8.697752604,0.05598,7.308605883,
0.056,-9.063182898,0.056,7.308605883,
0.05602,-7.601461721,0.05602,7.674036178,
0.05604,-10.52490407,0.05604,7.674036178,
0.05606,-11.25576466,0.05606,7.308605883,
0.05608,-7.236031427,0.05608,7.674036178,
0.0561,-8.697752604,0.0561,7.308605883,
0.05612,-6.870601133,0.05612,6.943175589,
0.05614,-5.77431025,0.05614,8.039466472,
0.05616,-5.77431025,0.05616,7.308605883,
0.05618,-5.043449662,0.05618,7.308605883,
0.0562,-2.850867897,0.0562,8.039466472,
0.05622,-1.754577014,0.05622,6.943175589,
0.05624,-1.754577014,0.05624,7.308605883,
0.05626,0.07257445642,0.05626,8.039466472,
0.05628,0.8034350448,0.05628,7.308605883,
0.0563,2.265156221,0.0563,7.308605883,
0.05632,2.630586516,0.05632,7.674036178,
0.05634,4.092307692,0.05634,7.308605883,
0.05636,4.092307692,0.05636,6.943175589,
0.05638,3.361447104,0.05638,8.039466472,
0.0564,6.284889457,0.0564,7.308605883,
0.05642,6.650319752,0.05642,6.943175589,
0.05644,7.38118034,0.05644,8.039466472,
0.05646,8.842901517,0.05646,7.308605883,
0.05648,7.38118034,0.05648,6.943175589,
0.0565,7.38118034,0.0565,8.039466472,
0.05652,7.38118034,0.05652,6.943175589,
0.05654,7.38118034,0.05654,7.308605883,
0.05656,7.015750046,0.05656,8.039466472,
0.05658,7.015750046,0.05658,6.943175589,
0.0566,7.015750046,0.0566,7.308605883,
0.05662,5.919459163,0.05662,7.674036178,
0.05664,5.554028869,0.05664,7.674036178,
0.05666,3.361447104,0.05666,7.308605883,
0.05668,1.534295633,0.05668,7.674036178,
0.0567,1.899725927,0.0567,7.674036178,
0.05672,0.8034350448,0.05672,7.308605883,
0.05674,-0.6582861319,0.05674,7.674036178,
0.05676,-2.850867897,0.05676,8.039466472,
0.05678,-2.485437603,0.05678,7.308605883,
0.0568,-3.581728485,0.0568,8.039466472,
0.05682,-6.505170839,0.05682,7.674036178,
0.05684,-5.77431025,0.05684,7.308605883,
0.05686,-5.043449662,0.05686,8.039466472,
0.05688,-7.966892015,0.05688,7.674036178,
0.0569,-7.966892015,0.0569,7.308605883,
0.05692,-7.966892015,0.05692,8.039466472,
0.05694,-7.601461721,0.05694,7.308605883,
0.05696,-7.966892015,0.05696,6.943175589,
0.05698,-7.601461721,0.05698,8.039466472,
0.057,-8.33232231,0.057,7.308605883,
0.05702,-9.428613192,0.05702,7.308605883,
0.05704,-6.870601133,0.05704,8.039466472,
0.05706,-8.697752604,0.05706,7.674036178,
0.05708,-5.77431025,0.05708,7.674036178,
0.0571,-3.947158779,0.0571,8.039466472,
0.05712,-3.581728485,0.05712,7.674036178,
0.05714,-2.850867897,0.05714,7.308605883,
0.05716,-3.947158779,0.05716,8.039466472,
0.05718,-1.754577014,0.05718,7.674036178,
0.0572,0.8034350448,0.0572,6.943175589,
0.05722,0.4380047506,0.05722,7.674036178,
0.05724,1.899725927,0.05724,7.308605883,
0.05726,4.457737986,0.05726,7.308605883,
0.05728,4.823168281,0.05728,8.039466472,
0.0573,5.554028869,0.0573,7.674036178,
0.05732,5.554028869,0.05732,6.943175589,
0.05734,7.015750046,0.05734,7.674036178,
0.05736,8.477471222,0.05736,8.404896766,
0.05738,5.554028869,0.05738,6.943175589,
0.0574,7.38118034,0.0574,7.674036178,
0.05742,7.38118034,0.05742,7.308605883,
0.05744,6.650319752,0.05744,7.308605883,
0.05746,6.650319752,0.05746,6.577745295,
0.05748,6.650319752,0.05748,7.308605883,
0.0575,5.919459163,0.0575,7.308605883,
0.05752,7.746610634,0.05752,8.039466472,
0.05754,5.554028869,0.05754,7.308605883,
0.05756,4.823168281,0.05756,9.501187648,
0.05758,7.015750046,0.05758,8.039466472,
0.0576,1.899725927,0.0576,7.674036178,
0.05762,1.899725927,0.05762,6.943175589,
0.05764,0.8034350448,0.05764,8.039466472,
0.05766,0.4380047506,0.05766,6.212315001,
0.05768,-1.38914672,0.05768,7.308605883,
0.0577,-2.120007309,0.0577,8.039466472,
0.05772,-3.581728485,0.05772,7.674036178,
0.05774,-3.581728485,0.05774,7.308605883,
0.05776,-3.581728485,0.05776,6.943175589,
0.05778,-5.77431025,0.05778,7.308605883,
0.0578,-6.505170839,0.0578,7.308605883,
0.05782,-8.697752604,0.05782,7.308605883,
0.05784,-7.966892015,0.05784,7.674036178,
0.05786,-7.966892015,0.05786,8.77032706,
0.05788,-6.505170839,0.05788,7.308605883,
0.0579,-7.966892015,0.0579,7.674036178,
0.05792,-7.236031427,0.05792,7.674036178,
0.05794,-6.139740544,0.05794,7.674036178,
0.05796,-9.063182898,0.05796,8.77032706,
0.05798,-8.33232231,0.05798,7.308605883,
0.058,-5.77431025,0.058,7.674036178,
0.05802,-5.408879956,0.05802,7.308605883,
0.05804,-5.77431025,0.05804,7.308605883,
0.05806,-3.947158779,0.05806,6.577745295,
0.05808,-4.312589074,0.05808,7.674036178,
0.0581,-0.6582861319,0.0581,7.674036178,
0.05812,1.168865339,0.05812,8.039466472,
0.05814,0.8034350448,0.05814,8.039466472,
0.05816,3.361447104,0.05816,7.308605883,
0.05818,3.726877398,0.05818,7.674036178,
0.0582,4.092307692,0.0582,7.674036178,
0.05822,4.823168281,0.05822,7.308605883,
0.05824,5.919459163,0.05824,7.674036178,
0.05826,6.284889457,0.05826,8.77032706,
0.05828,6.650319752,0.05828,7.674036178,
0.0583,7.746610634,0.0583,7.308605883,
0.05832,7.38118034,0.05832,7.674036178,
0.05834,7.38118034,0.05834,7.674036178,
0.05836,7.015750046,0.05836,7.308605883,
0.05838,7.38118034,0.05838,8.039466472,
0.0584,7.746610634,0.0584,7.674036178,
0.05842,7.38118034,0.05842,8.039466472,
0.05844,8.112040928,0.05844,8.039466472,
0.05846,8.477471222,0.05846,6.943175589,
0.05848,7.015750046,0.05848,8.039466472,
0.0585,4.823168281,0.0585,7.674036178,
