"A0_accX_x","A0_accX_y","A1_rmsX_x","A1_rmsX_y"
0,-7.230644984,0,8.404896766,
2e-05,-6.86521469,2e-05,8.404896766,
4e-05,-6.499784396,4e-05,8.77032706,
6e-05,-5.403493514,6e-05,8.404896766,
8e-05,-2.845481454,8e-05,8.039466472,
0.0001,-2.114620866,0.0001,8.404896766,
0.00012,-0.6528996894,0.00012,8.404896766,
0.00014,1.539682076,0.00014,8.039466472,
0.00016,5.559415312,0.00016,9.135757354,
0.00018,3.366833547,0.00018,8.039466472,
0.0002,4.463124429,0.0002,8.404896766,
0.00022,7.386566782,0.00022,8.77032706,
0.00024,7.021136488,0.00024,8.039466472,
0.00026,8.117427371,0.00026,8.404896766,
0.00028,7.021136488,0.00028,8.404896766,
0.0003,7.386566782,0.0003,8.039466472,
0.00032,7.751997077,0.00032,8.404896766,
0.00034,8.482857665,0.00034,8.404896766,
0.00036,6.655706194,0.00036,8.039466472,
0.00038,8.848287959,0.00038,8.039466472,
0.0004,8.482857665,0.0004,8.77032706,
0.00042,8.482857665,0.00042,8.404896766,
0.00044,7.751997077,0.00044,8.039466472,
0.00046,7.021136488,0.00046,9.135757354,
0.00048,8.482857665,0.00048,9.135757354,
0.0005,8.117427371,0.0005,8.404896766,
0.00052,4.463124429,0.00052,8.77032706,
0.00054,4.828554723,0.00054,8.404896766,
0.00056,2.270542664,0.00056,8.404896766,
0.00058,1.90511237,0.00058,8.77032706,
0.0006,-1.018329984,0.0006,8.404896766,
0.00062,-2.48005116,0.00062,8.039466472,
0.00064,-3.210911749,0.00064,8.77032706,
0.00066,-5.038063219,0.00066,8.039466472,
0.00068,-5.403493514,0.00068,8.039466472,
0.0007,-7.230644984,0.0007,8.77032706,
0.00072,-6.86521469,0.00072,8.404896766,
0.00074,-7.961505573,0.00074,8.404896766,
0.00076,-8.326935867,0.00076,8.77032706,
0.00078,-10.88494793,0.00078,8.039466472,
0.0008,-9.057796455,0.0008,8.039466472,
0.00082,-9.423226749,0.00082,9.135757354,
0.00084,-10.15408734,0.00084,8.404896766,
0.00086,-9.423226749,0.00086,8.404896766,
0.00088,-9.423226749,0.00088,9.135757354,
0.0009,-8.692366161,0.0009,8.039466472,
0.00092,-7.961505573,0.00092,8.404896766,
0.00094,-6.499784396,0.00094,8.77032706,
0.00096,-5.403493514,0.00096,9.135757354,
0.00098,-5.038063219,0.00098,7.674036178,
0.001,-3.210911749,0.001,9.135757354,
0.00102,-3.576342043,0.00102,8.039466472,
0.00104,-0.6528996894,0.00104,8.404896766,
0.00106,0.07796089896,0.00106,8.404896766,
0.00108,1.90511237,0.00108,8.039466472,
0.0011,2.270542664,0.0011,8.404896766,
0.00112,4.097694135,0.00112,8.77032706,
0.00114,5.559415312,0.00114,8.404896766,
0.00116,7.021136488,0.00116,8.404896766,
0.00118,5.924845606,0.00118,8.404896766,
0.0012,7.386566782,0.0012,8.404896766,
0.00122,9.213718253,0.00122,8.77032706,
0.00124,7.386566782,0.00124,8.77032706,
0.00126,8.482857665,0.00126,8.404896766,
0.00128,7.751997077,0.00128,8.77032706,
0.0013,7.751997077,0.0013,8.404896766,
0.00132,5.924845606,0.00132,8.404896766,
0.00134,8.117427371,0.00134,8.039466472,
0.00136,8.117427371,0.00136,9.135757354,
0.00138,7.751997077,0.00138,8.039466472,
0.0014,8.482857665,0.0014,9.135757354,
0.00142,7.386566782,0.00142,8.77032706,
0.00144,6.2902759,0.00144,8.404896766,
0.00146,4.828554723,0.00146,8.404896766,
0.00148,-0.2874693952,0.00148,8.404896766,
0.0015,3.366833547,0.0015,8.404896766,
0.00152,0.8088214873,0.00152,9.135757354,
0.00154,-1.018329984,0.00154,8.404896766,
0.00156,-2.48005116,0.00156,8.404896766,
0.00158,-2.845481454,0.00158,8.404896766,
0.0016,-5.038063219,0.0016,8.404896766,
0.00162,-5.768923808,0.00162,8.404896766,
0.00164,-7.961505573,0.00164,8.77032706,
0.00166,-7.596075279,0.00166,8.77032706,
0.00168,-7.961505573,0.00168,8.404896766,
0.0017,-9.423226749,0.0017,8.404896766,
0.00172,-9.788657044,0.00172,8.404896766,
0.00174,-9.057796455,0.00174,8.404896766,
0.00176,-9.057796455,0.00176,9.135757354,
0.00178,-9.788657044,0.00178,8.404896766,
0.0018,-10.51951763,0.0018,8.039466472,
0.00182,-8.692366161,0.00182,8.404896766,
0.00184,-8.326935867,0.00184,8.404896766,
0.00186,-9.057796455,0.00186,8.404896766,
0.00188,-6.86521469,0.00188,8.77032706,
0.0019,-6.134354102,0.0019,8.404896766,
0.00192,-4.672632925,0.00192,8.039466472,
0.00194,-5.403493514,0.00194,8.039466472,
0.00196,-2.114620866,0.00196,8.039466472,
0.00198,-1.018329984,0.00198,8.404896766,
0.002,1.174251781,0.002,8.77032706,
0.00202,2.635972958,0.00202,9.135757354,
0.00204,4.097694135,0.00204,8.404896766,
0.00206,5.193985017,0.00206,8.404896766,
0.00208,7.386566782,0.00208,8.404896766,
0.0021,7.386566782,0.0021,7.674036178,
0.00212,6.655706194,0.00212,8.039466472,
0.00214,8.482857665,0.00214,8.404896766,
0.00216,5.924845606,0.00216,8.404896766,
0.00218,8.117427371,0.00218,8.77032706,
0.0022,7.021136488,0.0022,9.135757354,
0.00222,7.751997077,0.00222,8.77032706,
0.00224,7.751997077,0.00224,8.039466472,
0.00226,7.021136488,0.00226,8.404896766,
0.00228,8.482857665,0.00228,8.039466472,
0.0023,8.848287959,0.0023,8.77032706,
0.00232,8.117427371,0.00232,8.039466472,
0.00234,7.386566782,0.00234,7.674036178,
0.00236,8.482857665,0.00236,8.404896766,
0.00238,5.924845606,0.00238,8.404896766,
0.0024,3.366833547,0.0024,6.943175589,
0.00242,3.001403252,0.00242,8.404896766,
0.00244,2.270542664,0.00244,8.77032706,
0.00246,0.4433911931,0.00246,7.674036178,
0.00248,-0.2874693952,0.00248,8.404896766,
0.0025,-2.48005116,0.0025,8.404896766,
0.00252,-4.672632925,0.00252,8.039466472,
0.00254,-5.038063219,0.00254,8.404896766,
0.00256,-5.403493514,0.00256,8.404896766,
0.00258,-7.596075279,0.00258,8.039466472,
0.0026,-9.423226749,0.0026,9.501187648,
0.00262,-7.596075279,0.00262,8.77032706,
0.00264,-8.692366161,0.00264,7.674036178,
0.00266,-10.51951763,0.00266,8.039466472,
0.00268,-9.423226749,0.00268,8.404896766,
0.0027,-9.788657044,0.0027,8.039466472,
0.00272,-10.15408734,0.00272,8.77032706,
0.00274,-7.961505573,0.00274,8.039466472,
0.00276,-8.326935867,0.00276,8.039466472,
0.00278,-7.596075279,0.00278,8.404896766,
0.0028,-7.230644984,0.0028,7.674036178,
0.00282,-5.768923808,0.00282,7.674036178,
0.00284,-5.038063219,0.00284,8.404896766,
0.00286,-3.576342043,0.00286,8.404896766,
0.00288,-2.48005116,0.00288,8.039466472,
0.0029,-3.210911749,0.0029,9.501187648,
0.00292,0.4433911931,0.00292,8.039466472,
0.00294,2.270542664,0.00294,8.77032706,
0.00296,3.001403252,0.00296,8.039466472,
0.00298,4.097694135,0.00298,8.039466472,
0.003,5.559415312,0.003,7.674036178,
0.00302,6.655706194,0.00302,8.404896766,
0.00304,7.386566782,0.00304,8.039466472,
0.00306,7.751997077,0.00306,8.77032706,
0.00308,7.751997077,0.00308,8.404896766,
0.0031,7.386566782,0.0031,7.674036178,
0.00312,6.2902759,0.00312,8.039466472,
0.00314,8.117427371,0.00314,8.404896766,
0.00316,7.751997077,0.00316,8.404896766,
0.00318,7.751997077,0.00318,8.404896766,
0.0032,8.117427371,0.0032,7.674036178,
0.00322,6.655706194,0.00322,8.039466472,
0.00324,7.386566782,0.00324,8.039466472,
0.00326,8.482857665,0.00326,8.039466472,
0.00328,8.848287959,0.00328,8.404896766,
0.0033,7.751997077,0.0033,8.039466472,
0.00332,3.732263841,0.00332,8.404896766,
0.00334,2.270542664,0.00334,8.404896766,
0.00336,1.90511237,0.00336,7.674036178,
0.00338,0.8088214873,0.00338,7.674036178,
0.0034,-0.2874693952,0.0034,8.404896766,
0.00342,1.539682076,0.00342,7.674036178,
0.00344,-2.48005116,0.00344,8.77032706,
0.00346,-2.114620866,0.00346,8.404896766,
0.00348,-6.134354102,0.00348,8.039466472,
0.0035,-5.768923808,0.0035,8.039466472,
0.00352,-6.86521469,0.00352,8.404896766,
0.00354,-8.692366161,0.00354,8.404896766,
0.00356,-8.692366161,0.00356,8.404896766,
0.00358,-9.057796455,0.00358,8.039466472,
0.0036,-9.423226749,0.0036,7.674036178,
0.00362,-9.423226749,0.00362,8.404896766,
0.00364,-9.788657044,0.00364,8.404896766,
0.00366,-9.788657044,0.00366,7.674036178,
0.00368,-7.961505573,0.00368,8.404896766,
0.0037,-7.961505573,0.0037,8.404896766,
0.00372,-9.788657044,0.00372,8.039466472,
0.00374,-6.499784396,0.00374,8.404896766,
0.00376,-5.403493514,0.00376,8.77032706,
0.00378,-4.307202631,0.00378,7.674036178,
0.0038,-3.941772337,0.0038,8.77032706,
0.00382,-2.114620866,0.00382,8.039466472,
0.00384,-0.6528996894,0.00384,7.308605883,
0.00386,0.4433911931,0.00386,8.404896766,
0.00388,1.174251781,0.00388,8.404896766,
0.0039,3.001403252,0.0039,8.039466472,
0.00392,4.828554723,0.00392,8.039466472,
0.00394,4.463124429,0.00394,8.039466472,
0.00396,6.655706194,0.00396,7.674036178,
0.00398,8.117427371,0.00398,8.77032706,
0.004,8.482857665,0.004,8.77032706,
0.00402,7.021136488,0.00402,7.674036178,
0.00404,8.117427371,0.00404,8.404896766,
0.00406,8.117427371,0.00406,8.039466472,
0.00408,8.848287959,0.00408,8.039466472,
0.0041,7.751997077,0.0041,8.404896766,
0.00412,8.482857665,0.00412,8.039466472,
0.00414,7.751997077,0.00414,7.674036178,
0.00416,6.655706194,0.00416,8.404896766,
0.00418,8.117427371,0.00418,8.404896766,
0.0042,8.117427371,0.0042,8.039466472,
0.00422,9.944578842,0.00422,8.77032706,
0.00424,6.2902759,0.00424,8.404896766,
0.00426,5.193985017,0.00426,8.039466472,
0.00428,4.097694135,0.00428,8.039466472,
0.0043,1.539682076,0.0043,8.77032706,
0.00432,-1.383760278,0.00432,7.674036178,
0.00434,-0.6528996894,0.00434,8.404896766,
0.00436,-1.383760278,0.00436,8.039466472,
0.00438,-4.672632925,0.00438,7.674036178,
0.0044,-6.134354102,0.0044,8.404896766,
0.00442,-6.134354102,0.00442,8.404896766,
0.00444,-7.596075279,0.00444,8.039466472,
0.00446,-7.230644984,0.00446,8.404896766,
0.00448,-7.961505573,0.00448,8.77032706,
0.0045,-9.423226749,0.0045,8.039466472,
0.00452,-8.326935867,0.00452,8.404896766,
0.00454,-9.423226749,0.00454,8.039466472,
0.00456,-10.15408734,0.00456,7.674036178,
0.00458,-9.788657044,0.00458,8.039466472,
0.0046,-9.057796455,0.0046,8.77032706,
0.00462,-8.326935867,0.00462,7.674036178,
0.00464,-9.057796455,0.00464,8.404896766,
0.00466,-6.134354102,0.00466,8.404896766,
0.00468,-5.038063219,0.00468,7.674036178,
0.0047,-4.307202631,0.0047,8.404896766,
0.00472,-0.6528996894,0.00472,8.404896766,
0.00474,-5.038063219,0.00474,7.674036178,
0.00476,-2.114620866,0.00476,8.77032706,
0.00478,-0.2874693952,0.00478,8.039466472,
0.0048,1.174251781,0.0048,7.674036178,
0.00482,1.90511237,0.00482,8.404896766,
0.00484,3.732263841,0.00484,8.404896766,
0.00486,4.828554723,0.00486,7.674036178,
0.00488,5.924845606,0.00488,8.77032706,
0.0049,6.2902759,0.0049,8.404896766,
0.00492,8.482857665,0.00492,8.039466472,
0.00494,8.482857665,0.00494,8.404896766,
0.00496,7.021136488,0.00496,8.404896766,
0.00498,8.117427371,0.00498,8.039466472,
0.005,8.117427371,0.005,8.77032706,
0.00502,6.655706194,0.00502,8.404896766,
0.00504,7.751997077,0.00504,8.039466472,
0.00506,8.117427371,0.00506,8.77032706,
0.00508,6.2902759,0.00508,8.404896766,
0.0051,7.021136488,0.0051,8.404896766,
0.00512,6.655706194,0.00512,8.404896766,
0.00514,7.386566782,0.00514,8.404896766,
0.00516,7.386566782,0.00516,8.404896766,
0.00518,5.559415312,0.00518,8.77032706,
0.0052,4.097694135,0.0052,8.404896766,
0.00522,3.001403252,0.00522,7.308605883,
0.00524,0.8088214873,0.00524,8.404896766,
0.00526,-1.749190572,0.00526,8.404896766,
0.00528,-0.2874693952,0.00528,8.039466472,
0.0053,-2.48005116,0.0053,8.77032706,
0.00532,-4.307202631,0.00532,8.404896766,
0.00534,-5.038063219,0.00534,8.039466472,
0.00536,-6.499784396,0.00536,8.77032706,
0.00538,-8.326935867,0.00538,8.404896766,
0.0054,-6.86521469,0.0054,8.404896766,
0.00542,-7.961505573,0.00542,8.77032706,
0.00544,-9.423226749,0.00544,8.039466472,
0.00546,-9.423226749,0.00546,8.039466472,
0.00548,-11.61580851,0.00548,8.404896766,
0.0055,-9.788657044,0.0055,8.039466472,
0.00552,-11.25037822,0.00552,7.674036178,
0.00554,-9.423226749,0.00554,9.135757354,
0.00556,-9.423226749,0.00556,8.404896766,
0.00558,-6.499784396,0.00558,8.404896766,
0.0056,-7.230644984,0.0056,9.501187648,
0.00562,-8.692366161,0.00562,8.404896766,
0.00564,-5.768923808,0.00564,8.039466472,
0.00566,-4.307202631,0.00566,8.77032706,
0.00568,-2.845481454,0.00568,8.039466472,
0.0057,-1.749190572,0.0057,8.039466472,
0.00572,-1.018329984,0.00572,8.77032706,
0.00574,0.8088214873,0.00574,8.404896766,
0.00576,2.270542664,0.00576,8.404896766,
0.00578,4.463124429,0.00578,8.404896766,
0.0058,5.193985017,0.0058,8.77032706,
0.00582,6.2902759,0.00582,8.039466472,
0.00584,7.021136488,0.00584,8.404896766,
0.00586,6.655706194,0.00586,8.039466472,
0.00588,7.021136488,0.00588,8.039466472,
0.0059,7.751997077,0.0059,9.135757354,
0.00592,7.021136488,0.00592,8.404896766,
0.00594,7.386566782,0.00594,7.674036178,
0.00596,7.386566782,0.00596,8.77032706,
0.00598,5.924845606,0.00598,8.77032706,
0.006,7.386566782,0.006,7.674036178,
0.00602,7.021136488,0.00602,9.135757354,
0.00604,6.2902759,0.00604,8.404896766,
0.00606,7.386566782,0.00606,8.039466472,
0.00608,7.751997077,0.00608,9.135757354,
0.0061,8.482857665,0.0061,8.404896766,
0.00612,3.732263841,0.00612,8.039466472,
0.00614,3.001403252,0.00614,8.77032706,
0.00616,1.90511237,0.00616,8.404896766,
0.00618,-0.2874693952,0.00618,7.674036178,
0.0062,0.8088214873,0.0062,8.77032706,
0.00622,-1.749190572,0.00622,7.674036178,
0.00624,-3.576342043,0.00624,8.404896766,
0.00626,-3.941772337,0.00626,8.77032706,
0.00628,-6.134354102,0.00628,8.77032706,
0.0063,-6.134354102,0.0063,8.404896766,
0.00632,-6.499784396,0.00632,9.501187648,
0.00634,-8.692366161,0.00634,8.404896766,
0.00636,-8.326935867,0.00636,8.039466472,
0.00638,-9.423226749,0.00638,9.135757354,
0.0064,-9.788657044,0.0064,8.404896766,
0.00642,-10.51951763,0.00642,7.308605883,
0.00644,-11.61580851,0.00644,8.77032706,
0.00646,-9.788657044,0.00646,8.404896766,
0.00648,-8.692366161,0.00648,8.404896766,
0.0065,-7.961505573,0.0065,8.77032706,
0.00652,-8.326935867,0.00652,8.404896766,
0.00654,-7.230644984,0.00654,8.404896766,
0.00656,-4.307202631,0.00656,9.135757354,
0.00658,-6.499784396,0.00658,8.404896766,
0.0066,-1.383760278,0.0066,8.039466472,
0.00662,-2.48005116,0.00662,10.23204824,
0.00664,-1.749190572,0.00664,8.404896766,
0.00666,0.8088214873,0.00666,7.674036178,
0.00668,2.270542664,0.00668,8.404896766,
0.0067,3.001403252,0.0067,8.039466472,
0.00672,4.097694135,0.00672,7.674036178,
0.00674,5.559415312,0.00674,8.404896766,
0.00676,6.2902759,0.00676,8.039466472,
0.00678,8.117427371,0.00678,8.77032706,
0.0068,6.655706194,0.0068,8.404896766,
0.00682,8.117427371,0.00682,6.943175589,
0.00684,9.213718253,0.00684,9.501187648,
0.00686,7.021136488,0.00686,8.404896766,
0.00688,7.386566782,0.00688,8.77032706,
0.0069,8.117427371,0.0069,8.77032706,
0.00692,7.021136488,0.00692,9.501187648,
0.00694,8.848287959,0.00694,8.404896766,
0.00696,7.751997077,0.00696,8.77032706,
0.00698,6.655706194,0.00698,8.404896766,
0.007,8.117427371,0.007,8.404896766,
0.00702,7.751997077,0.00702,9.135757354,
0.00704,5.193985017,0.00704,8.77032706,
0.00706,5.924845606,0.00706,8.404896766,
0.00708,3.366833547,0.00708,8.404896766,
0.0071,1.90511237,0.0071,8.404896766,
0.00712,-1.383760278,0.00712,7.308605883,
0.00714,-1.383760278,0.00714,8.039466472,
0.00716,-1.383760278,0.00716,8.77032706,
0.00718,-3.576342043,0.00718,8.039466472,
0.0072,-5.403493514,0.0072,8.404896766,
0.00722,-5.403493514,0.00722,8.039466472,
0.00724,-5.038063219,0.00724,8.404896766,
0.00726,-7.961505573,0.00726,8.404896766,
0.00728,-9.057796455,0.00728,8.77032706,
0.0073,-7.961505573,0.0073,8.039466472,
0.00732,-9.057796455,0.00732,9.501187648,
0.00734,-9.423226749,0.00734,8.039466472,
0.00736,-9.423226749,0.00736,8.404896766,
0.00738,-9.423226749,0.00738,8.404896766,
0.0074,-9.788657044,0.0074,8.039466472,
0.00742,-8.326935867,0.00742,9.866617943,
0.00744,-8.326935867,0.00744,8.039466472,
0.00746,-5.038063219,0.00746,8.404896766,
0.00748,-6.499784396,0.00748,8.77032706,
0.0075,-5.038063219,0.0075,8.039466472,
0.00752,-4.672632925,0.00752,7.674036178,
0.00754,-3.941772337,0.00754,8.77032706,
0.00756,0.07796089896,0.00756,8.039466472,
0.00758,-0.6528996894,0.00758,7.674036178,
0.0076,2.270542664,0.0076,8.77032706,
0.00762,2.270542664,0.00762,7.674036178,
0.00764,3.366833547,0.00764,8.404896766,
0.00766,4.828554723,0.00766,9.135757354,
0.00768,5.924845606,0.00768,8.404896766,
0.0077,7.751997077,0.0077,8.404896766,
0.00772,7.021136488,0.00772,8.039466472,
0.00774,8.117427371,0.00774,8.039466472,
0.00776,6.655706194,0.00776,9.135757354,
0.00778,7.751997077,0.00778,8.404896766,
0.0078,8.117427371,0.0078,8.404896766,
0.00782,10.67543943,0.00782,9.501187648,
0.00784,5.193985017,0.00784,8.404896766,
0.00786,8.482857665,0.00786,8.039466472,
0.00788,8.117427371,0.00788,8.404896766,
0.0079,7.386566782,0.0079,8.404896766,
0.00792,7.751997077,0.00792,8.77032706,
0.00794,5.559415312,0.00794,8.404896766,
0.00796,6.2902759,0.00796,8.404896766,
0.00798,5.559415312,0.00798,8.404896766,
0.008,4.463124429,0.008,8.77032706,
0.00802,2.635972958,0.00802,8.039466472,
0.00804,0.8088214873,0.00804,8.039466472,
0.00806,-1.383760278,0.00806,8.77032706,
0.00808,-1.383760278,0.00808,8.404896766,
0.0081,-0.6528996894,0.0081,8.039466472,
0.00812,-3.576342043,0.00812,8.039466472,
0.00814,-4.672632925,0.00814,8.404896766,
0.00816,-7.230644984,0.00816,8.039466472,
0.00818,-6.499784396,0.00818,8.77032706,
0.0082,-7.961505573,0.0082,8.039466472,
0.00822,-8.692366161,0.00822,8.404896766,
0.00824,-7.961505573,0.00824,8.77032706,
0.00826,-9.788657044,0.00826,8.039466472,
0.00828,-10.15408734,0.00828,8.404896766,
0.0083,-9.423226749,0.0083,9.135757354,
0.00832,-10.15408734,0.00832,8.404896766,
0.00834,-9.423226749,0.00834,8.039466472,
0.00836,-7.961505573,0.00836,8.77032706,
0.00838,-7.596075279,0.00838,8.404896766,
0.0084,-6.86521469,0.0084,8.039466472,
0.00842,-5.768923808,0.00842,9.135757354,
0.00844,-4.672632925,0.00844,8.404896766,
0.00846,-3.576342043,0.00846,8.039466472,
0.00848,-2.845481454,0.00848,8.77032706,
0.0085,-1.018329984,0.0085,8.404896766,
0.00852,0.4433911931,0.00852,8.404896766,
0.00854,0.8088214873,0.00854,9.135757354,
0.00856,3.366833547,0.00856,8.039466472,
0.00858,4.463124429,0.00858,8.77032706,
0.0086,6.655706194,0.0086,8.77032706,
0.00862,6.655706194,0.00862,8.404896766,
0.00864,7.386566782,0.00864,8.404896766,
0.00866,6.2902759,0.00866,9.135757354,
0.00868,7.021136488,0.00868,8.404896766,
0.0087,7.751997077,0.0087,8.404896766,
0.00872,9.213718253,0.00872,8.77032706,
0.00874,7.386566782,0.00874,8.404896766,
0.00876,7.386566782,0.00876,8.404896766,
0.00878,7.751997077,0.00878,8.77032706,
0.0088,7.386566782,0.0088,8.77032706,
0.00882,8.482857665,0.00882,8.404896766,
0.00884,8.482857665,0.00884,9.135757354,
0.00886,7.751997077,0.00886,8.404896766,
0.00888,8.482857665,0.00888,8.039466472,
0.0089,5.924845606,0.0089,8.77032706,
0.00892,4.828554723,0.00892,8.404896766,
0.00894,2.635972958,0.00894,8.039466472,
0.00896,4.097694135,0.00896,9.135757354,
0.00898,-0.2874693952,0.00898,8.404896766,
0.009,-1.749190572,0.009,8.039466472,
0.00902,-2.845481454,0.00902,9.135757354,
0.00904,-3.576342043,0.00904,8.404896766,
0.00906,-5.038063219,0.00906,8.404896766,
0.00908,-5.768923808,0.00908,8.77032706,
0.0091,-8.326935867,0.0091,8.404896766,
0.00912,-8.326935867,0.00912,8.039466472,
0.00914,-7.961505573,0.00914,9.501187648,
0.00916,-9.423226749,0.00916,8.404896766,
0.00918,-11.61580851,0.00918,8.039466472,
0.0092,-10.15408734,0.0092,9.501187648,
0.00922,-10.88494793,0.00922,8.404896766,
0.00924,-10.15408734,0.00924,8.039466472,
0.00926,-10.15408734,0.00926,8.77032706,
0.00928,-9.057796455,0.00928,8.404896766,
0.0093,-7.961505573,0.0093,8.404896766,
0.00932,-6.86521469,0.00932,8.77032706,
0.00934,-6.499784396,0.00934,8.77032706,
0.00936,-6.134354102,0.00936,8.039466472,
0.00938,-5.038063219,0.00938,9.135757354,
0.0094,-3.941772337,0.0094,8.039466472,
0.00942,-1.018329984,0.00942,8.404896766,
0.00944,-0.6528996894,0.00944,9.135757354,
0.00946,0.8088214873,0.00946,8.404896766,
0.00948,1.90511237,0.00948,8.77032706,
0.0095,3.366833547,0.0095,8.77032706,
0.00952,4.828554723,0.00952,8.404896766,
0.00954,5.193985017,0.00954,8.039466472,
0.00956,6.655706194,0.00956,9.135757354,
0.00958,7.021136488,0.00958,8.77032706,
0.0096,7.021136488,0.0096,8.039466472,
0.00962,7.751997077,0.00962,8.404896766,
0.00964,7.021136488,0.00964,8.77032706,
0.00966,5.559415312,0.00966,8.404896766,
0.00968,8.482857665,0.00968,9.135757354,
0.0097,7.751997077,0.0097,8.404896766,
0.00972,8.848287959,0.00972,8.404896766,
0.00974,8.117427371,0.00974,8.404896766,
0.00976,7.751997077,0.00976,8.77032706,
0.00978,8.117427371,0.00978,8.039466472,
0.0098,8.117427371,0.0098,8.404896766,
0.00982,7.021136488,0.00982,8.404896766,
0.00984,5.193985017,0.00984,8.039466472,
0.00986,4.828554723,0.00986,8.77032706,
0.00988,1.90511237,0.00988,8.77032706,
0.0099,1.90511237,0.0099,8.404896766,
0.00992,0.8088214873,0.00992,8.404896766,
0.00994,-1.383760278,0.00994,8.404896766,
0.00996,-2.48005116,0.00996,8.039466472,
0.00998,-2.845481454,0.00998,8.77032706,
0.01,-5.038063219,0.01,8.404896766,
0.01002,-4.307202631,0.01002,8.404896766,
0.01004,-6.499784396,0.01004,9.135757354,
0.01006,-6.499784396,0.01006,8.404896766,
0.01008,-7.961505573,0.01008,8.404896766,
0.0101,-6.86521469,0.0101,9.135757354,
0.01012,-9.788657044,0.01012,8.77032706,
0.01014,-10.51951763,0.01014,8.77032706,
0.01016,-8.692366161,0.01016,8.77032706,
0.01018,-9.788657044,0.01018,8.77032706,
0.0102,-9.788657044,0.0102,8.404896766,
0.01022,-8.326935867,0.01022,8.77032706,
0.01024,-8.326935867,0.01024,8.039466472,
0.01026,-7.230644984,0.01026,8.404896766,
0.01028,-6.134354102,0.01028,8.404896766,
0.0103,-5.403493514,0.0103,8.77032706,
0.01032,-3.576342043,0.01032,8.404896766,
0.01034,-2.48005116,0.01034,8.039466472,
0.01036,-2.845481454,0.01036,8.77032706,
0.01038,0.4433911931,0.01038,8.404896766,
0.0104,2.270542664,0.0104,8.77032706,
0.01042,3.001403252,0.01042,8.404896766,
0.01044,3.732263841,0.01044,8.77032706,
0.01046,5.559415312,0.01046,8.77032706,
0.01048,5.924845606,0.01048,8.404896766,
0.0105,7.386566782,0.0105,8.404896766,
0.01052,8.848287959,0.01052,8.404896766,
0.01054,7.386566782,0.01054,8.404896766,
0.01056,8.117427371,0.01056,8.039466472,
0.01058,8.117427371,0.01058,8.77032706,
0.0106,6.655706194,0.0106,8.404896766,
0.01062,7.751997077,0.01062,8.039466472,
0.01064,8.117427371,0.01064,7.674036178,
0.01066,8.117427371,0.01066,8.039466472,
0.01068,8.117427371,0.01068,8.039466472,
0.0107,7.751997077,0.0107,9.135757354,
0.01072,7.751997077,0.01072,9.135757354,
0.01074,7.386566782,0.01074,7.674036178,
0.01076,7.386566782,0.01076,8.77032706,
0.01078,3.732263841,0.01078,8.404896766,
0.0108,2.635972958,0.0108,8.404896766,
0.01082,3.366833547,0.01082,8.404896766,
0.01084,0.4433911931,0.01084,7.674036178,
0.01086,0.07796089896,0.01086,8.404896766,
0.01088,-1.018329984,0.01088,8.77032706,
0.0109,-0.6528996894,0.0109,8.404896766,
0.01092,-4.307202631,0.01092,8.404896766,
0.01094,-5.403493514,0.01094,9.135757354,
0.01096,-5.768923808,0.01096,8.404896766,
0.01098,-6.86521469,0.01098,9.135757354,
0.011,-7.596075279,0.011,8.77032706,
0.01102,-9.057796455,0.01102,8.77032706,
0.01104,-9.423226749,0.01104,9.501187648,
0.01106,-9.423226749,0.01106,8.77032706,
0.01108,-10.51951763,0.01108,8.77032706,
0.0111,-9.788657044,0.0111,8.404896766,
0.01112,-9.057796455,0.01112,8.404896766,
0.01114,-9.788657044,0.01114,7.674036178,
0.01116,-8.692366161,0.01116,8.039466472,
0.01118,-7.961505573,0.01118,8.77032706,
0.0112,-10.51951763,0.0112,8.77032706,
0.01122,-4.307202631,0.01122,8.039466472,
0.01124,-4.672632925,0.01124,7.674036178,
0.01126,-2.845481454,0.01126,8.77032706,
0.01128,-2.114620866,0.01128,8.404896766,
0.0113,-0.2874693952,0.0113,8.77032706,
0.01132,-1.383760278,0.01132,8.77032706,
0.01134,1.90511237,0.01134,7.674036178,
0.01136,3.732263841,0.01136,8.404896766,
0.01138,1.174251781,0.01138,8.77032706,
0.0114,4.463124429,0.0114,8.404896766,
0.01142,7.751997077,0.01142,8.77032706,
0.01144,6.655706194,0.01144,8.039466472,
0.01146,7.021136488,0.01146,8.039466472,
0.01148,8.482857665,0.01148,8.039466472,
0.0115,8.117427371,0.0115,8.77032706,
0.01152,7.751997077,0.01152,8.039466472,
0.01154,8.848287959,0.01154,8.039466472,
0.01156,7.751997077,0.01156,8.77032706,
0.01158,8.482857665,0.01158,8.039466472,
0.0116,7.751997077,0.0116,8.039466472,
0.01162,8.482857665,0.01162,8.404896766,
0.01164,7.751997077,0.01164,8.77032706,
0.01166,8.848287959,0.01166,7.674036178,
0.01168,8.482857665,0.01168,8.404896766,
0.0117,6.2902759,0.0117,8.77032706,
0.01172,4.828554723,0.01172,7.674036178,
0.01174,3.732263841,0.01174,8.039466472,
0.01176,2.635972958,0.01176,8.404896766,
0.01178,0.4433911931,0.01178,7.674036178,
0.0118,-0.2874693952,0.0118,8.404896766,
0.01182,-2.114620866,0.01182,8.404896766,
0.01184,-3.576342043,0.01184,7.308605883,
0.01186,-2.48005116,0.01186,8.404896766,
0.01188,-5.768923808,0.01188,8.039466472,
0.0119,-6.86521469,0.0119,7.674036178,
0.01192,-6.86521469,0.01192,8.404896766,
0.01194,-7.596075279,0.01194,7.674036178,
0.01196,-9.788657044,0.01196,7.674036178,
0.01198,-9.423226749,0.01198,8.039466472,
0.012,-8.692366161,0.012,8.77032706,
0.01202,-9.788657044,0.01202,7.308605883,
0.01204,-8.692366161,0.01204,8.039466472,
0.01206,-9.423226749,0.01206,8.404896766,
0.01208,-8.326935867,0.01208,8.039466472,
0.0121,-8.692366161,0.0121,8.039466472,
0.01212,-7.230644984,0.01212,8.039466472,
0.01214,-7.230644984,0.01214,7.674036178,
0.01216,-7.596075279,0.01216,8.404896766,
0.01218,-3.941772337,0.01218,8.404896766,
0.0122,-2.845481454,0.0122,8.404896766,
0.01222,-1.383760278,0.01222,8.77032706,
0.01224,0.4433911931,0.01224,9.135757354,
0.01226,0.4433911931,0.01226,8.404896766,
0.01228,2.270542664,0.01228,8.039466472,
0.0123,4.097694135,0.0123,9.135757354,
0.01232,4.097694135,0.01232,8.404896766,
0.01234,5.924845606,0.01234,9.135757354,
0.01236,7.386566782,0.01236,8.77032706,
0.01238,8.482857665,0.01238,8.404896766,
0.0124,7.021136488,0.0124,8.404896766,
0.01242,8.117427371,0.01242,7.674036178,
0.01244,6.655706194,0.01244,9.135757354,
0.01246,8.117427371,0.01246,8.77032706,
0.01248,8.117427371,0.01248,8.77032706,
0.0125,8.117427371,0.0125,8.404896766,
0.01252,7.751997077,0.01252,8.77032706,
0.01254,8.117427371,0.01254,8.404896766,
0.01256,9.213718253,0.01256,8.039466472,
0.01258,8.848287959,0.01258,9.501187648,
0.0126,8.117427371,0.0126,8.039466472,
0.01262,7.751997077,0.01262,8.039466472,
0.01264,5.924845606,0.01264,8.404896766,
0.01266,4.828554723,0.01266,8.039466472,
0.01268,3.001403252,0.01268,8.039466472,
0.0127,1.539682076,0.0127,8.77032706,
0.01272,-0.2874693952,0.01272,8.404896766,
0.01274,-2.114620866,0.01274,8.039466472,
0.01276,-2.845481454,0.01276,8.77032706,
0.01278,-5.038063219,0.01278,8.404896766,
0.0128,-4.672632925,0.0128,8.404896766,
0.01282,-5.403493514,0.01282,8.77032706,
0.01284,-7.230644984,0.01284,8.404896766,
0.01286,-9.423226749,0.01286,8.404896766,
0.01288,-8.326935867,0.01288,8.404896766,
0.0129,-9.423226749,0.0129,8.404896766,
0.01292,-9.788657044,0.01292,8.404896766,
0.01294,-10.51951763,0.01294,9.135757354,
0.01296,-8.692366161,0.01296,8.039466472,
0.01298,-10.88494793,0.01298,8.039466472,
0.013,-9.057796455,0.013,8.77032706,
0.01302,-9.057796455,0.01302,8.039466472,
0.01304,-7.230644984,0.01304,8.039466472,
0.01306,-6.499784396,0.01306,8.77032706,
0.01308,-6.134354102,0.01308,8.404896766,
0.0131,-5.768923808,0.0131,8.039466472,
0.01312,-3.941772337,0.01312,9.135757354,
0.01314,-2.114620866,0.01314,8.039466472,
0.01316,-1.749190572,0.01316,7.674036178,
0.01318,0.4433911931,0.01318,8.77032706,
0.0132,1.174251781,0.0132,8.039466472,
0.01322,3.001403252,0.01322,8.404896766,
0.01324,4.097694135,0.01324,8.77032706,
0.01326,5.924845606,0.01326,7.308605883,
0.01328,6.2902759,0.01328,8.039466472,
0.0133,7.021136488,0.0133,9.135757354,
0.01332,7.386566782,0.01332,8.404896766,
0.01334,6.655706194,0.01334,8.039466472,
0.01336,7.386566782,0.01336,8.404896766,
0.01338,7.751997077,0.01338,8.404896766,
0.0134,7.386566782,0.0134,8.039466472,
0.01342,7.021136488,0.01342,8.77032706,
0.01344,8.482857665,0.01344,8.404896766,
0.01346,9.944578842,0.01346,8.404896766,
0.01348,9.213718253,0.01348,8.404896766,
0.0135,9.579148547,0.0135,8.77032706,
0.01352,8.482857665,0.01352,8.77032706,
0.01354,8.117427371,0.01354,9.135757354,
0.01356,9.213718253,0.01356,8.77032706,
0.01358,5.559415312,0.01358,8.404896766,
0.0136,3.732263841,0.0136,8.404896766,
0.01362,2.270542664,0.01362,8.404896766,
0.01364,-1.018329984,0.01364,8.404896766,
0.01366,1.174251781,0.01366,8.404896766,
0.01368,-1.383760278,0.01368,8.404896766,
0.0137,-2.845481454,0.0137,8.404896766,
0.01372,-3.210911749,0.01372,8.404896766,
0.01374,-3.576342043,0.01374,8.404896766,
0.01376,-8.692366161,0.01376,8.404896766,
0.01378,-6.499784396,0.01378,8.77032706,
0.0138,-8.692366161,0.0138,8.404896766,
0.01382,-6.499784396,0.01382,8.404896766,
0.01384,-8.692366161,0.01384,8.404896766,
0.01386,-12.7120994,0.01386,8.404896766,
0.01388,-7.961505573,0.01388,8.039466472,
0.0139,-8.692366161,0.0139,8.404896766,
0.01392,-9.057796455,0.01392,7.674036178,
0.01394,-9.057796455,0.01394,8.404896766,
0.01396,-8.692366161,0.01396,8.404896766,
0.01398,-7.230644984,0.01398,8.404896766,
0.014,-6.134354102,0.014,8.77032706,
0.01402,-6.134354102,0.01402,8.77032706,
0.01404,-4.307202631,0.01404,8.404896766,
0.01406,-3.210911749,0.01406,8.77032706,
0.01408,-2.114620866,0.01408,8.77032706,
0.0141,-0.2874693952,0.0141,8.77032706,
0.01412,0.8088214873,0.01412,8.77032706,
0.01414,2.270542664,0.01414,8.404896766,
0.01416,4.828554723,0.01416,8.404896766,
0.01418,5.193985017,0.01418,8.77032706,
0.0142,6.2902759,0.0142,8.404896766,
0.01422,6.655706194,0.01422,8.404896766,
0.01424,7.751997077,0.01424,8.77032706,
0.01426,9.579148547,0.01426,8.404896766,
0.01428,6.2902759,0.01428,8.404896766,
0.0143,8.117427371,0.0143,8.77032706,
0.01432,7.386566782,0.01432,8.039466472,
0.01434,8.848287959,0.01434,8.404896766,
0.01436,8.848287959,0.01436,9.135757354,
0.01438,8.482857665,0.01438,7.308605883,
0.0144,7.751997077,0.0144,8.039466472,
0.01442,8.482857665,0.01442,8.404896766,
0.01444,5.559415312,0.01444,8.039466472,
0.01446,7.021136488,0.01446,8.404896766,
0.01448,7.751997077,0.01448,8.039466472,
0.0145,6.2902759,0.0145,9.135757354,
0.01452,4.828554723,0.01452,8.039466472,
0.01454,3.001403252,0.01454,9.135757354,
0.01456,0.8088214873,0.01456,8.404896766,
0.01458,1.174251781,0.01458,8.039466472,
0.0146,-1.018329984,0.0146,7.674036178,
0.01462,-1.383760278,0.01462,8.404896766,
0.01464,-3.576342043,0.01464,7.674036178,
0.01466,-5.403493514,0.01466,8.039466472,
0.01468,-5.768923808,0.01468,8.039466472,
0.0147,-6.134354102,0.0147,8.039466472,
0.01472,-7.596075279,0.01472,8.039466472,
0.01474,-7.596075279,0.01474,8.404896766,
0.01476,-8.326935867,0.01476,8.039466472,
0.01478,-9.057796455,0.01478,7.674036178,
0.0148,-10.15408734,0.0148,8.77032706,
0.01482,-8.692366161,0.01482,8.404896766,
0.01484,-10.15408734,0.01484,8.039466472,
0.01486,-8.326935867,0.01486,8.039466472,
0.01488,-9.423226749,0.01488,8.77032706,
0.0149,-6.134354102,0.0149,8.039466472,
0.01492,-6.86521469,0.01492,8.039466472,
0.01494,-5.038063219,0.01494,8.404896766,
0.01496,-4.672632925,0.01496,8.039466472,
0.01498,-3.576342043,0.01498,8.77032706,
0.015,-3.210911749,0.015,8.77032706,
0.01502,-2.114620866,0.01502,7.674036178,
0.01504,-0.6528996894,0.01504,8.404896766,
0.01506,0.8088214873,0.01506,8.404896766,
0.01508,1.90511237,0.01508,8.039466472,
0.0151,4.097694135,0.0151,8.404896766,
0.01512,5.193985017,0.01512,8.039466472,
0.01514,6.655706194,0.01514,7.674036178,
0.01516,7.021136488,0.01516,8.404896766,
0.01518,8.848287959,0.01518,8.404896766,
0.0152,7.751997077,0.0152,7.674036178,
0.01522,7.751997077,0.01522,8.404896766,
0.01524,8.117427371,0.01524,8.039466472,
0.01526,7.021136488,0.01526,8.039466472,
0.01528,8.482857665,0.01528,8.404896766,
0.0153,7.751997077,0.0153,8.404896766,
0.01532,7.021136488,0.01532,8.039466472,
0.01534,8.482857665,0.01534,8.77032706,
0.01536,6.655706194,0.01536,8.404896766,
0.01538,8.117427371,0.01538,8.404896766,
0.0154,7.751997077,0.0154,8.404896766,
0.01542,7.751997077,0.01542,7.674036178,
0.01544,5.559415312,0.01544,8.039466472,
0.01546,3.366833547,0.01546,8.77032706,
0.01548,3.001403252,0.01548,8.039466472,
0.0155,1.174251781,0.0155,7.674036178,
0.01552,0.07796089896,0.01552,8.404896766,
0.01554,-0.6528996894,0.01554,8.404896766,
0.01556,-2.48005116,0.01556,8.039466472,
0.01558,-3.576342043,0.01558,8.039466472,
0.0156,-4.672632925,0.0156,8.039466472,
0.01562,-6.134354102,0.01562,8.404896766,
0.01564,-6.134354102,0.01564,8.77032706,
0.01566,-7.596075279,0.01566,8.77032706,
0.01568,-9.423226749,0.01568,8.039466472,
0.0157,-8.326935867,0.0157,8.404896766,
0.01572,-8.692366161,0.01572,8.404896766,
0.01574,-9.788657044,0.01574,8.039466472,
0.01576,-10.15408734,0.01576,8.039466472,
0.01578,-10.88494793,0.01578,8.039466472,
0.0158,-9.423226749,0.0158,7.674036178,
0.01582,-8.692366161,0.01582,8.404896766,
0.01584,-7.230644984,0.01584,8.404896766,
0.01586,-7.230644984,0.01586,7.674036178,
0.01588,-5.768923808,0.01588,8.404896766,
0.0159,-5.038063219,0.0159,8.77032706,
0.01592,-3.941772337,0.01592,7.674036178,
0.01594,-2.114620866,0.01594,8.404896766,
0.01596,-1.383760278,0.01596,8.77032706,
0.01598,-0.6528996894,0.01598,7.674036178,
0.016,0.8088214873,0.016,8.404896766,
0.01602,4.097694135,0.01602,8.039466472,
0.01604,4.828554723,0.01604,7.674036178,
0.01606,3.366833547,0.01606,8.404896766,
0.01608,6.655706194,0.01608,8.404896766,
0.0161,6.655706194,0.0161,8.039466472,
0.01612,9.213718253,0.01612,8.039466472,
0.01614,6.655706194,0.01614,8.404896766,
0.01616,6.655706194,0.01616,7.674036178,
0.01618,8.117427371,0.01618,8.404896766,
0.0162,7.021136488,0.0162,8.039466472,
0.01622,7.751997077,0.01622,8.039466472,
0.01624,7.751997077,0.01624,8.039466472,
0.01626,6.2902759,0.01626,8.039466472,
0.01628,6.655706194,0.01628,8.404896766,
0.0163,7.386566782,0.0163,8.77032706,
0.01632,8.117427371,0.01632,8.404896766,
0.01634,8.117427371,0.01634,8.77032706,
0.01636,8.848287959,0.01636,8.77032706,
0.01638,4.097694135,0.01638,8.404896766,
0.0164,3.001403252,0.0164,7.674036178,
0.01642,2.270542664,0.01642,9.135757354,
0.01644,0.8088214873,0.01644,8.404896766,
0.01646,0.07796089896,0.01646,7.674036178,
0.01648,-2.114620866,0.01648,8.77032706,
0.0165,-3.576342043,0.0165,8.039466472,
0.01652,-3.576342043,0.01652,8.039466472,
0.01654,-5.038063219,0.01654,8.77032706,
0.01656,-7.230644984,0.01656,8.77032706,
0.01658,-7.596075279,0.01658,8.404896766,
0.0166,-7.961505573,0.0166,8.77032706,
0.01662,-9.057796455,0.01662,8.404896766,
0.01664,-9.788657044,0.01664,7.674036178,
0.01666,-9.423226749,0.01666,9.866617943,
0.01668,-9.423226749,0.01668,8.404896766,
0.0167,-9.057796455,0.0167,8.039466472,
0.01672,-8.326935867,0.01672,8.404896766,
0.01674,-9.057796455,0.01674,8.404896766,
0.01676,-8.692366161,0.01676,8.039466472,
0.01678,-5.038063219,0.01678,9.135757354,
0.0168,-6.499784396,0.0168,8.404896766,
0.01682,-5.038063219,0.01682,8.039466472,
0.01684,-4.672632925,0.01684,8.77032706,
0.01686,-4.307202631,0.01686,8.039466472,
0.01688,-2.845481454,0.01688,8.039466472,
0.0169,-0.6528996894,0.0169,9.135757354,
0.01692,-1.018329984,0.01692,8.404896766,
0.01694,0.8088214873,0.01694,8.039466472,
0.01696,3.001403252,0.01696,6.577745295,
0.01698,3.366833547,0.01698,8.404896766,
0.017,5.924845606,0.017,8.039466472,
0.01702,6.655706194,0.01702,8.77032706,
0.01704,7.021136488,0.01704,7.674036178,
0.01706,8.117427371,0.01706,6.212315001,
0.01708,7.751997077,0.01708,8.404896766,
0.0171,7.386566782,0.0171,8.77032706,
0.01712,8.117427371,0.01712,8.404896766,
0.01714,7.751997077,0.01714,8.77032706,
0.01716,7.386566782,0.01716,6.943175589,
0.01718,7.386566782,0.01718,7.674036178,
0.0172,8.117427371,0.0172,8.77032706,
0.01722,8.117427371,0.01722,8.404896766,
0.01724,6.655706194,0.01724,8.404896766,
0.01726,7.751997077,0.01726,9.501187648,
0.01728,8.117427371,0.01728,8.039466472,
0.0173,4.097694135,0.0173,8.039466472,
0.01732,2.635972958,0.01732,8.404896766,
0.01734,3.366833547,0.01734,8.404896766,
0.01736,1.90511237,0.01736,10.23204824,
0.01738,0.4433911931,0.01738,8.404896766,
0.0174,-1.018329984,0.0174,8.77032706,
0.01742,-2.114620866,0.01742,8.039466472,
0.01744,-5.038063219,0.01744,8.039466472,
0.01746,-5.768923808,0.01746,10.59747853,
0.01748,-5.038063219,0.01748,8.404896766,
0.0175,-6.499784396,0.0175,8.404896766,
0.01752,-6.86521469,0.01752,8.039466472,
0.01754,-9.057796455,0.01754,8.039466472,
0.01756,-9.057796455,0.01756,6.943175589,
0.01758,-9.788657044,0.01758,8.404896766,
0.0176,-9.423226749,0.0176,8.404896766,
0.01762,-10.15408734,0.01762,7.674036178,
0.01764,-7.961505573,0.01764,8.404896766,
0.01766,-9.057796455,0.01766,6.212315001,
0.01768,-8.692366161,0.01768,8.404896766,
0.0177,-8.692366161,0.0177,8.039466472,
0.01772,-7.230644984,0.01772,8.039466472,
0.01774,-6.134354102,0.01774,8.77032706,
0.01776,-5.038063219,0.01776,9.501187648,
0.01778,-3.210911749,0.01778,8.404896766,
0.0178,-3.210911749,0.0178,8.039466472,
0.01782,-1.749190572,0.01782,8.77032706,
0.01784,-0.2874693952,0.01784,8.404896766,
0.01786,1.539682076,0.01786,8.77032706,
0.01788,0.8088214873,0.01788,8.404896766,
0.0179,3.732263841,0.0179,8.404896766,
0.01792,4.828554723,0.01792,8.404896766,
0.01794,7.021136488,0.01794,8.77032706,
0.01796,7.021136488,0.01796,7.308605883,
0.01798,8.117427371,0.01798,8.404896766,
0.018,6.655706194,0.018,8.77032706,
0.01802,8.117427371,0.01802,8.404896766,
0.01804,8.848287959,0.01804,8.77032706,
0.01806,5.924845606,0.01806,7.674036178,
0.01808,7.751997077,0.01808,8.404896766,
0.0181,7.386566782,0.0181,8.77032706,
0.01812,6.655706194,0.01812,8.77032706,
0.01814,7.386566782,0.01814,8.404896766,
0.01816,7.386566782,0.01816,7.674036178,
0.01818,8.848287959,0.01818,8.404896766,
0.0182,7.021136488,0.0182,8.404896766,
0.01822,7.751997077,0.01822,8.404896766,
0.01824,5.559415312,0.01824,8.404896766,
0.01826,4.828554723,0.01826,8.77032706,
0.01828,3.732263841,0.01828,8.039466472,
0.0183,1.174251781,0.0183,8.404896766,
0.01832,0.07796089896,0.01832,8.404896766,
0.01834,-0.6528996894,0.01834,8.77032706,
0.01836,-2.48005116,0.01836,9.135757354,
0.01838,-5.038063219,0.01838,8.404896766,
0.0184,-6.86521469,0.0184,8.404896766,
0.01842,-5.403493514,0.01842,7.674036178,
0.01844,-7.596075279,0.01844,8.404896766,
0.01846,-7.596075279,0.01846,9.135757354,
0.01848,-10.15408734,0.01848,8.404896766,
0.0185,-9.423226749,0.0185,8.404896766,
0.01852,-9.788657044,0.01852,7.674036178,
0.01854,-9.423226749,0.01854,8.404896766,
0.01856,-9.057796455,0.01856,7.674036178,
0.01858,-10.15408734,0.01858,8.404896766,
0.0186,-10.15408734,0.0186,8.404896766,
0.01862,-8.326935867,0.01862,8.039466472,
0.01864,-7.230644984,0.01864,8.404896766,
0.01866,-7.596075279,0.01866,7.308605883,
0.01868,-5.038063219,0.01868,8.039466472,
0.0187,-5.403493514,0.0187,8.404896766,
0.01872,-3.210911749,0.01872,8.404896766,
0.01874,-2.114620866,0.01874,8.77032706,
0.01876,-1.749190572,0.01876,7.674036178,
0.01878,2.270542664,0.01878,8.404896766,
0.0188,1.90511237,0.0188,8.77032706,
0.01882,2.270542664,0.01882,8.404896766,
0.01884,4.463124429,0.01884,8.77032706,
0.01886,5.193985017,0.01886,8.404896766,
0.01888,5.924845606,0.01888,8.039466472,
0.0189,8.482857665,0.0189,8.404896766,
0.01892,7.021136488,0.01892,8.77032706,
0.01894,7.021136488,0.01894,8.404896766,
0.01896,6.655706194,0.01896,8.404896766,
0.01898,9.213718253,0.01898,8.404896766,
0.019,7.021136488,0.019,8.404896766,
0.01902,8.117427371,0.01902,8.77032706,
0.01904,8.117427371,0.01904,8.039466472,
0.01906,7.751997077,0.01906,8.404896766,
0.01908,9.213718253,0.01908,8.404896766,
0.0191,8.482857665,0.0191,8.77032706,
0.01912,7.386566782,0.01912,8.404896766,
0.01914,7.021136488,0.01914,8.77032706,
0.01916,7.021136488,0.01916,9.135757354,
0.01918,4.828554723,0.01918,8.77032706,
0.0192,3.366833547,0.0192,8.404896766,
0.01922,1.539682076,0.01922,8.404896766,
0.01924,1.174251781,0.01924,9.135757354,
0.01926,-0.6528996894,0.01926,8.77032706,
0.01928,-0.2874693952,0.01928,8.039466472,
0.0193,-2.48005116,0.0193,9.135757354,
0.01932,-3.941772337,0.01932,8.039466472,
0.01934,-6.86521469,0.01934,8.039466472,
0.01936,-6.134354102,0.01936,8.404896766,
0.01938,-8.326935867,0.01938,8.404896766,
0.0194,-9.423226749,0.0194,8.039466472,
0.01942,-8.326935867,0.01942,9.135757354,
0.01944,-9.423226749,0.01944,8.404896766,
0.01946,-8.692366161,0.01946,8.039466472,
0.01948,-9.788657044,0.01948,9.135757354,
0.0195,-10.15408734,0.0195,8.404896766,
0.01952,-10.88494793,0.01952,8.404896766,
0.01954,-8.326935867,0.01954,8.404896766,
0.01956,-7.961505573,0.01956,8.039466472,
0.01958,-7.961505573,0.01958,8.404896766,
0.0196,-7.596075279,0.0196,8.77032706,
0.01962,-6.499784396,0.01962,8.039466472,
0.01964,-5.403493514,0.01964,8.039466472,
0.01966,-5.038063219,0.01966,8.039466472,
0.01968,-2.114620866,0.01968,8.404896766,
0.0197,-1.383760278,0.0197,8.404896766,
0.01972,1.90511237,0.01972,8.77032706,
0.01974,1.539682076,0.01974,8.404896766,
0.01976,2.635972958,0.01976,7.674036178,
0.01978,4.097694135,0.01978,8.77032706,
0.0198,5.924845606,0.0198,8.77032706,
0.01982,6.2902759,0.01982,8.404896766,
0.01984,7.021136488,0.01984,8.77032706,
0.01986,7.386566782,0.01986,8.404896766,
0.01988,8.117427371,0.01988,8.77032706,
0.0199,7.751997077,0.0199,9.135757354,
0.01992,7.386566782,0.01992,8.039466472,
0.01994,7.021136488,0.01994,8.404896766,
0.01996,7.386566782,0.01996,9.135757354,
0.01998,6.655706194,0.01998,8.039466472,
0.02,7.386566782,0.02,8.404896766,
0.02002,7.751997077,0.02002,8.77032706,
0.02004,7.751997077,0.02004,8.404896766,
0.02006,7.386566782,0.02006,8.039466472,
0.02008,7.751997077,0.02008,8.404896766,
0.0201,4.097694135,0.0201,8.404896766,
0.02012,6.655706194,0.02012,8.404896766,
0.02014,2.270542664,0.02014,8.77032706,
0.02016,1.539682076,0.02016,8.039466472,
0.02018,0.8088214873,0.02018,8.039466472,
0.0202,-2.114620866,0.0202,8.77032706,
0.02022,-0.6528996894,0.02022,8.039466472,
0.02024,-3.210911749,0.02024,8.404896766,
0.02026,-5.038063219,0.02026,9.501187648,
0.02028,-3.576342043,0.02028,8.404896766,
0.0203,-6.86521469,0.0203,8.039466472,
0.02032,-7.961505573,0.02032,8.77032706,
0.02034,-9.057796455,0.02034,8.039466472,
0.02036,-9.423226749,0.02036,7.674036178,
0.02038,-10.15408734,0.02038,9.135757354,
0.0204,-10.15408734,0.0204,8.039466472,
0.02042,-9.057796455,0.02042,8.404896766,
0.02044,-9.057796455,0.02044,8.77032706,
0.02046,-9.788657044,0.02046,8.039466472,
0.02048,-8.692366161,0.02048,7.674036178,
0.0205,-7.961505573,0.0205,8.77032706,
0.02052,-7.596075279,0.02052,8.404896766,
0.02054,-5.768923808,0.02054,8.039466472,
0.02056,-5.038063219,0.02056,8.77032706,
0.02058,-5.403493514,0.02058,8.404896766,
0.0206,-2.845481454,0.0206,8.039466472,
0.02062,-1.749190572,0.02062,8.77032706,
0.02064,-0.2874693952,0.02064,8.404896766,
0.02066,-0.2874693952,0.02066,8.039466472,
0.02068,2.635972958,0.02068,9.135757354,
0.0207,2.270542664,0.0207,8.77032706,
0.02072,5.193985017,0.02072,8.404896766,
0.02074,6.2902759,0.02074,8.77032706,
0.02076,6.655706194,0.02076,8.404896766,
0.02078,7.751997077,0.02078,8.404896766,
0.0208,7.751997077,0.0208,8.77032706,
0.02082,7.386566782,0.02082,8.039466472,
0.02084,6.2902759,0.02084,8.039466472,
0.02086,8.482857665,0.02086,9.135757354,
0.02088,8.117427371,0.02088,8.404896766,
0.0209,7.386566782,0.0209,8.404896766,
0.02092,7.386566782,0.02092,8.039466472,
0.02094,8.482857665,0.02094,8.039466472,
0.02096,7.751997077,0.02096,8.039466472,
0.02098,8.117427371,0.02098,9.135757354,
0.021,8.117427371,0.021,8.404896766,
0.02102,9.944578842,0.02102,8.404896766,
0.02104,6.655706194,0.02104,8.77032706,
0.02106,3.732263841,0.02106,8.77032706,
0.02108,3.366833547,0.02108,8.039466472,
0.0211,1.174251781,0.0211,8.404896766,
0.02112,-0.6528996894,0.02112,8.77032706,
0.02114,-0.6528996894,0.02114,8.039466472,
0.02116,-3.210911749,0.02116,8.404896766,
0.02118,-4.307202631,0.02118,8.77032706,
0.0212,-4.672632925,0.0212,8.404896766,
0.02122,-6.499784396,0.02122,8.77032706,
0.02124,-8.326935867,0.02124,8.404896766,
0.02126,-9.423226749,0.02126,8.039466472,
0.02128,-9.423226749,0.02128,8.77032706,
0.0213,-10.15408734,0.0213,8.77032706,
0.02132,-9.057796455,0.02132,8.039466472,
0.02134,-8.692366161,0.02134,8.77032706,
0.02136,-9.423226749,0.02136,8.77032706,
0.02138,-9.423226749,0.02138,8.404896766,
0.0214,-9.423226749,0.0214,8.77032706,
0.02142,-8.692366161,0.02142,8.77032706,
0.02144,-8.326935867,0.02144,8.404896766,
0.02146,-7.230644984,0.02146,8.404896766,
0.02148,-7.230644984,0.02148,8.404896766,
0.0215,-4.307202631,0.0215,8.404896766,
0.02152,-3.210911749,0.02152,8.404896766,
0.02154,-1.383760278,0.02154,8.404896766,
0.02156,-0.6528996894,0.02156,8.404896766,
0.02158,0.07796089896,0.02158,8.039466472,
0.0216,0.07796089896,0.0216,8.77032706,
0.02162,2.270542664,0.02162,8.404896766,
0.02164,3.001403252,0.02164,8.404896766,
0.02166,5.559415312,0.02166,8.404896766,
0.02168,6.2902759,0.02168,8.039466472,
0.0217,8.482857665,0.0217,8.77032706,
0.02172,6.655706194,0.02172,8.404896766,
0.02174,7.021136488,0.02174,8.77032706,
0.02176,7.386566782,0.02176,8.77032706,
0.02178,8.482857665,0.02178,8.77032706,
0.0218,7.751997077,0.0218,8.404896766,
0.02182,8.117427371,0.02182,8.404896766,
0.02184,7.751997077,0.02184,8.039466472,
0.02186,8.482857665,0.02186,8.404896766,
0.02188,8.117427371,0.02188,8.404896766,
0.0219,7.021136488,0.0219,8.77032706,
0.02192,6.655706194,0.02192,8.039466472,
0.02194,8.848287959,0.02194,8.404896766,
0.02196,5.559415312,0.02196,8.404896766,
0.02198,7.751997077,0.02198,7.674036178,
0.022,4.463124429,0.022,8.404896766,
0.02202,2.635972958,0.02202,8.404896766,
0.02204,0.07796089896,0.02204,8.404896766,
0.02206,-1.383760278,0.02206,8.77032706,
0.02208,-1.749190572,0.02208,9.135757354,
0.0221,-3.576342043,0.0221,8.404896766,
0.02212,-2.845481454,0.02212,8.77032706,
0.02214,-5.768923808,0.02214,8.77032706,
0.02216,-6.499784396,0.02216,8.77032706,
0.02218,-6.86521469,0.02218,9.501187648,
0.0222,-8.326935867,0.0222,8.039466472,
0.02222,-9.057796455,0.02222,8.77032706,
0.02224,-8.326935867,0.02224,8.77032706,
0.02226,-9.788657044,0.02226,8.77032706,
0.02228,-9.057796455,0.02228,8.404896766,
0.0223,-6.86521469,0.0223,8.77032706,
0.02232,-9.423226749,0.02232,8.404896766,
0.02234,-8.692366161,0.02234,8.039466472,
0.02236,-7.596075279,0.02236,8.404896766,
0.02238,-9.057796455,0.02238,7.674036178,
0.0224,-6.499784396,0.0224,8.039466472,
0.02242,-5.403493514,0.02242,8.039466472,
0.02244,-4.307202631,0.02244,8.404896766,
0.02246,-3.210911749,0.02246,8.404896766,
0.02248,-1.749190572,0.02248,7.308605883,
0.0225,-1.383760278,0.0225,8.404896766,
0.02252,0.07796089896,0.02252,8.77032706,
0.02254,2.635972958,0.02254,8.404896766,
0.02256,5.559415312,0.02256,8.77032706,
0.02258,7.386566782,0.02258,9.501187648,
0.0226,5.559415312,0.0226,8.404896766,
0.02262,6.2902759,0.02262,8.77032706,
0.02264,7.386566782,0.02264,8.404896766,
0.02266,7.751997077,0.02266,8.404896766,
0.02268,8.482857665,0.02268,8.77032706,
0.0227,8.482857665,0.0227,8.404896766,
0.02272,6.2902759,0.02272,8.404896766,
0.02274,7.021136488,0.02274,8.404896766,
0.02276,7.751997077,0.02276,8.404896766,
0.02278,8.117427371,0.02278,8.039466472,
0.0228,7.751997077,0.0228,8.77032706,
0.02282,7.021136488,0.02282,8.404896766,
0.02284,7.751997077,0.02284,8.404896766,
0.02286,7.751997077,0.02286,8.77032706,
0.02288,7.386566782,0.02288,8.039466472,
0.0229,5.924845606,0.0229,8.77032706,
0.02292,4.828554723,0.02292,8.77032706,
0.02294,3.366833547,0.02294,8.404896766,
0.02296,1.539682076,0.02296,8.039466472,
0.02298,0.8088214873,0.02298,8.039466472,
0.023,-0.6528996894,0.023,7.674036178,
0.02302,-1.383760278,0.02302,8.404896766,
0.02304,-2.845481454,0.02304,8.404896766,
0.02306,-4.307202631,0.02306,8.039466472,
0.02308,-6.134354102,0.02308,8.77032706,
0.0231,-6.134354102,0.0231,8.404896766,
0.02312,-8.692366161,0.02312,8.039466472,
0.02314,-7.961505573,0.02314,8.404896766,
0.02316,-8.692366161,0.02316,8.404896766,
0.02318,-10.15408734,0.02318,8.77032706,
0.0232,-8.692366161,0.0232,8.039466472,
0.02322,-10.15408734,0.02322,8.039466472,
0.02324,-10.15408734,0.02324,7.674036178,
0.02326,-9.057796455,0.02326,8.039466472,
0.02328,-8.326935867,0.02328,7.308605883,
0.0233,-10.15408734,0.0233,8.039466472,
0.02332,-6.86521469,0.02332,8.404896766,
0.02334,-5.768923808,0.02334,8.404896766,
0.02336,-6.134354102,0.02336,8.039466472,
0.02338,-4.307202631,0.02338,8.77032706,
0.0234,-2.845481454,0.0234,8.404896766,
0.02342,-1.018329984,0.02342,8.404896766,
0.02344,-0.2874693952,0.02344,8.039466472,
0.02346,1.539682076,0.02346,7.308605883,
0.02348,1.174251781,0.02348,8.404896766,
0.0235,6.2902759,0.0235,8.404896766,
0.02352,5.559415312,0.02352,8.404896766,
0.02354,5.559415312,0.02354,8.039466472,
0.02356,7.021136488,0.02356,8.039466472,
0.02358,7.751997077,0.02358,8.039466472,
0.0236,5.193985017,0.0236,7.674036178,
0.02362,7.751997077,0.02362,8.404896766,
0.02364,8.482857665,0.02364,8.404896766,
0.02366,8.117427371,0.02366,8.039466472,
0.02368,7.386566782,0.02368,8.404896766,
0.0237,7.021136488,0.0237,8.404896766,
0.02372,8.117427371,0.02372,8.039466472,
0.02374,6.655706194,0.02374,8.039466472,
0.02376,7.386566782,0.02376,8.404896766,
0.02378,5.924845606,0.02378,8.404896766,
0.0238,9.579148547,0.0238,8.404896766,
0.02382,8.482857665,0.02382,8.404896766,
0.02384,4.463124429,0.02384,8.039466472,
0.02386,4.097694135,0.02386,8.77032706,
0.02388,3.366833547,0.02388,8.404896766,
0.0239,1.539682076,0.0239,7.674036178,
0.02392,0.4433911931,0.02392,8.404896766,
0.02394,-2.48005116,0.02394,8.039466472,
0.02396,-2.48005116,0.02396,8.039466472,
0.02398,-3.576342043,0.02398,8.039466472,
0.024,-5.403493514,0.024,8.404896766,
0.02402,-6.499784396,0.02402,7.674036178,
0.02404,-6.86521469,0.02404,8.039466472,
0.02406,-7.961505573,0.02406,8.039466472,
0.02408,-9.057796455,0.02408,8.039466472,
0.0241,-6.86521469,0.0241,8.404896766,
0.02412,-8.692366161,0.02412,8.039466472,
0.02414,-10.88494793,0.02414,8.039466472,
0.02416,-9.057796455,0.02416,8.404896766,
0.02418,-10.15408734,0.02418,8.404896766,
0.0242,-7.961505573,0.0242,8.039466472,
0.02422,-8.326935867,0.02422,8.404896766,
0.02424,-7.961505573,0.02424,8.404896766,
0.02426,-7.596075279,0.02426,8.039466472,
0.02428,-4.672632925,0.02428,8.404896766,
0.0243,-6.499784396,0.0243,8.404896766,
0.02432,-0.6528996894,0.02432,8.039466472,
0.02434,-2.114620866,0.02434,8.404896766,
0.02436,-0.6528996894,0.02436,8.77032706,
0.02438,1.174251781,0.02438,8.039466472,
0.0244,1.174251781,0.0244,8.404896766,
0.02442,4.463124429,0.02442,8.039466472,
0.02444,3.001403252,0.02444,8.404896766,
0.02446,4.463124429,0.02446,8.039466472,
0.02448,6.2902759,0.02448,8.404896766,
0.0245,8.117427371,0.0245,7.674036178,
0.02452,8.117427371,0.02452,8.404896766,
0.02454,8.117427371,0.02454,8.404896766,
0.02456,6.2902759,0.02456,8.039466472,
0.02458,7.751997077,0.02458,8.77032706,
0.0246,8.117427371,0.0246,8.039466472,
0.02462,7.386566782,0.02462,7.674036178,
0.02464,8.482857665,0.02464,8.404896766,
0.02466,8.482857665,0.02466,8.404896766,
0.02468,8.117427371,0.02468,8.039466472,
0.0247,6.655706194,0.0247,8.77032706,
0.02472,8.117427371,0.02472,8.039466472,
0.02474,7.386566782,0.02474,7.674036178,
0.02476,6.2902759,0.02476,8.039466472,
0.02478,5.193985017,0.02478,8.039466472,
0.0248,3.732263841,0.0248,8.404896766,
0.02482,2.270542664,0.02482,8.77032706,
0.02484,0.4433911931,0.02484,8.77032706,
0.02486,-0.6528996894,0.02486,8.039466472,
0.02488,-1.383760278,0.02488,8.77032706,
0.0249,-2.845481454,0.0249,8.404896766,
0.02492,-3.941772337,0.02492,8.039466472,
0.02494,-5.768923808,0.02494,7.674036178,
0.02496,-7.961505573,0.02496,8.039466472,
0.02498,-7.596075279,0.02498,8.404896766,
0.025,-7.961505573,0.025,8.77032706,
0.02502,-9.788657044,0.02502,8.404896766,
0.02504,-9.423226749,0.02504,8.039466472,
0.02506,-9.788657044,0.02506,8.404896766,
0.02508,-10.51951763,0.02508,8.404896766,
0.0251,-9.423226749,0.0251,8.039466472,
0.02512,-8.692366161,0.02512,8.404896766,
0.02514,-9.057796455,0.02514,8.77032706,
0.02516,-8.692366161,0.02516,8.039466472,
0.02518,-7.596075279,0.02518,8.77032706,
0.0252,-2.48005116,0.0252,8.404896766,
0.02522,-6.134354102,0.02522,7.674036178,
0.02524,-4.307202631,0.02524,8.77032706,
0.02526,-3.576342043,0.02526,8.404896766,
0.02528,-2.114620866,0.02528,8.404896766,
0.0253,0.4433911931,0.0253,8.77032706,
0.02532,1.174251781,0.02532,8.039466472,
0.02534,1.539682076,0.02534,8.039466472,
0.02536,5.193985017,0.02536,8.77032706,
0.02538,3.366833547,0.02538,8.039466472,
0.0254,6.2902759,0.0254,8.039466472,
0.02542,6.655706194,0.02542,8.77032706,
0.02544,6.655706194,0.02544,7.674036178,
0.02546,7.021136488,0.02546,8.404896766,
0.02548,6.655706194,0.02548,8.77032706,
0.0255,7.751997077,0.0255,8.039466472,
0.02552,7.021136488,0.02552,8.039466472,
0.02554,8.117427371,0.02554,9.135757354,
0.02556,8.117427371,0.02556,8.039466472,
0.02558,8.482857665,0.02558,8.039466472,
0.0256,7.021136488,0.0256,8.77032706,
0.02562,7.386566782,0.02562,8.039466472,
0.02564,8.848287959,0.02564,8.039466472,
0.02566,7.386566782,0.02566,8.77032706,
0.02568,7.751997077,0.02568,8.404896766,
0.0257,5.924845606,0.0257,8.404896766,
0.02572,4.463124429,0.02572,8.77032706,
0.02574,3.001403252,0.02574,8.404896766,
0.02576,1.539682076,0.02576,7.674036178,
0.02578,0.4433911931,0.02578,8.77032706,
0.0258,-1.383760278,0.0258,8.404896766,
0.02582,-2.48005116,0.02582,7.674036178,
0.02584,-3.576342043,0.02584,8.77032706,
0.02586,-5.038063219,0.02586,8.404896766,
0.02588,-6.134354102,0.02588,8.404896766,
0.0259,-5.768923808,0.0259,8.404896766,
0.02592,-9.057796455,0.02592,8.404896766,
0.02594,-9.423226749,0.02594,8.404896766,
0.02596,-9.057796455,0.02596,8.77032706,
0.02598,-11.25037822,0.02598,8.039466472,
0.026,-9.423226749,0.026,7.308605883,
0.02602,-9.057796455,0.02602,9.135757354,
0.02604,-9.788657044,0.02604,8.404896766,
0.02606,-9.057796455,0.02606,8.039466472,
0.02608,-8.692366161,0.02608,8.77032706,
0.0261,-8.326935867,0.0261,8.039466472,
0.02612,-7.230644984,0.02612,8.404896766,
0.02614,-6.499784396,0.02614,8.404896766,
0.02616,-5.403493514,0.02616,8.404896766,
0.02618,-4.307202631,0.02618,8.039466472,
0.0262,-3.941772337,0.0262,9.501187648,
0.02622,-1.018329984,0.02622,8.404896766,
0.02624,-0.6528996894,0.02624,8.404896766,
0.02626,1.174251781,0.02626,8.404896766,
0.02628,1.539682076,0.02628,8.404896766,
0.0263,3.001403252,0.0263,8.039466472,
0.02632,5.193985017,0.02632,8.404896766,
0.02634,5.559415312,0.02634,8.039466472,
0.02636,5.559415312,0.02636,8.404896766,
0.02638,8.117427371,0.02638,9.135757354,
0.0264,7.386566782,0.0264,7.674036178,
0.02642,8.117427371,0.02642,8.039466472,
0.02644,7.751997077,0.02644,9.135757354,
0.02646,8.117427371,0.02646,8.404896766,
0.02648,7.386566782,0.02648,8.039466472,
0.0265,8.117427371,0.0265,9.501187648,
0.02652,7.386566782,0.02652,8.404896766,
0.02654,7.751997077,0.02654,8.404896766,
0.02656,7.751997077,0.02656,8.77032706,
0.02658,6.655706194,0.02658,8.404896766,
0.0266,8.117427371,0.0266,8.404896766,
0.02662,7.386566782,0.02662,8.77032706,
0.02664,4.097694135,0.02664,8.404896766,
0.02666,3.366833547,0.02666,8.039466472,
0.02668,3.001403252,0.02668,8.77032706,
0.0267,0.07796089896,0.0267,7.674036178,
0.02672,-0.6528996894,0.02672,8.404896766,
0.02674,-2.48005116,0.02674,8.77032706,
0.02676,-2.114620866,0.02676,8.404896766,
0.02678,-3.941772337,0.02678,8.404896766,
0.0268,-6.86521469,0.0268,6.943175589,
0.02682,-5.038063219,0.02682,8.404896766,
0.02684,-7.961505573,0.02684,8.77032706,
0.02686,-9.057796455,0.02686,8.77032706,
0.02688,-8.326935867,0.02688,8.404896766,
0.0269,-9.423226749,0.0269,7.308605883,
0.02692,-9.423226749,0.02692,8.039466472,
0.02694,-8.326935867,0.02694,8.77032706,
0.02696,-9.057796455,0.02696,8.77032706,
0.02698,-11.61580851,0.02698,8.404896766,
0.027,-8.326935867,0.027,9.501187648,
0.02702,-8.692366161,0.02702,8.77032706,
0.02704,-6.86521469,0.02704,8.404896766,
0.02706,-6.499784396,0.02706,8.404896766,
0.02708,-6.86521469,0.02708,8.77032706,
0.0271,-3.941772337,0.0271,9.866617943,
0.02712,-3.576342043,0.02712,8.404896766,
0.02714,-1.749190572,0.02714,8.77032706,
0.02716,-1.018329984,0.02716,8.404896766,
0.02718,0.4433911931,0.02718,8.404896766,
0.0272,1.174251781,0.0272,9.866617943,
0.02722,2.635972958,0.02722,8.404896766,
0.02724,4.097694135,0.02724,8.404896766,
0.02726,6.2902759,0.02726,8.404896766,
0.02728,6.655706194,0.02728,8.404896766,
0.0273,7.751997077,0.0273,7.674036178,
0.02732,8.482857665,0.02732,8.404896766,
0.02734,7.386566782,0.02734,8.77032706,
0.02736,7.021136488,0.02736,8.404896766,
0.02738,9.579148547,0.02738,8.404896766,
0.0274,8.482857665,0.0274,7.308605883,
0.02742,7.386566782,0.02742,8.404896766,
0.02744,7.751997077,0.02744,8.77032706,
0.02746,6.2902759,0.02746,8.77032706,
0.02748,7.751997077,0.02748,8.039466472,
0.0275,8.482857665,0.0275,8.77032706,
0.02752,9.213718253,0.02752,8.404896766,
0.02754,7.751997077,0.02754,8.404896766,
0.02756,5.924845606,0.02756,8.404896766,
0.02758,4.097694135,0.02758,8.404896766,
0.0276,3.732263841,0.0276,9.866617943,
0.02762,2.635972958,0.02762,8.404896766,
0.02764,1.174251781,0.02764,8.404896766,
0.02766,-0.6528996894,0.02766,8.77032706,
0.02768,-1.749190572,0.02768,8.77032706,
0.0277,-4.307202631,0.0277,9.866617943,
0.02772,-5.403493514,0.02772,8.404896766,
0.02774,-5.038063219,0.02774,8.404896766,
0.02776,-5.768923808,0.02776,8.77032706,
0.02778,-7.230644984,0.02778,8.404896766,
0.0278,-8.326935867,0.0278,9.866617943,
0.02782,-10.15408734,0.02782,8.404896766,
0.02784,-8.326935867,0.02784,8.404896766,
0.02786,-10.51951763,0.02786,8.404896766,
0.02788,-9.423226749,0.02788,8.404896766,
0.0279,-10.15408734,0.0279,8.77032706,
0.02792,-10.15408734,0.02792,8.039466472,
0.02794,-9.057796455,0.02794,8.77032706,
0.02796,-9.057796455,0.02796,8.404896766,
0.02798,-6.499784396,0.02798,8.404896766,
0.028,-7.961505573,0.028,8.77032706,
0.02802,-6.134354102,0.02802,8.404896766,
0.02804,-4.307202631,0.02804,8.404896766,
0.02806,-3.576342043,0.02806,8.404896766,
0.02808,-1.383760278,0.02808,8.404896766,
0.0281,-0.2874693952,0.0281,6.943175589,
0.02812,-0.2874693952,0.02812,9.135757354,
0.02814,3.001403252,0.02814,8.039466472,
0.02816,5.559415312,0.02816,8.404896766,
0.02818,4.097694135,0.02818,8.77032706,
0.0282,6.655706194,0.0282,7.308605883,
0.02822,6.2902759,0.02822,8.039466472,
0.02824,7.021136488,0.02824,9.135757354,
0.02826,7.386566782,0.02826,8.404896766,
0.02828,8.117427371,0.02828,8.404896766,
0.0283,8.482857665,0.0283,9.501187648,
0.02832,7.021136488,0.02832,8.77032706,
0.02834,8.848287959,0.02834,8.404896766,
0.02836,7.021136488,0.02836,8.77032706,
0.02838,8.848287959,0.02838,8.404896766,
0.0284,7.386566782,0.0284,9.866617943,
0.02842,7.751997077,0.02842,9.135757354,
0.02844,7.386566782,0.02844,8.404896766,
0.02846,8.117427371,0.02846,8.039466472,
0.02848,8.117427371,0.02848,8.404896766,
0.0285,5.193985017,0.0285,8.039466472,
0.02852,4.463124429,0.02852,8.039466472,
0.02854,4.097694135,0.02854,8.77032706,
0.02856,2.635972958,0.02856,8.039466472,
0.02858,0.07796089896,0.02858,8.404896766,
0.0286,-1.749190572,0.0286,7.674036178,
0.02862,-3.210911749,0.02862,8.039466472,
0.02864,-3.576342043,0.02864,8.039466472,
0.02866,-1.749190572,0.02866,8.77032706,
0.02868,-6.499784396,0.02868,8.039466472,
0.0287,-9.057796455,0.0287,7.674036178,
0.02872,-6.134354102,0.02872,8.77032706,
0.02874,-6.134354102,0.02874,8.404896766,
0.02876,-9.057796455,0.02876,8.404896766,
0.02878,-9.423226749,0.02878,8.77032706,
0.0288,-9.788657044,0.0288,8.404896766,
0.02882,-10.51951763,0.02882,8.039466472,
0.02884,-9.423226749,0.02884,8.77032706,
0.02886,-9.423226749,0.02886,8.404896766,
0.02888,-8.326935867,0.02888,8.404896766,
0.0289,-5.038063219,0.0289,8.77032706,
0.02892,-7.596075279,0.02892,8.039466472,
0.02894,-6.134354102,0.02894,8.404896766,
0.02896,-4.672632925,0.02896,8.404896766,
0.02898,-5.403493514,0.02898,8.039466472,
0.029,-3.210911749,0.029,7.674036178,
0.02902,-2.114620866,0.02902,8.404896766,
0.02904,-0.6528996894,0.02904,8.039466472,
0.02906,2.270542664,0.02906,8.404896766,
0.02908,2.635972958,0.02908,8.77032706,
0.0291,4.463124429,0.0291,7.674036178,
0.02912,5.193985017,0.02912,8.039466472,
0.02914,5.924845606,0.02914,8.77032706,
0.02916,6.655706194,0.02916,8.039466472,
0.02918,7.386566782,0.02918,8.039466472,
0.0292,8.117427371,0.0292,8.77032706,
0.02922,7.386566782,0.02922,8.404896766,
0.02924,7.751997077,0.02924,8.039466472,
0.02926,8.482857665,0.02926,8.404896766,
0.02928,8.117427371,0.02928,8.404896766,
0.0293,8.117427371,0.0293,8.039466472,
0.02932,8.482857665,0.02932,8.77032706,
0.02934,6.2902759,0.02934,8.039466472,
0.02936,8.117427371,0.02936,8.039466472,
0.02938,7.751997077,0.02938,8.77032706,
0.0294,8.482857665,0.0294,8.404896766,
0.02942,8.482857665,0.02942,8.039466472,
0.02944,5.924845606,0.02944,8.77032706,
0.02946,3.366833547,0.02946,8.039466472,
0.02948,2.270542664,0.02948,7.674036178,
0.0295,0.8088214873,0.0295,9.135757354,
0.02952,-0.2874693952,0.02952,8.039466472,
0.02954,-2.114620866,0.02954,8.039466472,
0.02956,-2.48005116,0.02956,8.77032706,
0.02958,-5.768923808,0.02958,8.404896766,
0.0296,-3.576342043,0.0296,8.039466472,
0.02962,-7.961505573,0.02962,8.77032706,
0.02964,-8.692366161,0.02964,8.404896766,
0.02966,-7.961505573,0.02966,8.404896766,
0.02968,-7.230644984,0.02968,8.77032706,
0.0297,-9.788657044,0.0297,8.039466472,
0.02972,-8.326935867,0.02972,8.404896766,
0.02974,-10.88494793,0.02974,8.404896766,
0.02976,-8.692366161,0.02976,8.404896766,
0.02978,-8.326935867,0.02978,9.135757354,
0.0298,-9.057796455,0.0298,8.77032706,
0.02982,-9.788657044,0.02982,8.77032706,
0.02984,-7.230644984,0.02984,7.308605883,
0.02986,-7.230644984,0.02986,9.135757354,
0.02988,-6.134354102,0.02988,8.77032706,
0.0299,-2.114620866,0.0299,8.404896766,
0.02992,-2.845481454,0.02992,8.77032706,
0.02994,-2.48005116,0.02994,8.77032706,
0.02996,0.07796089896,0.02996,8.404896766,
0.02998,0.8088214873,0.02998,8.77032706,
0.03,2.635972958,0.03,8.404896766,
0.03002,2.270542664,0.03002,8.039466472,
0.03004,3.732263841,0.03004,9.135757354,
0.03006,4.463124429,0.03006,8.404896766,
0.03008,7.386566782,0.03008,8.404896766,
0.0301,8.117427371,0.0301,8.404896766,
0.03012,6.655706194,0.03012,8.404896766,
0.03014,7.751997077,0.03014,8.404896766,
0.03016,7.751997077,0.03016,8.77032706,
0.03018,7.386566782,0.03018,8.404896766,
0.0302,8.482857665,0.0302,8.039466472,
0.03022,7.751997077,0.03022,8.77032706,
0.03024,9.579148547,0.03024,8.404896766,
0.03026,8.482857665,0.03026,8.404896766,
0.03028,8.482857665,0.03028,8.77032706,
0.0303,7.021136488,0.0303,8.404896766,
0.03032,7.751997077,0.03032,8.404896766,
0.03034,8.482857665,0.03034,8.404896766,
0.03036,5.559415312,0.03036,8.404896766,
0.03038,4.463124429,0.03038,8.039466472,
0.0304,4.828554723,0.0304,8.77032706,
0.03042,1.174251781,0.03042,8.404896766,
0.03044,0.8088214873,0.03044,8.039466472,
0.03046,-1.383760278,0.03046,8.77032706,
0.03048,-2.845481454,0.03048,8.77032706,
0.0305,-3.210911749,0.0305,8.404896766,
0.03052,-3.210911749,0.03052,9.135757354,
0.03054,-5.768923808,0.03054,8.77032706,
0.03056,-7.596075279,0.03056,8.77032706,
0.03058,-7.230644984,0.03058,8.77032706,
0.0306,-9.057796455,0.0306,9.135757354,
0.03062,-9.057796455,0.03062,8.77032706,
0.03064,-9.423226749,0.03064,8.77032706,
0.03066,-10.15408734,0.03066,8.404896766,
0.03068,-9.057796455,0.03068,8.039466472,
0.0307,-8.326935867,0.0307,8.77032706,
0.03072,-9.788657044,0.03072,8.404896766,
0.03074,-9.057796455,0.03074,8.404896766,
0.03076,-6.134354102,0.03076,8.77032706,
0.03078,-7.230644984,0.03078,8.77032706,
0.0308,-6.134354102,0.0308,8.404896766,
0.03082,-5.403493514,0.03082,8.77032706,
0.03084,-3.941772337,0.03084,8.77032706,
0.03086,-2.48005116,0.03086,8.039466472,
0.03088,-1.018329984,0.03088,8.77032706,
0.0309,-2.48005116,0.0309,8.404896766,
0.03092,3.001403252,0.03092,8.404896766,
0.03094,1.539682076,0.03094,8.77032706,
0.03096,3.001403252,0.03096,8.404896766,
0.03098,7.386566782,0.03098,8.77032706,
0.031,7.751997077,0.031,8.77032706,
0.03102,7.751997077,0.03102,8.77032706,
0.03104,7.751997077,0.03104,8.404896766,
0.03106,7.021136488,0.03106,8.77032706,
0.03108,5.924845606,0.03108,8.039466472,
0.0311,6.655706194,0.0311,8.039466472,
0.03112,7.386566782,0.03112,9.135757354,
0.03114,7.386566782,0.03114,8.77032706,
0.03116,8.117427371,0.03116,8.404896766,
0.03118,7.751997077,0.03118,8.404896766,
0.0312,9.213718253,0.0312,8.404896766,
0.03122,8.117427371,0.03122,8.039466472,
0.03124,8.482857665,0.03124,8.77032706,
0.03126,7.386566782,0.03126,8.404896766,
0.03128,8.117427371,0.03128,8.404896766,
0.0313,5.924845606,0.0313,9.135757354,
0.03132,3.732263841,0.03132,8.77032706,
0.03134,2.270542664,0.03134,8.404896766,
0.03136,0.4433911931,0.03136,8.77032706,
0.03138,0.07796089896,0.03138,8.77032706,
0.0314,-1.018329984,0.0314,8.404896766,
0.03142,-2.48005116,0.03142,8.77032706,
0.03144,-4.672632925,0.03144,8.77032706,
0.03146,-4.307202631,0.03146,8.77032706,
0.03148,-5.768923808,0.03148,8.404896766,
0.0315,-6.499784396,0.0315,8.77032706,
0.03152,-7.596075279,0.03152,8.404896766,
0.03154,-8.692366161,0.03154,8.039466472,
0.03156,-9.423226749,0.03156,8.404896766,
0.03158,-10.15408734,0.03158,8.039466472,
0.0316,-8.326935867,0.0316,8.039466472,
0.03162,-6.134354102,0.03162,9.135757354,
0.03164,-9.423226749,0.03164,8.404896766,
0.03166,-8.692366161,0.03166,7.674036178,
0.03168,-7.961505573,0.03168,8.404896766,
0.0317,-7.230644984,0.0317,8.404896766,
0.03172,-7.596075279,0.03172,8.039466472,
0.03174,-6.499784396,0.03174,8.404896766,
0.03176,-4.307202631,0.03176,8.77032706,
0.03178,-3.941772337,0.03178,8.039466472,
0.0318,-2.845481454,0.0318,8.404896766,
0.03182,-1.018329984,0.03182,7.674036178,
0.03184,0.4433911931,0.03184,8.039466472,
0.03186,1.90511237,0.03186,8.404896766,
0.03188,2.635972958,0.03188,8.404896766,
0.0319,2.635972958,0.0319,8.039466472,
0.03192,6.2902759,0.03192,8.039466472,
0.03194,6.2902759,0.03194,8.039466472,
0.03196,6.655706194,0.03196,7.674036178,
0.03198,8.117427371,0.03198,8.404896766,
0.032,8.848287959,0.032,8.404896766,
0.03202,7.386566782,0.03202,8.77032706,
0.03204,9.944578842,0.03204,8.404896766,
0.03206,7.751997077,0.03206,8.404896766,
0.03208,7.751997077,0.03208,8.039466472,
0.0321,9.579148547,0.0321,8.404896766,
0.03212,5.924845606,0.03212,8.77032706,
0.03214,8.482857665,0.03214,8.039466472,
0.03216,7.021136488,0.03216,8.404896766,
0.03218,10.31000914,0.03218,8.404896766,
0.0322,8.482857665,0.0322,7.674036178,
0.03222,9.579148547,0.03222,8.404896766,
0.03224,5.924845606,0.03224,8.404896766,
0.03226,3.732263841,0.03226,8.039466472,
0.03228,2.635972958,0.03228,8.404896766,
0.0323,0.4433911931,0.0323,8.039466472,
0.03232,0.07796089896,0.03232,6.577745295,
0.03234,-1.018329984,0.03234,8.404896766,
0.03236,-2.845481454,0.03236,8.404896766,
0.03238,-3.210911749,0.03238,8.77032706,
0.0324,-6.499784396,0.0324,8.404896766,
0.03242,-7.230644984,0.03242,9.135757354,
0.03244,-7.230644984,0.03244,7.308605883,
0.03246,-7.230644984,0.03246,8.404896766,
0.03248,-7.961505573,0.03248,8.404896766,
0.0325,-9.057796455,0.0325,8.039466472,
0.03252,-9.057796455,0.03252,9.135757354,
0.03254,-10.88494793,0.03254,8.404896766,
0.03256,-10.15408734,0.03256,7.674036178,
0.03258,-8.692366161,0.03258,8.039466472,
0.0326,-9.423226749,0.0326,8.039466472,
0.03262,-8.692366161,0.03262,6.943175589,
0.03264,-7.596075279,0.03264,7.674036178,
0.03266,-7.230644984,0.03266,8.77032706,
0.03268,-6.499784396,0.03268,8.404896766,
0.0327,-3.576342043,0.0327,8.039466472,
0.03272,-3.210911749,0.03272,8.039466472,
0.03274,-1.018329984,0.03274,8.77032706,
0.03276,-0.6528996894,0.03276,8.404896766,
0.03278,0.8088214873,0.03278,8.404896766,
0.0328,2.270542664,0.0328,8.039466472,
0.03282,4.097694135,0.03282,9.501187648,
0.03284,4.463124429,0.03284,8.404896766,
0.03286,7.021136488,0.03286,8.77032706,
0.03288,7.386566782,0.03288,8.404896766,
0.0329,6.2902759,0.0329,8.404896766,
0.03292,8.117427371,0.03292,8.404896766,
0.03294,6.655706194,0.03294,8.404896766,
0.03296,7.021136488,0.03296,8.039466472,
0.03298,8.117427371,0.03298,8.77032706,
0.033,6.655706194,0.033,8.404896766,
0.03302,6.2902759,0.03302,7.308605883,
0.03304,6.2902759,0.03304,8.77032706,
0.03306,6.655706194,0.03306,8.404896766,
0.03308,6.655706194,0.03308,8.039466472,
0.0331,7.021136488,0.0331,8.77032706,
0.03312,7.021136488,0.03312,8.77032706,
0.03314,8.117427371,0.03314,8.404896766,
0.03316,5.559415312,0.03316,8.77032706,
0.03318,6.2902759,0.03318,8.404896766,
0.0332,1.90511237,0.0332,8.039466472,
0.03322,0.8088214873,0.03322,8.039466472,
0.03324,0.4433911931,0.03324,8.039466472,
0.03326,-1.749190572,0.03326,8.404896766,
0.03328,-2.48005116,0.03328,8.77032706,
0.0333,-3.576342043,0.0333,8.039466472,
0.03332,-5.403493514,0.03332,8.404896766,
0.03334,-7.961505573,0.03334,8.77032706,
0.03336,-7.961505573,0.03336,8.404896766,
0.03338,-7.230644984,0.03338,8.039466472,
0.0334,-8.326935867,0.0334,8.404896766,
0.03342,-10.51951763,0.03342,8.77032706,
0.03344,-8.692366161,0.03344,9.135757354,
0.03346,-10.15408734,0.03346,8.039466472,
0.03348,-9.057796455,0.03348,8.404896766,
0.0335,-9.788657044,0.0335,8.404896766,
0.03352,-10.88494793,0.03352,7.674036178,
0.03354,-8.326935867,0.03354,8.039466472,
0.03356,-8.326935867,0.03356,8.77032706,
0.03358,-7.596075279,0.03358,8.404896766,
0.0336,-6.134354102,0.0336,8.404896766,
0.03362,-5.038063219,0.03362,8.77032706,
0.03364,-4.672632925,0.03364,8.039466472,
0.03366,-2.114620866,0.03366,8.039466472,
0.03368,-1.749190572,0.03368,8.404896766,
0.0337,-1.018329984,0.0337,8.404896766,
0.03372,1.174251781,0.03372,8.404896766,
0.03374,3.732263841,0.03374,8.77032706,
0.03376,4.097694135,0.03376,8.404896766,
0.03378,4.828554723,0.03378,8.404896766,
0.0338,5.924845606,0.0338,8.77032706,
0.03382,6.655706194,0.03382,8.404896766,
0.03384,6.655706194,0.03384,8.039466472,
0.03386,7.751997077,0.03386,8.77032706,
0.03388,7.751997077,0.03388,8.404896766,
0.0339,7.021136488,0.0339,8.039466472,
0.03392,7.386566782,0.03392,8.77032706,
0.03394,4.828554723,0.03394,8.404896766,
0.03396,7.386566782,0.03396,8.039466472,
0.03398,7.751997077,0.03398,9.135757354,
0.034,7.751997077,0.034,8.404896766,
0.03402,8.848287959,0.03402,8.039466472,
0.03404,7.021136488,0.03404,8.77032706,
0.03406,7.751997077,0.03406,8.039466472,
0.03408,7.751997077,0.03408,8.404896766,
0.0341,4.463124429,0.0341,8.77032706,
0.03412,4.097694135,0.03412,8.404896766,
0.03414,2.270542664,0.03414,7.674036178,
0.03416,1.539682076,0.03416,8.77032706,
0.03418,-0.2874693952,0.03418,8.404896766,
0.0342,-3.210911749,0.0342,8.039466472,
0.03422,-2.114620866,0.03422,9.135757354,
0.03424,-3.210911749,0.03424,8.039466472,
0.03426,-5.403493514,0.03426,8.039466472,
0.03428,-5.038063219,0.03428,9.135757354,
0.0343,-7.230644984,0.0343,8.404896766,
0.03432,-8.326935867,0.03432,8.039466472,
0.03434,-8.326935867,0.03434,8.77032706,
0.03436,-9.423226749,0.03436,8.77032706,
0.03438,-10.15408734,0.03438,8.404896766,
0.0344,-10.15408734,0.0344,8.77032706,
0.03442,-9.788657044,0.03442,8.039466472,
0.03444,-9.788657044,0.03444,8.039466472,
0.03446,-9.057796455,0.03446,9.135757354,
0.03448,-9.423226749,0.03448,8.77032706,
0.0345,-6.86521469,0.0345,8.039466472,
0.03452,-6.499784396,0.03452,8.404896766,
0.03454,-8.326935867,0.03454,9.135757354,
0.03456,-5.768923808,0.03456,8.404896766,
0.03458,-3.576342043,0.03458,8.77032706,
0.0346,-2.114620866,0.0346,8.77032706,
0.03462,-3.210911749,0.03462,8.039466472,
0.03464,0.07796089896,0.03464,8.77032706,
0.03466,1.539682076,0.03466,8.77032706,
0.03468,2.270542664,0.03468,8.039466472,
0.0347,4.828554723,0.0347,8.77032706,
0.03472,5.559415312,0.03472,8.404896766,
0.03474,6.655706194,0.03474,8.404896766,
0.03476,8.848287959,0.03476,8.77032706,
0.03478,7.021136488,0.03478,8.404896766,
0.0348,7.751997077,0.0348,8.404896766,
0.03482,6.655706194,0.03482,8.77032706,
0.03484,7.386566782,0.03484,8.404896766,
0.03486,7.751997077,0.03486,8.404896766,
0.03488,7.021136488,0.03488,8.77032706,
0.0349,8.117427371,0.0349,8.404896766,
0.03492,7.021136488,0.03492,8.404896766,
0.03494,8.482857665,0.03494,9.501187648,
0.03496,5.924845606,0.03496,8.039466472,
0.03498,7.386566782,0.03498,8.77032706,
0.035,8.117427371,0.035,8.404896766,
0.03502,5.193985017,0.03502,8.404896766,
0.03504,4.828554723,0.03504,8.404896766,
0.03506,3.366833547,0.03506,8.77032706,
0.03508,1.539682076,0.03508,8.039466472,
0.0351,0.07796089896,0.0351,8.039466472,
0.03512,-1.749190572,0.03512,8.77032706,
0.03514,-1.383760278,0.03514,8.404896766,
0.03516,-3.941772337,0.03516,8.039466472,
0.03518,-4.307202631,0.03518,8.77032706,
0.0352,-5.768923808,0.0352,8.404896766,
0.03522,-6.499784396,0.03522,8.404896766,
0.03524,-5.038063219,0.03524,8.77032706,
0.03526,-9.057796455,0.03526,8.404896766,
0.03528,-9.423226749,0.03528,8.404896766,
0.0353,-9.423226749,0.0353,8.77032706,
0.03532,-9.423226749,0.03532,8.77032706,
0.03534,-9.788657044,0.03534,8.77032706,
0.03536,-9.423226749,0.03536,8.404896766,
0.03538,-9.423226749,0.03538,8.77032706,
0.0354,-9.788657044,0.0354,8.404896766,
0.03542,-6.86521469,0.03542,8.77032706,
0.03544,-8.326935867,0.03544,8.77032706,
0.03546,-6.134354102,0.03546,8.77032706,
0.03548,-5.403493514,0.03548,8.77032706,
0.0355,-4.672632925,0.0355,8.77032706,
0.03552,-2.845481454,0.03552,8.404896766,
0.03554,-2.48005116,0.03554,8.404896766,
0.03556,-1.018329984,0.03556,8.77032706,
0.03558,0.8088214873,0.03558,8.404896766,
0.0356,2.635972958,0.0356,8.77032706,
0.03562,3.001403252,0.03562,8.404896766,
0.03564,3.732263841,0.03564,8.77032706,
0.03566,5.559415312,0.03566,8.77032706,
0.03568,7.751997077,0.03568,8.77032706,
0.0357,7.386566782,0.0357,8.404896766,
0.03572,9.213718253,0.03572,8.404896766,
0.03574,7.751997077,0.03574,8.404896766,
0.03576,7.751997077,0.03576,8.77032706,
0.03578,8.117427371,0.03578,8.404896766,
0.0358,8.117427371,0.0358,8.404896766,
0.03582,6.2902759,0.03582,8.404896766,
0.03584,9.213718253,0.03584,8.404896766,
0.03586,7.386566782,0.03586,8.039466472,
0.03588,8.117427371,0.03588,8.404896766,
0.0359,8.117427371,0.0359,8.77032706,
0.03592,7.021136488,0.03592,8.404896766,
0.03594,7.751997077,0.03594,8.404896766,
0.03596,5.924845606,0.03596,8.77032706,
0.03598,4.463124429,0.03598,8.404896766,
0.036,3.001403252,0.036,8.404896766,
0.03602,0.4433911931,0.03602,8.77032706,
0.03604,2.270542664,0.03604,8.039466472,
0.03606,-1.749190572,0.03606,8.404896766,
0.03608,-1.749190572,0.03608,8.77032706,
0.0361,-3.576342043,0.0361,8.77032706,
0.03612,-4.672632925,0.03612,8.404896766,
0.03614,-3.941772337,0.03614,8.039466472,
0.03616,-7.596075279,0.03616,8.404896766,
0.03618,-7.230644984,0.03618,8.039466472,
0.0362,-8.326935867,0.0362,8.404896766,
0.03622,-9.423226749,0.03622,8.404896766,
0.03624,-7.961505573,0.03624,8.404896766,
0.03626,-7.961505573,0.03626,9.135757354,
0.03628,-11.25037822,0.03628,8.404896766,
0.0363,-9.423226749,0.0363,8.404896766,
0.03632,-9.788657044,0.03632,9.135757354,
0.03634,-10.15408734,0.03634,8.77032706,
0.03636,-7.961505573,0.03636,8.404896766,
0.03638,-8.326935867,0.03638,8.77032706,
0.0364,-6.86521469,0.0364,8.404896766,
0.03642,-4.672632925,0.03642,8.404896766,
0.03644,-4.307202631,0.03644,8.404896766,
0.03646,-4.672632925,0.03646,8.404896766,
0.03648,-1.383760278,0.03648,8.404896766,
0.0365,0.8088214873,0.0365,8.404896766,
0.03652,1.90511237,0.03652,8.404896766,
0.03654,2.635972958,0.03654,7.308605883,
0.03656,3.732263841,0.03656,8.77032706,
0.03658,4.097694135,0.03658,8.77032706,
0.0366,8.117427371,0.0366,8.404896766,
0.03662,7.021136488,0.03662,8.039466472,
0.03664,7.751997077,0.03664,8.404896766,
0.03666,7.751997077,0.03666,8.404896766,
0.03668,8.117427371,0.03668,7.674036178,
0.0367,6.655706194,0.0367,8.404896766,
0.03672,7.751997077,0.03672,8.039466472,
0.03674,12.5025909,0.03674,9.866617943,
0.03676,7.751997077,0.03676,8.404896766,
0.03678,7.751997077,0.03678,8.404896766,
0.0368,8.117427371,0.0368,8.404896766,
0.03682,7.751997077,0.03682,8.404896766,
0.03684,8.848287959,0.03684,9.501187648,
0.03686,7.751997077,0.03686,8.404896766,
0.03688,7.386566782,0.03688,8.77032706,
0.0369,5.924845606,0.0369,8.039466472,
0.03692,3.732263841,0.03692,8.77032706,
0.03694,2.635972958,0.03694,8.039466472,
0.03696,1.539682076,0.03696,8.039466472,
0.03698,1.174251781,0.03698,8.77032706,
0.037,-1.383760278,0.037,8.404896766,
0.03702,-1.749190572,0.03702,8.77032706,
0.03704,-4.307202631,0.03704,6.943175589,
0.03706,-5.038063219,0.03706,8.77032706,
0.03708,-5.403493514,0.03708,8.77032706,
0.0371,-6.86521469,0.0371,8.77032706,
0.03712,-7.230644984,0.03712,8.404896766,
0.03714,-9.057796455,0.03714,9.501187648,
0.03716,-9.788657044,0.03716,8.404896766,
0.03718,-9.057796455,0.03718,8.404896766,
0.0372,-9.423226749,0.0372,8.404896766,
0.03722,-7.596075279,0.03722,9.135757354,
0.03724,-8.326935867,0.03724,9.866617943,
0.03726,-8.692366161,0.03726,8.039466472,
0.03728,-8.326935867,0.03728,8.404896766,
0.0373,-9.057796455,0.0373,8.404896766,
0.03732,-5.768923808,0.03732,7.674036178,
0.03734,-6.134354102,0.03734,8.77032706,
0.03736,-6.499784396,0.03736,8.039466472,
0.03738,-2.845481454,0.03738,8.404896766,
0.0374,-2.48005116,0.0374,8.404896766,
0.03742,-0.6528996894,0.03742,8.039466472,
0.03744,0.07796089896,0.03744,8.404896766,
0.03746,0.4433911931,0.03746,7.674036178,
0.03748,3.732263841,0.03748,8.404896766,
0.0375,4.097694135,0.0375,9.135757354,
0.03752,6.655706194,0.03752,8.039466472,
0.03754,8.117427371,0.03754,7.674036178,
0.03756,7.021136488,0.03756,8.404896766,
0.03758,7.021136488,0.03758,7.674036178,
0.0376,8.117427371,0.0376,8.404896766,
0.03762,6.655706194,0.03762,8.404896766,
0.03764,9.213718253,0.03764,6.212315001,
0.03766,7.751997077,0.03766,8.039466472,
0.03768,8.848287959,0.03768,8.404896766,
0.0377,5.559415312,0.0377,8.404896766,
0.03772,7.751997077,0.03772,8.404896766,
0.03774,7.386566782,0.03774,8.77032706,
0.03776,8.482857665,0.03776,8.77032706,
0.03778,7.386566782,0.03778,8.77032706,
0.0378,7.751997077,0.0378,8.404896766,
0.03782,4.828554723,0.03782,9.135757354,
0.03784,5.193985017,0.03784,9.866617943,
0.03786,4.463124429,0.03786,8.77032706,
0.03788,4.097694135,0.03788,8.77032706,
0.0379,0.07796089896,0.0379,8.404896766,
0.03792,-1.018329984,0.03792,8.039466472,
0.03794,-2.845481454,0.03794,9.866617943,
0.03796,-5.038063219,0.03796,8.77032706,
0.03798,-3.941772337,0.03798,8.404896766,
0.038,-5.403493514,0.038,8.77032706,
0.03802,-6.499784396,0.03802,8.039466472,
0.03804,-7.961505573,0.03804,8.039466472,
0.03806,-9.057796455,0.03806,8.404896766,
0.03808,-8.692366161,0.03808,8.039466472,
0.0381,-7.961505573,0.0381,8.404896766,
0.03812,-9.788657044,0.03812,8.039466472,
0.03814,-9.788657044,0.03814,6.943175589,
0.03816,-10.15408734,0.03816,8.404896766,
0.03818,-9.057796455,0.03818,8.404896766,
0.0382,-10.15408734,0.0382,8.77032706,
0.03822,-8.692366161,0.03822,8.404896766,
0.03824,-6.499784396,0.03824,8.039466472,
0.03826,-5.403493514,0.03826,9.135757354,
0.03828,-6.134354102,0.03828,8.77032706,
0.0383,-3.941772337,0.0383,8.404896766,
0.03832,-3.210911749,0.03832,8.77032706,
0.03834,-1.749190572,0.03834,9.501187648,
0.03836,-0.6528996894,0.03836,8.404896766,
0.03838,0.8088214873,0.03838,8.404896766,
0.0384,0.8088214873,0.0384,8.404896766,
0.03842,2.635972958,0.03842,8.404896766,
0.03844,5.924845606,0.03844,9.135757354,
0.03846,4.828554723,0.03846,8.77032706,
0.03848,7.021136488,0.03848,8.039466472,
0.0385,7.751997077,0.0385,8.404896766,
0.03852,6.655706194,0.03852,8.77032706,
0.03854,8.117427371,0.03854,7.674036178,
0.03856,7.751997077,0.03856,8.404896766,
0.03858,8.117427371,0.03858,8.77032706,
0.0386,8.117427371,0.0386,8.404896766,
0.03862,8.117427371,0.03862,8.404896766,
0.03864,7.021136488,0.03864,8.039466472,
0.03866,8.848287959,0.03866,8.039466472,
0.03868,6.655706194,0.03868,9.135757354,
0.0387,7.751997077,0.0387,8.77032706,
0.03872,8.848287959,0.03872,8.404896766,
0.03874,7.021136488,0.03874,9.135757354,
0.03876,3.732263841,0.03876,8.77032706,
0.03878,4.463124429,0.03878,8.404896766,
0.0388,3.366833547,0.0388,8.77032706,
0.03882,0.8088214873,0.03882,9.135757354,
0.03884,1.174251781,0.03884,8.77032706,
0.03886,-1.383760278,0.03886,8.77032706,
0.03888,-3.576342043,0.03888,8.77032706,
0.0389,-4.307202631,0.0389,8.039466472,
0.03892,-4.307202631,0.03892,8.404896766,
0.03894,-6.134354102,0.03894,8.404896766,
0.03896,-7.230644984,0.03896,8.404896766,
0.03898,-7.596075279,0.03898,8.77032706,
0.039,-8.326935867,0.039,8.404896766,
0.03902,-8.692366161,0.03902,8.039466472,
0.03904,-9.057796455,0.03904,8.404896766,
0.03906,-9.057796455,0.03906,8.77032706,
0.03908,-9.788657044,0.03908,8.404896766,
0.0391,-7.961505573,0.0391,8.77032706,
0.03912,-9.423226749,0.03912,9.135757354,
0.03914,-7.596075279,0.03914,8.039466472,
0.03916,-7.596075279,0.03916,8.77032706,
0.03918,-7.230644984,0.03918,8.404896766,
0.0392,-7.230644984,0.0392,8.404896766,
0.03922,-5.403493514,0.03922,8.77032706,
0.03924,-5.403493514,0.03924,8.77032706,
0.03926,-2.845481454,0.03926,8.404896766,
0.03928,-1.018329984,0.03928,8.404896766,
0.0393,0.07796089896,0.0393,8.77032706,
0.03932,1.90511237,0.03932,8.404896766,
0.03934,1.539682076,0.03934,8.404896766,
0.03936,3.366833547,0.03936,8.404896766,
0.03938,5.924845606,0.03938,8.039466472,
0.0394,5.193985017,0.0394,8.404896766,
0.03942,5.924845606,0.03942,8.404896766,
0.03944,6.2902759,0.03944,8.404896766,
0.03946,8.482857665,0.03946,8.039466472,
0.03948,6.2902759,0.03948,8.77032706,
0.0395,8.482857665,0.0395,8.404896766,
0.03952,7.751997077,0.03952,8.77032706,
0.03954,8.117427371,0.03954,9.135757354,
0.03956,8.482857665,0.03956,8.404896766,
0.03958,7.751997077,0.03958,8.77032706,
0.0396,7.386566782,0.0396,8.77032706,
0.03962,7.021136488,0.03962,8.404896766,
0.03964,8.482857665,0.03964,8.404896766,
0.03966,7.751997077,0.03966,8.404896766,
0.03968,7.751997077,0.03968,8.039466472,
0.0397,5.559415312,0.0397,8.77032706,
0.03972,1.90511237,0.03972,8.77032706,
0.03974,1.90511237,0.03974,8.039466472,
0.03976,1.174251781,0.03976,8.77032706,
0.03978,-0.6528996894,0.03978,8.404896766,
0.0398,-1.749190572,0.0398,8.039466472,
0.03982,-2.114620866,0.03982,8.77032706,
0.03984,-4.307202631,0.03984,7.674036178,
0.03986,-6.499784396,0.03986,8.039466472,
0.03988,-6.134354102,0.03988,9.135757354,
0.0399,-7.230644984,0.0399,8.77032706,
0.03992,-7.596075279,0.03992,8.404896766,
0.03994,-8.326935867,0.03994,8.77032706,
0.03996,-8.326935867,0.03996,8.404896766,
0.03998,-8.692366161,0.03998,8.404896766,
0.04,-9.788657044,0.04,8.77032706,
0.04002,-10.15408734,0.04002,8.404896766,
0.04004,-9.057796455,0.04004,8.039466472,
0.04006,-8.326935867,0.04006,9.135757354,
0.04008,-7.961505573,0.04008,8.404896766,
0.0401,-7.596075279,0.0401,8.039466472,
0.04012,-7.230644984,0.04012,8.039466472,
0.04014,-4.672632925,0.04014,8.404896766,
0.04016,-4.672632925,0.04016,8.404896766,
0.04018,-3.941772337,0.04018,7.674036178,
0.0402,-2.114620866,0.0402,8.404896766,
0.04022,-0.6528996894,0.04022,8.039466472,
0.04024,-1.018329984,0.04024,7.674036178,
0.04026,2.270542664,0.04026,8.039466472,
0.04028,3.366833547,0.04028,8.404896766,
0.0403,4.097694135,0.0403,8.039466472,
0.04032,5.924845606,0.04032,8.404896766,
0.04034,9.944578842,0.04034,8.404896766,
0.04036,7.021136488,0.04036,8.039466472,
0.04038,7.021136488,0.04038,8.404896766,
0.0404,8.482857665,0.0404,8.404896766,
0.04042,7.751997077,0.04042,8.039466472,
0.04044,7.751997077,0.04044,8.039466472,
0.04046,8.482857665,0.04046,8.039466472,
0.04048,7.751997077,0.04048,7.674036178,
0.0405,8.848287959,0.0405,8.404896766,
0.04052,8.117427371,0.04052,8.404896766,
0.04054,8.848287959,0.04054,7.674036178,
0.04056,8.482857665,0.04056,8.404896766,
0.04058,11.04086972,0.04058,8.039466472,
0.0406,7.386566782,0.0406,8.039466472,
0.04062,6.2902759,0.04062,8.404896766,
0.04064,4.463124429,0.04064,8.404896766,
0.04066,3.366833547,0.04066,7.308605883,
0.04068,1.174251781,0.04068,7.674036178,
0.0407,1.174251781,0.0407,8.039466472,
0.04072,-1.749190572,0.04072,7.674036178,
0.04074,-1.749190572,0.04074,8.404896766,
0.04076,-2.114620866,0.04076,8.039466472,
0.04078,-5.038063219,0.04078,7.674036178,
0.0408,-5.768923808,0.0408,8.77032706,
0.04082,-7.230644984,0.04082,8.404896766,
0.04084,-7.230644984,0.04084,8.77032706,
0.04086,-8.326935867,0.04086,8.404896766,
0.04088,-10.88494793,0.04088,8.404896766,
0.0409,-9.788657044,0.0409,8.039466472,
0.04092,-10.88494793,0.04092,8.404896766,
0.04094,-8.326935867,0.04094,8.77032706,
0.04096,-9.788657044,0.04096,8.039466472,
0.04098,-9.423226749,0.04098,8.77032706,
0.041,-9.057796455,0.041,8.404896766,
0.04102,-8.326935867,0.04102,8.039466472,
0.04104,-6.499784396,0.04104,8.404896766,
0.04106,-5.768923808,0.04106,8.039466472,
0.04108,-4.672632925,0.04108,8.039466472,
0.0411,-4.307202631,0.0411,8.77032706,
0.04112,-2.845481454,0.04112,8.039466472,
0.04114,-1.749190572,0.04114,7.674036178,
0.04116,-1.383760278,0.04116,8.77032706,
0.04118,1.539682076,0.04118,8.404896766,
0.0412,1.90511237,0.0412,8.039466472,
0.04122,3.366833547,0.04122,8.039466472,
0.04124,4.828554723,0.04124,8.404896766,
0.04126,5.559415312,0.04126,8.404896766,
0.04128,6.2902759,0.04128,8.404896766,
0.0413,8.482857665,0.0413,8.77032706,
0.04132,7.386566782,0.04132,8.039466472,
0.04134,7.021136488,0.04134,9.135757354,
0.04136,8.117427371,0.04136,8.039466472,
0.04138,7.751997077,0.04138,7.674036178,
0.0414,8.848287959,0.0414,8.404896766,
0.04142,8.482857665,0.04142,8.404896766,
0.04144,7.751997077,0.04144,8.404896766,
0.04146,8.848287959,0.04146,7.674036178,
0.04148,8.482857665,0.04148,8.404896766,
0.0415,7.751997077,0.0415,8.039466472,
0.04152,8.117427371,0.04152,8.404896766,
0.04154,8.117427371,0.04154,8.404896766,
0.04156,5.559415312,0.04156,7.674036178,
0.04158,4.463124429,0.04158,8.404896766,
0.0416,3.001403252,0.0416,8.404896766,
0.04162,1.539682076,0.04162,8.039466472,
0.04164,1.174251781,0.04164,8.404896766,
0.04166,-0.6528996894,0.04166,9.866617943,
0.04168,-3.210911749,0.04168,8.404896766,
0.0417,-3.210911749,0.0417,8.404896766,
0.04172,-4.672632925,0.04172,8.404896766,
0.04174,-6.134354102,0.04174,8.039466472,
0.04176,-7.230644984,0.04176,8.77032706,
0.04178,-7.230644984,0.04178,8.77032706,
0.0418,-8.692366161,0.0418,8.404896766,
0.04182,-7.596075279,0.04182,8.404896766,
0.04184,-9.057796455,0.04184,8.039466472,
0.04186,-9.057796455,0.04186,7.308605883,
0.04188,-8.326935867,0.04188,8.404896766,
0.0419,-9.788657044,0.0419,8.404896766,
0.04192,-9.057796455,0.04192,8.039466472,
0.04194,-9.057796455,0.04194,8.039466472,
0.04196,-8.326935867,0.04196,7.674036178,
0.04198,-9.057796455,0.04198,8.404896766,
0.042,-6.86521469,0.042,8.404896766,
0.04202,-6.499784396,0.04202,8.039466472,
0.04204,-4.307202631,0.04204,8.404896766,
0.04206,-3.210911749,0.04206,8.77032706,
0.04208,-2.114620866,0.04208,8.039466472,
0.0421,-0.2874693952,0.0421,8.77032706,
0.04212,1.174251781,0.04212,8.039466472,
0.04214,2.270542664,0.04214,8.404896766,
0.04216,3.732263841,0.04216,9.135757354,
0.04218,4.463124429,0.04218,8.77032706,
0.0422,6.655706194,0.0422,8.404896766,
0.04222,7.386566782,0.04222,8.404896766,
0.04224,6.655706194,0.04224,8.77032706,
0.04226,7.751997077,0.04226,7.308605883,
0.04228,8.482857665,0.04228,8.404896766,
0.0423,7.021136488,0.0423,8.404896766,
0.04232,7.386566782,0.04232,8.404896766,
0.04234,8.482857665,0.04234,8.77032706,
0.04236,8.117427371,0.04236,7.308605883,
0.04238,5.924845606,0.04238,8.039466472,
0.0424,9.213718253,0.0424,8.77032706,
0.04242,8.117427371,0.04242,8.039466472,
0.04244,7.386566782,0.04244,8.404896766,
0.04246,8.117427371,0.04246,8.404896766,
0.04248,7.021136488,0.04248,8.039466472,
0.0425,4.097694135,0.0425,8.039466472,
0.04252,4.463124429,0.04252,8.77032706,
0.04254,3.366833547,0.04254,8.404896766,
0.04256,1.174251781,0.04256,7.674036178,
0.04258,-1.018329984,0.04258,9.866617943,
0.0426,-2.114620866,0.0426,8.404896766,
0.04262,-3.210911749,0.04262,8.039466472,
0.04264,-4.307202631,0.04264,9.135757354,
0.04266,-5.403493514,0.04266,8.404896766,
0.04268,-6.86521469,0.04268,8.039466472,
0.0427,-7.230644984,0.0427,8.77032706,
0.04272,-8.692366161,0.04272,8.404896766,
0.04274,-8.692366161,0.04274,7.674036178,
0.04276,-9.057796455,0.04276,9.866617943,
0.04278,-10.88494793,0.04278,8.039466472,
0.0428,-9.788657044,0.0428,8.039466472,
0.04282,-9.423226749,0.04282,8.77032706,
0.04284,-8.692366161,0.04284,8.039466472,
0.04286,-10.15408734,0.04286,8.404896766,
0.04288,-7.961505573,0.04288,7.674036178,
0.0429,-7.596075279,0.0429,7.674036178,
0.04292,-5.768923808,0.04292,8.039466472,
0.04294,-5.768923808,0.04294,8.039466472,
0.04296,-4.672632925,0.04296,8.039466472,
0.04298,-3.576342043,0.04298,8.77032706,
0.043,-2.114620866,0.043,8.404896766,
0.04302,-1.383760278,0.04302,8.039466472,
0.04304,-0.6528996894,0.04304,8.404896766,
0.04306,1.90511237,0.04306,7.674036178,
0.04308,3.366833547,0.04308,8.404896766,
0.0431,5.193985017,0.0431,8.404896766,
0.04312,4.828554723,0.04312,8.404896766,
0.04314,7.021136488,0.04314,8.404896766,
0.04316,5.193985017,0.04316,8.039466472,
0.04318,6.2902759,0.04318,8.404896766,
0.0432,8.482857665,0.0432,8.404896766,
0.04322,8.117427371,0.04322,8.404896766,
0.04324,7.751997077,0.04324,8.039466472,
0.04326,8.848287959,0.04326,8.039466472,
0.04328,8.117427371,0.04328,8.404896766,
0.0433,7.386566782,0.0433,8.039466472,
0.04332,8.848287959,0.04332,8.039466472,
0.04334,8.117427371,0.04334,8.404896766,
0.04336,7.751997077,0.04336,8.77032706,
0.04338,10.67543943,0.04338,8.404896766,
0.0434,8.482857665,0.0434,8.404896766,
0.04342,5.559415312,0.04342,8.039466472,
0.04344,5.193985017,0.04344,8.039466472,
0.04346,3.001403252,0.04346,8.039466472,
0.04348,3.732263841,0.04348,7.674036178,
0.0435,1.539682076,0.0435,8.404896766,
0.04352,-0.2874693952,0.04352,8.039466472,
0.04354,-1.749190572,0.04354,8.039466472,
0.04356,-2.114620866,0.04356,7.674036178,
0.04358,-2.845481454,0.04358,8.404896766,
0.0436,-4.672632925,0.0436,8.039466472,
0.04362,-5.768923808,0.04362,8.404896766,
0.04364,-7.230644984,0.04364,8.77032706,
0.04366,-8.326935867,0.04366,7.674036178,
0.04368,-10.88494793,0.04368,8.404896766,
0.0437,-9.423226749,0.0437,7.674036178,
0.04372,-10.15408734,0.04372,7.674036178,
0.04374,-9.057796455,0.04374,8.404896766,
0.04376,-9.788657044,0.04376,8.039466472,
0.04378,-10.51951763,0.04378,7.674036178,
0.0438,-7.961505573,0.0438,8.404896766,
0.04382,-7.961505573,0.04382,8.404896766,
0.04384,-6.134354102,0.04384,8.039466472,
0.04386,-7.961505573,0.04386,9.135757354,
0.04388,-4.307202631,0.04388,8.77032706,
0.0439,-4.307202631,0.0439,8.039466472,
0.04392,-2.48005116,0.04392,8.404896766,
0.04394,-0.2874693952,0.04394,8.404896766,
0.04396,-1.018329984,0.04396,8.404896766,
0.04398,3.001403252,0.04398,8.404896766,
0.044,0.8088214873,0.044,8.404896766,
0.04402,3.732263841,0.04402,7.674036178,
0.04404,4.828554723,0.04404,8.404896766,
0.04406,8.117427371,0.04406,8.039466472,
0.04408,6.655706194,0.04408,8.039466472,
0.0441,7.386566782,0.0441,8.404896766,
0.04412,8.482857665,0.04412,8.404896766,
0.04414,8.117427371,0.04414,8.039466472,
0.04416,7.751997077,0.04416,8.039466472,
0.04418,7.021136488,0.04418,8.404896766,
0.0442,7.386566782,0.0442,7.674036178,
0.04422,7.386566782,0.04422,8.77032706,
0.04424,8.848287959,0.04424,8.77032706,
0.04426,8.482857665,0.04426,8.039466472,
0.04428,8.482857665,0.04428,8.404896766,
0.0443,6.655706194,0.0443,8.404896766,
0.04432,8.117427371,0.04432,8.039466472,
0.04434,8.117427371,0.04434,8.039466472,
0.04436,7.386566782,0.04436,8.039466472,
0.04438,4.097694135,0.04438,8.039466472,
0.0444,3.001403252,0.0444,8.404896766,
0.04442,1.90511237,0.04442,8.039466472,
0.04444,-0.6528996894,0.04444,7.674036178,
0.04446,-1.383760278,0.04446,8.039466472,
0.04448,-4.307202631,0.04448,7.674036178,
0.0445,-3.576342043,0.0445,7.674036178,
0.04452,-4.672632925,0.04452,8.039466472,
0.04454,-6.499784396,0.04454,8.404896766,
0.04456,-7.230644984,0.04456,8.404896766,
0.04458,-9.057796455,0.04458,8.404896766,
0.0446,-7.961505573,0.0446,8.039466472,
0.04462,-8.326935867,0.04462,8.039466472,
0.04464,-9.423226749,0.04464,8.404896766,
0.04466,-8.692366161,0.04466,8.404896766,
0.04468,-9.423226749,0.04468,7.674036178,
0.0447,-9.788657044,0.0447,8.039466472,
0.04472,-9.788657044,0.04472,8.404896766,
0.04474,-7.596075279,0.04474,8.039466472,
0.04476,-7.596075279,0.04476,8.404896766,
0.04478,-6.134354102,0.04478,8.404896766,
0.0448,-5.038063219,0.0448,7.674036178,
0.04482,-6.134354102,0.04482,8.039466472,
0.04484,-3.576342043,0.04484,8.77032706,
0.04486,-0.6528996894,0.04486,7.674036178,
0.04488,-3.210911749,0.04488,9.135757354,
0.0449,-0.2874693952,0.0449,8.404896766,
0.04492,1.539682076,0.04492,8.039466472,
0.04494,2.635972958,0.04494,9.135757354,
0.04496,3.366833547,0.04496,8.77032706,
0.04498,5.193985017,0.04498,7.674036178,
0.045,7.386566782,0.045,8.77032706,
0.04502,6.655706194,0.04502,8.039466472,
0.04504,7.386566782,0.04504,8.404896766,
0.04506,7.386566782,0.04506,8.77032706,
0.04508,7.751997077,0.04508,8.404896766,
0.0451,8.482857665,0.0451,8.404896766,
0.04512,8.117427371,0.04512,8.77032706,
0.04514,7.386566782,0.04514,8.404896766,
0.04516,7.021136488,0.04516,7.674036178,
0.04518,8.848287959,0.04518,8.404896766,
0.0452,6.2902759,0.0452,8.404896766,
0.04522,7.751997077,0.04522,8.039466472,
0.04524,7.751997077,0.04524,8.77032706,
0.04526,5.924845606,0.04526,8.404896766,
0.04528,6.2902759,0.04528,8.039466472,
0.0453,4.828554723,0.0453,8.77032706,
0.04532,4.463124429,0.04532,8.039466472,
0.04534,1.90511237,0.04534,8.039466472,
0.04536,0.8088214873,0.04536,8.77032706,
0.04538,-0.2874693952,0.04538,8.404896766,
0.0454,-1.383760278,0.0454,8.404896766,
0.04542,-2.48005116,0.04542,8.404896766,
0.04544,-3.941772337,0.04544,8.404896766,
0.04546,-6.134354102,0.04546,8.77032706,
0.04548,-6.86521469,0.04548,9.135757354,
0.0455,-7.961505573,0.0455,8.404896766,
0.04552,-8.326935867,0.04552,8.039466472,
0.04554,-7.961505573,0.04554,8.404896766,
0.04556,-11.25037822,0.04556,8.404896766,
0.04558,-9.423226749,0.04558,8.404896766,
0.0456,-8.326935867,0.0456,8.77032706,
0.04562,-10.15408734,0.04562,8.039466472,
0.04564,-11.98123881,0.04564,8.039466472,
0.04566,-8.692366161,0.04566,9.135757354,
0.04568,-8.326935867,0.04568,8.404896766,
0.0457,-5.768923808,0.0457,8.039466472,
0.04572,-7.596075279,0.04572,9.501187648,
0.04574,-5.403493514,0.04574,8.404896766,
0.04576,-4.672632925,0.04576,8.404896766,
0.04578,-4.672632925,0.04578,9.135757354,
0.0458,-2.114620866,0.0458,8.039466472,
0.04582,-2.48005116,0.04582,8.039466472,
0.04584,-0.2874693952,0.04584,9.135757354,
0.04586,1.90511237,0.04586,8.404896766,
0.04588,5.193985017,0.04588,8.404896766,
0.0459,4.828554723,0.0459,9.135757354,
0.04592,5.924845606,0.04592,7.674036178,
0.04594,6.655706194,0.04594,8.404896766,
0.04596,7.386566782,0.04596,9.135757354,
0.04598,7.751997077,0.04598,8.039466472,
0.046,7.751997077,0.046,8.039466472,
0.04602,7.021136488,0.04602,8.404896766,
0.04604,7.021136488,0.04604,8.404896766,
0.04606,8.117427371,0.04606,7.674036178,
0.04608,8.482857665,0.04608,8.77032706,
0.0461,7.386566782,0.0461,8.039466472,
0.04612,11.77173031,0.04612,8.039466472,
0.04614,8.482857665,0.04614,9.135757354,
0.04616,8.482857665,0.04616,8.404896766,
0.04618,8.117427371,0.04618,7.674036178,
0.0462,7.386566782,0.0462,8.77032706,
0.04622,4.828554723,0.04622,8.404896766,
0.04624,4.463124429,0.04624,8.039466472,
0.04626,2.635972958,0.04626,9.135757354,
0.04628,1.174251781,0.04628,8.039466472,
0.0463,0.07796089896,0.0463,8.039466472,
0.04632,-1.749190572,0.04632,9.135757354,
0.04634,-2.48005116,0.04634,8.404896766,
0.04636,-3.210911749,0.04636,8.404896766,
0.04638,-4.672632925,0.04638,9.135757354,
0.0464,-7.230644984,0.0464,8.404896766,
0.04642,-6.499784396,0.04642,8.039466472,
0.04644,-7.230644984,0.04644,9.135757354,
0.04646,-9.423226749,0.04646,9.135757354,
0.04648,-10.88494793,0.04648,8.77032706,
0.0465,-10.15408734,0.0465,9.135757354,
0.04652,-10.15408734,0.04652,8.404896766,
0.04654,-10.15408734,0.04654,8.039466472,
0.04656,-9.057796455,0.04656,8.77032706,
0.04658,-10.88494793,0.04658,8.77032706,
0.0466,-8.326935867,0.0466,7.674036178,
0.04662,-7.961505573,0.04662,9.135757354,
0.04664,-7.230644984,0.04664,8.404896766,
0.04666,-7.596075279,0.04666,8.404896766,
0.04668,-4.672632925,0.04668,8.77032706,
0.0467,-4.307202631,0.0467,8.404896766,
0.04672,-3.941772337,0.04672,8.039466472,
0.04674,-1.018329984,0.04674,8.77032706,
0.04676,0.4433911931,0.04676,8.404896766,
0.04678,2.270542664,0.04678,8.404896766,
0.0468,1.90511237,0.0468,8.404896766,
0.04682,4.097694135,0.04682,8.039466472,
0.04684,5.193985017,0.04684,8.039466472,
0.04686,6.655706194,0.04686,8.404896766,
0.04688,7.751997077,0.04688,9.135757354,
0.0469,7.386566782,0.0469,8.77032706,
0.04692,7.751997077,0.04692,8.404896766,
0.04694,8.117427371,0.04694,8.404896766,
0.04696,8.117427371,0.04696,8.77032706,
0.04698,7.751997077,0.04698,8.404896766,
0.047,7.751997077,0.047,8.404896766,
0.04702,7.751997077,0.04702,8.404896766,
0.04704,7.386566782,0.04704,8.404896766,
0.04706,8.117427371,0.04706,8.039466472,
0.04708,7.386566782,0.04708,7.308605883,
0.0471,8.117427371,0.0471,8.404896766,
0.04712,7.751997077,0.04712,8.404896766,
0.04714,8.482857665,0.04714,8.77032706,
0.04716,4.828554723,0.04716,8.77032706,
0.04718,3.366833547,0.04718,6.943175589,
0.0472,3.366833547,0.0472,8.77032706,
0.04722,-0.6528996894,0.04722,8.77032706,
0.04724,0.4433911931,0.04724,8.404896766,
0.04726,-3.576342043,0.04726,8.77032706,
0.04728,-3.210911749,0.04728,6.943175589,
0.0473,-4.307202631,0.0473,8.039466472,
0.04732,-5.768923808,0.04732,8.77032706,
0.04734,-6.86521469,0.04734,8.404896766,
0.04736,-7.230644984,0.04736,8.039466472,
0.04738,-9.057796455,0.04738,10.23204824,
0.0474,-9.057796455,0.0474,8.404896766,
0.04742,-9.057796455,0.04742,8.77032706,
0.04744,-9.423226749,0.04744,8.77032706,
0.04746,-7.596075279,0.04746,8.404896766,
0.04748,-9.423226749,0.04748,10.23204824,
0.0475,-8.692366161,0.0475,8.77032706,
0.04752,-9.788657044,0.04752,8.404896766,
0.04754,-8.326935867,0.04754,8.039466472,
0.04756,-7.961505573,0.04756,8.404896766,
0.04758,-6.86521469,0.04758,8.77032706,
0.0476,-4.307202631,0.0476,8.404896766,
0.04762,-4.307202631,0.04762,8.404896766,
0.04764,-4.307202631,0.04764,8.77032706,
0.04766,-2.48005116,0.04766,8.039466472,
0.04768,-0.6528996894,0.04768,7.674036178,
0.0477,-1.383760278,0.0477,8.404896766,
0.04772,3.366833547,0.04772,8.77032706,
0.04774,3.732263841,0.04774,8.039466472,
0.04776,4.097694135,0.04776,9.135757354,
0.04778,6.655706194,0.04778,6.577745295,
0.0478,7.021136488,0.0478,8.404896766,
0.04782,6.2902759,0.04782,8.404896766,
0.04784,8.482857665,0.04784,8.039466472,
0.04786,7.751997077,0.04786,8.77032706,
0.04788,8.482857665,0.04788,8.039466472,
0.0479,8.848287959,0.0479,8.404896766,
0.04792,8.117427371,0.04792,8.404896766,
0.04794,8.117427371,0.04794,8.77032706,
0.04796,5.924845606,0.04796,8.404896766,
0.04798,8.117427371,0.04798,9.866617943,
0.048,8.482857665,0.048,8.404896766,
0.04802,7.751997077,0.04802,8.77032706,
0.04804,8.117427371,0.04804,8.404896766,
0.04806,8.117427371,0.04806,8.77032706,
0.04808,6.2902759,0.04808,9.135757354,
0.0481,3.732263841,0.0481,8.039466472,
0.04812,3.001403252,0.04812,8.404896766,
0.04814,2.270542664,0.04814,8.404896766,
0.04816,1.174251781,0.04816,8.404896766,
0.04818,-0.6528996894,0.04818,7.674036178,
0.0482,-0.2874693952,0.0482,8.77032706,
0.04822,-3.576342043,0.04822,8.039466472,
0.04824,-3.576342043,0.04824,8.77032706,
0.04826,-4.307202631,0.04826,8.77032706,
0.04828,-6.499784396,0.04828,7.308605883,
0.0483,-5.403493514,0.0483,8.039466472,
0.04832,-8.326935867,0.04832,8.77032706,
0.04834,-9.423226749,0.04834,8.039466472,
0.04836,-10.15408734,0.04836,8.039466472,
0.04838,-9.423226749,0.04838,9.135757354,
0.0484,-9.057796455,0.0484,8.404896766,
0.04842,-10.51951763,0.04842,8.404896766,
0.04844,-9.788657044,0.04844,9.135757354,
0.04846,-10.51951763,0.04846,8.404896766,
0.04848,-8.692366161,0.04848,9.135757354,
0.0485,-6.86521469,0.0485,9.135757354,
0.04852,-7.230644984,0.04852,8.404896766,
0.04854,-5.768923808,0.04854,8.039466472,
0.04856,-3.941772337,0.04856,8.77032706,
0.04858,-3.576342043,0.04858,9.135757354,
0.0486,-2.48005116,0.0486,8.404896766,
0.04862,1.174251781,0.04862,8.77032706,
0.04864,1.539682076,0.04864,8.039466472,
0.04866,1.174251781,0.04866,8.039466472,
0.04868,3.001403252,0.04868,8.404896766,
0.0487,3.732263841,0.0487,8.404896766,
0.04872,6.2902759,0.04872,8.039466472,
0.04874,6.655706194,0.04874,9.135757354,
0.04876,7.386566782,0.04876,8.404896766,
0.04878,6.2902759,0.04878,6.943175589,
0.0488,7.386566782,0.0488,8.77032706,
0.04882,7.021136488,0.04882,8.404896766,
0.04884,8.117427371,0.04884,8.039466472,
0.04886,7.751997077,0.04886,8.77032706,
0.04888,7.386566782,0.04888,7.674036178,
0.0489,7.386566782,0.0489,8.039466472,
0.04892,7.386566782,0.04892,8.77032706,
0.04894,7.386566782,0.04894,9.135757354,
0.04896,8.117427371,0.04896,8.404896766,
0.04898,7.386566782,0.04898,8.404896766,
0.049,7.751997077,0.049,8.77032706,
0.04902,5.559415312,0.04902,8.039466472,
0.04904,4.828554723,0.04904,8.77032706,
0.04906,3.366833547,0.04906,8.404896766,
0.04908,1.174251781,0.04908,8.404896766,
0.0491,2.635972958,0.0491,8.77032706,
0.04912,-1.383760278,0.04912,8.039466472,
0.04914,-1.749190572,0.04914,7.674036178,
0.04916,-5.403493514,0.04916,9.135757354,
0.04918,-5.038063219,0.04918,8.77032706,
0.0492,-4.307202631,0.0492,8.039466472,
0.04922,-6.86521469,0.04922,8.404896766,
0.04924,-7.961505573,0.04924,8.039466472,
0.04926,-8.692366161,0.04926,8.404896766,
0.04928,-9.057796455,0.04928,9.501187648,
0.0493,-9.788657044,0.0493,8.404896766,
0.04932,-7.596075279,0.04932,8.404896766,
0.04934,-10.15408734,0.04934,8.77032706,
0.04936,-10.51951763,0.04936,8.404896766,
0.04938,-9.057796455,0.04938,8.77032706,
0.0494,-7.961505573,0.0494,8.77032706,
0.04942,-8.326935867,0.04942,8.039466472,
0.04944,-7.961505573,0.04944,8.404896766,
0.04946,-5.768923808,0.04946,8.404896766,
0.04948,-6.134354102,0.04948,8.77032706,
0.0495,-5.768923808,0.0495,8.404896766,
0.04952,-2.114620866,0.04952,8.404896766,
0.04954,-2.48005116,0.04954,8.039466472,
0.04956,-0.2874693952,0.04956,8.404896766,
0.04958,3.001403252,0.04958,8.77032706,
0.0496,3.001403252,0.0496,8.404896766,
0.04962,4.828554723,0.04962,8.77032706,
0.04964,4.828554723,0.04964,8.404896766,
0.04966,7.021136488,0.04966,8.404896766,
0.04968,7.021136488,0.04968,8.77032706,
0.0497,8.117427371,0.0497,8.404896766,
0.04972,7.751997077,0.04972,8.77032706,
0.04974,8.117427371,0.04974,8.404896766,
0.04976,7.386566782,0.04976,8.039466472,
0.04978,8.117427371,0.04978,8.77032706,
0.0498,8.482857665,0.0498,8.77032706,
0.04982,8.117427371,0.04982,8.404896766,
0.04984,7.386566782,0.04984,8.404896766,
0.04986,8.117427371,0.04986,8.77032706,
0.04988,6.655706194,0.04988,8.77032706,
0.0499,8.482857665,0.0499,8.404896766,
0.04992,7.751997077,0.04992,8.77032706,
0.04994,7.386566782,0.04994,8.404896766,
0.04996,5.193985017,0.04996,8.404896766,
0.04998,4.463124429,0.04998,8.77032706,
0.05,1.90511237,0.05,8.404896766,
0.05002,1.90511237,0.05002,8.404896766,
0.05004,0.4433911931,0.05004,8.77032706,
0.05006,-1.749190572,0.05006,8.77032706,
0.05008,-2.114620866,0.05008,8.77032706,
0.0501,-4.307202631,0.0501,8.77032706,
0.05012,-6.134354102,0.05012,8.404896766,
0.05014,-5.768923808,0.05014,8.039466472,
0.05016,-6.499784396,0.05016,9.135757354,
0.05018,-8.326935867,0.05018,8.404896766,
0.0502,-7.961505573,0.0502,8.039466472,
0.05022,-7.961505573,0.05022,8.77032706,
0.05024,-9.423226749,0.05024,8.404896766,
0.05026,-10.51951763,0.05026,8.77032706,
0.05028,-8.692366161,0.05028,9.501187648,
0.0503,-8.692366161,0.0503,8.77032706,
0.05032,-8.326935867,0.05032,8.77032706,
0.05034,-8.326935867,0.05034,9.135757354,
0.05036,-8.692366161,0.05036,8.77032706,
0.05038,-5.403493514,0.05038,8.77032706,
0.0504,-5.038063219,0.0504,8.404896766,
0.05042,-5.038063219,0.05042,8.77032706,
0.05044,-3.210911749,0.05044,8.404896766,
0.05046,-1.749190572,0.05046,8.404896766,
0.05048,-1.018329984,0.05048,8.404896766,
0.0505,0.4433911931,0.0505,8.404896766,
0.05052,2.270542664,0.05052,8.404896766,
0.05054,3.001403252,0.05054,8.77032706,
0.05056,5.559415312,0.05056,8.404896766,
0.05058,6.2902759,0.05058,8.039466472,
0.0506,5.559415312,0.0506,8.77032706,
0.05062,7.751997077,0.05062,8.039466472,
0.05064,7.751997077,0.05064,8.404896766,
0.05066,6.655706194,0.05066,8.404896766,
0.05068,9.213718253,0.05068,8.77032706,
0.0507,7.751997077,0.0507,8.77032706,
0.05072,7.386566782,0.05072,8.77032706,
0.05074,7.751997077,0.05074,8.404896766,
0.05076,8.482857665,0.05076,8.404896766,
0.05078,8.117427371,0.05078,8.77032706,
0.0508,7.751997077,0.0508,8.404896766,
0.05082,8.117427371,0.05082,8.77032706,
0.05084,7.021136488,0.05084,8.77032706,
0.05086,6.655706194,0.05086,8.039466472,
0.05088,5.924845606,0.05088,8.77032706,
0.0509,4.828554723,0.0509,8.039466472,
0.05092,5.924845606,0.05092,8.039466472,
0.05094,1.174251781,0.05094,8.77032706,
0.05096,0.07796089896,0.05096,8.404896766,
0.05098,0.4433911931,0.05098,8.404896766,
0.051,-1.383760278,0.051,8.404896766,
0.05102,-3.941772337,0.05102,8.039466472,
0.05104,-2.845481454,0.05104,8.77032706,
0.05106,-6.86521469,0.05106,8.77032706,
0.05108,-7.596075279,0.05108,8.404896766,
0.0511,-6.499784396,0.0511,8.404896766,
0.05112,-9.423226749,0.05112,8.404896766,
0.05114,-10.51951763,0.05114,8.77032706,
0.05116,-12.3466691,0.05116,8.404896766,
0.05118,-10.15408734,0.05118,8.77032706,
0.0512,-9.423226749,0.0512,8.039466472,
0.05122,-9.423226749,0.05122,8.039466472,
0.05124,-9.423226749,0.05124,8.77032706,
0.05126,-9.788657044,0.05126,8.77032706,
0.05128,-7.596075279,0.05128,8.404896766,
0.0513,-5.768923808,0.0513,8.77032706,
0.05132,-5.403493514,0.05132,8.404896766,
0.05134,-5.403493514,0.05134,8.039466472,
0.05136,-4.307202631,0.05136,8.77032706,
0.05138,-3.576342043,0.05138,8.404896766,
0.0514,-2.114620866,0.0514,8.404896766,
0.05142,0.07796089896,0.05142,8.404896766,
0.05144,-0.2874693952,0.05144,8.404896766,
0.05146,2.270542664,0.05146,8.404896766,
0.05148,3.366833547,0.05148,8.404896766,
0.0515,6.2902759,0.0515,8.404896766,
0.05152,6.2902759,0.05152,7.674036178,
0.05154,7.021136488,0.05154,8.039466472,
0.05156,7.386566782,0.05156,8.77032706,
0.05158,8.117427371,0.05158,8.404896766,
0.0516,7.021136488,0.0516,8.039466472,
0.05162,8.482857665,0.05162,8.404896766,
0.05164,9.213718253,0.05164,8.039466472,
0.05166,8.117427371,0.05166,7.308605883,
0.05168,8.117427371,0.05168,8.039466472,
0.0517,9.944578842,0.0517,8.039466472,
0.05172,9.213718253,0.05172,8.039466472,
0.05174,7.751997077,0.05174,8.404896766,
0.05176,8.482857665,0.05176,8.404896766,
0.05178,7.021136488,0.05178,8.039466472,
0.0518,8.117427371,0.0518,8.039466472,
0.05182,5.924845606,0.05182,8.404896766,
0.05184,4.828554723,0.05184,8.039466472,
0.05186,2.635972958,0.05186,8.77032706,
0.05188,2.270542664,0.05188,8.404896766,
0.0519,-2.114620866,0.0519,8.039466472,
0.05192,-0.6528996894,0.05192,8.77032706,
0.05194,-1.749190572,0.05194,8.039466472,
0.05196,-3.576342043,0.05196,8.039466472,
0.05198,-4.672632925,0.05198,8.77032706,
0.052,-5.038063219,0.052,8.77032706,
0.05202,-6.86521469,0.05202,8.039466472,
0.05204,-7.961505573,0.05204,8.77032706,
0.05206,-8.326935867,0.05206,8.404896766,
0.05208,-9.423226749,0.05208,8.404896766,
0.0521,-13.44295999,0.0521,8.77032706,
0.05212,-8.692366161,0.05212,8.404896766,
0.05214,-9.788657044,0.05214,7.674036178,
0.05216,-10.15408734,0.05216,8.77032706,
0.05218,-9.057796455,0.05218,8.404896766,
0.0522,-8.692366161,0.0522,7.308605883,
0.05222,-7.961505573,0.05222,8.404896766,
0.05224,-5.038063219,0.05224,8.404896766,
0.05226,-7.961505573,0.05226,7.308605883,
0.05228,-4.672632925,0.05228,8.77032706,
0.0523,-3.941772337,0.0523,7.674036178,
0.05232,-2.48005116,0.05232,7.674036178,
0.05234,-1.383760278,0.05234,8.039466472,
0.05236,0.07796089896,0.05236,8.404896766,
0.05238,0.8088214873,0.05238,8.039466472,
0.0524,1.174251781,0.0524,8.039466472,
0.05242,4.097694135,0.05242,8.039466472,
0.05244,4.097694135,0.05244,7.674036178,
0.05246,7.386566782,0.05246,8.039466472,
0.05248,7.751997077,0.05248,8.404896766,
0.0525,8.117427371,0.0525,8.039466472,
0.05252,8.117427371,0.05252,8.404896766,
0.05254,7.751997077,0.05254,8.77032706,
0.05256,9.944578842,0.05256,8.039466472,
0.05258,8.117427371,0.05258,8.039466472,
0.0526,7.751997077,0.0526,7.674036178,
0.05262,7.751997077,0.05262,7.674036178,
0.05264,8.117427371,0.05264,8.404896766,
0.05266,8.482857665,0.05266,8.404896766,
0.05268,6.2902759,0.05268,7.674036178,
0.0527,8.117427371,0.0527,8.404896766,
0.05272,7.751997077,0.05272,8.039466472,
0.05274,7.386566782,0.05274,8.039466472,
0.05276,5.924845606,0.05276,8.404896766,
0.05278,4.463124429,0.05278,8.404896766,
0.0528,1.174251781,0.0528,9.501187648,
0.05282,1.90511237,0.05282,8.77032706,
0.05284,0.07796089896,0.05284,9.866617943,
0.05286,-1.383760278,0.05286,8.039466472,
0.05288,-3.210911749,0.05288,8.77032706,
0.0529,-4.307202631,0.0529,8.77032706,
0.05292,-5.038063219,0.05292,8.404896766,
0.05294,-4.672632925,0.05294,8.77032706,
0.05296,-8.326935867,0.05296,8.404896766,
0.05298,-8.326935867,0.05298,8.404896766,
0.053,-9.057796455,0.053,8.77032706,
0.05302,-8.692366161,0.05302,8.039466472,
0.05304,-7.961505573,0.05304,8.039466472,
0.05306,-9.057796455,0.05306,8.404896766,
0.05308,-9.788657044,0.05308,8.77032706,
0.0531,-9.057796455,0.0531,6.943175589,
0.05312,-9.423226749,0.05312,8.404896766,
0.05314,-9.423226749,0.05314,8.404896766,
0.05316,-7.596075279,0.05316,8.77032706,
0.05318,-4.672632925,0.05318,8.404896766,
0.0532,-5.768923808,0.0532,9.135757354,
0.05322,-4.672632925,0.05322,8.039466472,
0.05324,-2.845481454,0.05324,8.404896766,
0.05326,-2.114620866,0.05326,8.404896766,
0.05328,-1.383760278,0.05328,8.039466472,
0.0533,1.539682076,0.0533,9.501187648,
0.05332,2.635972958,0.05332,8.77032706,
0.05334,4.097694135,0.05334,8.404896766,
0.05336,4.828554723,0.05336,9.135757354,
0.05338,5.193985017,0.05338,8.77032706,
0.0534,7.751997077,0.0534,8.039466472,
0.05342,7.386566782,0.05342,8.77032706,
0.05344,8.117427371,0.05344,9.135757354,
0.05346,7.751997077,0.05346,7.674036178,
0.05348,7.751997077,0.05348,8.404896766,
0.0535,9.213718253,0.0535,7.308605883,
0.05352,7.386566782,0.05352,8.404896766,
0.05354,8.848287959,0.05354,8.404896766,
0.05356,8.117427371,0.05356,8.039466472,
0.05358,8.117427371,0.05358,8.404896766,
0.0536,8.117427371,0.0536,8.404896766,
0.05362,6.2902759,0.05362,8.039466472,
0.05364,8.482857665,0.05364,8.404896766,
0.05366,8.482857665,0.05366,8.039466472,
0.05368,7.751997077,0.05368,8.039466472,
0.0537,4.097694135,0.0537,8.404896766,
0.05372,4.097694135,0.05372,9.135757354,
0.05374,2.635972958,0.05374,8.039466472,
0.05376,0.8088214873,0.05376,8.404896766,
0.05378,-0.2874693952,0.05378,8.404896766,
0.0538,-2.114620866,0.0538,7.674036178,
0.05382,0.8088214873,0.05382,8.404896766,
0.05384,-4.307202631,0.05384,8.77032706,
0.05386,-4.307202631,0.05386,7.674036178,
0.05388,-7.596075279,0.05388,8.404896766,
0.0539,-7.961505573,0.0539,8.404896766,
0.05392,-6.499784396,0.05392,7.674036178,
0.05394,-8.326935867,0.05394,8.404896766,
0.05396,-9.057796455,0.05396,8.404896766,
0.05398,-9.788657044,0.05398,8.039466472,
0.054,-9.423226749,0.054,8.039466472,
0.05402,-7.596075279,0.05402,8.404896766,
0.05404,-10.15408734,0.05404,8.039466472,
0.05406,-8.326935867,0.05406,8.404896766,
0.05408,-7.961505573,0.05408,8.404896766,
0.0541,-7.230644984,0.0541,7.674036178,
0.05412,-8.326935867,0.05412,9.501187648,
0.05414,-6.499784396,0.05414,8.404896766,
0.05416,-5.038063219,0.05416,8.039466472,
0.05418,-3.576342043,0.05418,8.039466472,
0.0542,-1.383760278,0.0542,8.404896766,
0.05422,-2.48005116,0.05422,8.404896766,
0.05424,1.539682076,0.05424,8.039466472,
0.05426,2.270542664,0.05426,8.77032706,
0.05428,3.366833547,0.05428,8.039466472,
0.0543,5.559415312,0.0543,9.135757354,
0.05432,5.924845606,0.05432,8.404896766,
0.05434,6.655706194,0.05434,8.039466472,
0.05436,8.482857665,0.05436,8.77032706,
0.05438,8.117427371,0.05438,8.404896766,
0.0544,8.848287959,0.0544,9.135757354,
0.05442,8.482857665,0.05442,8.039466472,
0.05444,8.848287959,0.05444,8.404896766,
0.05446,7.751997077,0.05446,8.404896766,
0.05448,8.482857665,0.05448,8.404896766,
0.0545,8.848287959,0.0545,8.039466472,
0.05452,8.848287959,0.05452,8.404896766,
0.05454,7.751997077,0.05454,8.039466472,
0.05456,7.751997077,0.05456,8.404896766,
0.05458,7.751997077,0.05458,8.77032706,
0.0546,8.482857665,0.0546,8.039466472,
0.05462,4.097694135,0.05462,8.404896766,
0.05464,4.463124429,0.05464,8.77032706,
0.05466,3.001403252,0.05466,8.404896766,
0.05468,5.924845606,0.05468,9.135757354,
0.0547,1.174251781,0.0547,8.039466472,
0.05472,-0.2874693952,0.05472,8.404896766,
0.05474,-2.114620866,0.05474,8.77032706,
0.05476,-3.210911749,0.05476,8.77032706,
0.05478,-4.307202631,0.05478,8.404896766,
0.0548,-6.499784396,0.0548,8.77032706,
0.05482,-5.403493514,0.05482,8.404896766,
0.05484,-7.961505573,0.05484,8.404896766,
0.05486,-8.326935867,0.05486,8.404896766,
0.05488,-9.788657044,0.05488,8.404896766,
0.0549,-9.423226749,0.0549,8.404896766,
0.05492,-7.596075279,0.05492,8.404896766,
0.05494,-9.423226749,0.05494,8.404896766,
0.05496,-9.057796455,0.05496,8.404896766,
0.05498,-9.057796455,0.05498,8.039466472,
0.055,-8.326935867,0.055,8.77032706,
0.05502,-6.499784396,0.05502,8.404896766,
0.05504,-6.499784396,0.05504,8.77032706,
0.05506,-5.403493514,0.05506,8.404896766,
0.05508,-5.403493514,0.05508,8.77032706,
0.0551,-3.941772337,0.0551,8.404896766,
0.05512,-3.210911749,0.05512,8.404896766,
0.05514,-0.6528996894,0.05514,8.77032706,
0.05516,0.4433911931,0.05516,8.404896766,
0.05518,2.270542664,0.05518,8.404896766,
0.0552,3.366833547,0.0552,8.404896766,
0.05522,2.635972958,0.05522,8.404896766,
0.05524,5.559415312,0.05524,8.404896766,
0.05526,6.2902759,0.05526,8.039466472,
0.05528,7.751997077,0.05528,8.77032706,
0.0553,8.117427371,0.0553,8.404896766,
0.05532,6.2902759,0.05532,9.135757354,
0.05534,7.751997077,0.05534,8.77032706,
0.05536,6.655706194,0.05536,7.308605883,
0.05538,8.482857665,0.05538,8.77032706,
0.0554,8.117427371,0.0554,8.77032706,
0.05542,5.924845606,0.05542,8.404896766,
0.05544,8.482857665,0.05544,8.404896766,
0.05546,8.482857665,0.05546,8.77032706,
0.05548,7.751997077,0.05548,8.404896766,
0.0555,7.751997077,0.0555,8.039466472,
0.05552,9.213718253,0.05552,8.77032706,
0.05554,5.559415312,0.05554,8.404896766,
0.05556,4.828554723,0.05556,8.039466472,
0.05558,3.366833547,0.05558,8.404896766,
0.0556,1.90511237,0.0556,8.404896766,
0.05562,1.174251781,0.05562,8.404896766,
0.05564,0.4433911931,0.05564,8.77032706,
0.05566,-1.749190572,0.05566,8.404896766,
0.05568,-2.845481454,0.05568,8.404896766,
0.0557,-3.941772337,0.0557,8.77032706,
0.05572,-3.941772337,0.05572,8.77032706,
0.05574,-6.499784396,0.05574,8.039466472,
0.05576,-6.499784396,0.05576,8.77032706,
0.05578,-8.326935867,0.05578,8.77032706,
0.0558,-8.692366161,0.0558,8.404896766,
0.05582,-8.692366161,0.05582,8.77032706,
0.05584,-9.788657044,0.05584,8.77032706,
0.05586,-9.788657044,0.05586,8.77032706,
0.05588,-9.788657044,0.05588,8.77032706,
0.0559,-9.788657044,0.0559,8.404896766,
0.05592,-9.057796455,0.05592,8.404896766,
0.05594,-8.692366161,0.05594,8.039466472,
0.05596,-8.692366161,0.05596,8.404896766,
0.05598,-7.230644984,0.05598,8.039466472,
0.056,-5.768923808,0.056,8.77032706,
0.05602,-6.499784396,0.05602,8.77032706,
0.05604,-2.845481454,0.05604,8.404896766,
0.05606,-1.749190572,0.05606,8.404896766,
0.05608,0.4433911931,0.05608,8.77032706,
0.0561,0.4433911931,0.0561,8.039466472,
0.05612,0.4433911931,0.05612,8.77032706,
0.05614,2.635972958,0.05614,8.77032706,
0.05616,3.366833547,0.05616,8.404896766,
0.05618,6.2902759,0.05618,8.77032706,
0.0562,6.655706194,0.0562,8.404896766,
0.05622,7.751997077,0.05622,8.039466472,
0.05624,8.482857665,0.05624,8.404896766,
0.05626,7.386566782,0.05626,8.404896766,
0.05628,8.848287959,0.05628,8.039466472,
0.0563,8.117427371,0.0563,8.404896766,
0.05632,7.021136488,0.05632,8.404896766,
0.05634,7.386566782,0.05634,8.404896766,
0.05636,7.751997077,0.05636,8.77032706,
0.05638,9.213718253,0.05638,8.404896766,
0.0564,8.482857665,0.0564,8.039466472,
0.05642,8.848287959,0.05642,8.77032706,
0.05644,7.386566782,0.05644,8.404896766,
0.05646,9.579148547,0.05646,8.404896766,
0.05648,5.924845606,0.05648,8.77032706,
0.0565,4.463124429,0.0565,8.404896766,
0.05652,4.463124429,0.05652,8.404896766,
0.05654,2.270542664,0.05654,8.77032706,
0.05656,0.8088214873,0.05656,8.404896766,
0.05658,-0.6528996894,0.05658,8.404896766,
0.0566,-2.114620866,0.0566,8.77032706,
0.05662,-3.576342043,0.05662,8.77032706,
0.05664,-5.768923808,0.05664,8.039466472,
0.05666,-6.86521469,0.05666,9.135757354,
0.05668,-7.230644984,0.05668,8.77032706,
0.0567,-4.672632925,0.0567,8.404896766,
0.05672,-9.057796455,0.05672,8.77032706,
0.05674,-9.788657044,0.05674,8.77032706,
0.05676,-10.51951763,0.05676,8.404896766,
0.05678,-9.788657044,0.05678,9.135757354,
0.0568,-10.15408734,0.0568,8.77032706,
0.05682,-10.15408734,0.05682,8.039466472,
0.05684,-9.057796455,0.05684,8.77032706,
0.05686,-8.692366161,0.05686,8.039466472,
0.05688,-7.961505573,0.05688,8.404896766,
0.0569,-5.038063219,0.0569,8.77032706,
0.05692,-5.768923808,0.05692,8.404896766,
0.05694,-4.672632925,0.05694,8.404896766,
0.05696,-4.307202631,0.05696,8.404896766,
0.05698,-3.576342043,0.05698,8.404896766,
0.057,-1.749190572,0.057,8.404896766,
0.05702,0.4433911931,0.05702,8.404896766,
0.05704,0.07796089896,0.05704,8.404896766,
0.05706,3.001403252,0.05706,8.039466472,
0.05708,2.270542664,0.05708,8.77032706,
0.0571,4.828554723,0.0571,8.404896766,
0.05712,6.655706194,0.05712,8.039466472,
0.05714,7.751997077,0.05714,8.404896766,
0.05716,7.386566782,0.05716,8.039466472,
0.05718,7.751997077,0.05718,8.404896766,
0.0572,8.117427371,0.0572,8.77032706,
0.05722,5.559415312,0.05722,7.674036178,
0.05724,8.848287959,0.05724,8.404896766,
0.05726,8.117427371,0.05726,8.039466472,
0.05728,7.751997077,0.05728,8.039466472,
0.0573,8.117427371,0.0573,8.404896766,
0.05732,6.655706194,0.05732,8.404896766,
0.05734,7.751997077,0.05734,8.039466472,
0.05736,8.482857665,0.05736,8.039466472,
0.05738,6.655706194,0.05738,8.039466472,
0.0574,7.751997077,0.0574,8.039466472,
0.05742,5.924845606,0.05742,7.674036178,
0.05744,5.193985017,0.05744,8.404896766,
0.05746,2.270542664,0.05746,7.674036178,
0.05748,1.90511237,0.05748,8.404896766,
0.0575,1.90511237,0.0575,8.404896766,
0.05752,0.8088214873,0.05752,9.135757354,
0.05754,-2.845481454,0.05754,8.039466472,
0.05756,-3.210911749,0.05756,8.404896766,
0.05758,-4.672632925,0.05758,8.039466472,
0.0576,-6.134354102,0.0576,8.404896766,
0.05762,-6.499784396,0.05762,8.404896766,
0.05764,-9.423226749,0.05764,7.674036178,
0.05766,-10.15408734,0.05766,7.674036178,
0.05768,-9.057796455,0.05768,8.404896766,
0.0577,-9.788657044,0.0577,8.039466472,
0.05772,-9.057796455,0.05772,6.212315001,
0.05774,-9.057796455,0.05774,8.039466472,
0.05776,-9.423226749,0.05776,7.674036178,
0.05778,-9.788657044,0.05778,8.039466472,
0.0578,-8.692366161,0.0578,8.404896766,
0.05782,-7.961505573,0.05782,8.77032706,
0.05784,-6.86521469,0.05784,8.039466472,
0.05786,-5.768923808,0.05786,8.404896766,
0.05788,-5.768923808,0.05788,8.039466472,
0.0579,-3.576342043,0.0579,8.039466472,
0.05792,-2.48005116,0.05792,10.23204824,
0.05794,-1.018329984,0.05794,7.308605883,
0.05796,0.07796089896,0.05796,8.039466472,
0.05798,1.90511237,0.05798,8.039466472,
0.058,3.001403252,0.058,8.039466472,
0.05802,4.097694135,0.05802,8.404896766,
0.05804,5.559415312,0.05804,8.404896766,
0.05806,6.2902759,0.05806,7.674036178,
0.05808,7.751997077,0.05808,8.404896766,
0.0581,7.751997077,0.0581,8.039466472,
0.05812,8.482857665,0.05812,6.577745295,
0.05814,7.021136488,0.05814,8.404896766,
0.05816,8.482857665,0.05816,8.039466472,
0.05818,8.117427371,0.05818,8.039466472,
0.0582,7.386566782,0.0582,8.404896766,
0.05822,8.117427371,0.05822,7.674036178,
0.05824,8.848287959,0.05824,8.77032706,
0.05826,7.751997077,0.05826,8.404896766,
0.05828,8.117427371,0.05828,8.404896766,
0.0583,7.751997077,0.0583,8.77032706,
0.05832,7.751997077,0.05832,9.866617943,
0.05834,4.828554723,0.05834,8.039466472,
0.05836,4.463124429,0.05836,8.77032706,
0.05838,4.097694135,0.05838,8.77032706,
0.0584,1.539682076,0.0584,8.039466472,
0.05842,0.4433911931,0.05842,7.308605883,
0.05844,-0.6528996894,0.05844,8.77032706,
0.05846,-1.749190572,0.05846,8.77032706,
0.05848,-2.48005116,0.05848,8.404896766,
0.0585,-3.941772337,0.0585,8.404896766,
0.05852,-5.768923808,0.05852,8.77032706,
0.05854,-5.403493514,0.05854,8.77032706,
0.05856,-7.596075279,0.05856,8.039466472,
0.05858,-7.961505573,0.05858,8.77032706,
0.0586,-9.057796455,0.0586,8.404896766,
0.05862,-9.057796455,0.05862,9.135757354,
0.05864,-9.788657044,0.05864,8.77032706,
0.05866,-9.057796455,0.05866,8.404896766,
0.05868,-9.057796455,0.05868,8.039466472,
0.0587,-8.326935867,0.0587,8.77032706,
0.05872,-9.057796455,0.05872,8.77032706,
0.05874,-9.423226749,0.05874,8.039466472,
0.05876,-7.230644984,0.05876,8.77032706,
